Elapsed Time (s),Position (mm),Force (N)
-0.015,75.4094,-0.080393
0.016,75.4094,-0.080393
0.047,75.4094,-0.080393
0.083,75.4094,-0.080393
0.125,75.4094,-0.075349
0.156,75.4094,-0.075349
0.188,75.4094,-0.075349
0.219,75.4094,-0.075349
0.252,75.4094,-0.075349
0.281,75.4094,-0.075349
0.312,75.4094,-0.075349
0.343,75.4094,-0.075349
0.374,75.4094,-0.069204
0.404,75.4094,-0.069204
0.435,75.4094,-0.069204
0.465,75.4094,-0.069204
0.497,75.4094,-0.069204
0.528,75.4094,-0.069204
0.560,75.4094,-0.069204
0.590,75.4094,-0.069204
0.622,75.4094,-0.069204
0.652,75.4094,-0.065402
0.683,75.4094,-0.065402
0.715,75.4094,-0.065402
0.747,75.4094,-0.065402
0.778,75.4094,-0.065402
0.809,75.4094,-0.065402
0.840,75.4094,-0.065402
0.871,75.4094,-0.065402
0.902,75.4094,-0.062711
0.932,75.4094,-0.062711
0.963,75.4094,-0.062711
0.995,75.4094,-0.062711
1.026,75.4094,-0.062711
1.057,75.4094,-0.062711
1.087,75.4094,-0.062711
1.118,75.4094,-0.060659
1.149,75.4094,-0.060659
1.180,75.4094,-0.060659
1.211,75.4094,-0.060659
1.243,75.4094,-0.060659
1.274,75.4094,-0.060659
1.305,75.4094,-0.060659
1.337,75.4094,-0.060659
1.368,75.4094,-0.059003
1.399,75.4094,-0.059003
1.430,75.4094,-0.059003
1.460,75.4094,-0.059003
1.491,75.4094,-0.059003
1.522,75.4094,-0.059003
1.553,75.4094,-0.059003
1.584,75.4094,-0.059003
1.614,75.4094,-0.059003
1.646,75.4094,-0.057639
1.677,75.4094,-0.057639
1.708,75.4094,-0.057639
1.738,75.4094,-0.057639
1.770,75.4094,-0.057639
1.802,75.4094,-0.057639
1.834,75.4094,-0.057639
1.865,75.4094,-0.056406
1.897,75.4094,-0.056406
1.929,75.4094,-0.056406
1.960,75.4094,-0.056406
1.990,75.4094,-0.056406
2.023,75.4094,-0.056406
2.052,75.4094,-0.056406
2.083,75.4094,-0.056406
2.114,75.4094,-0.056406
2.145,75.4094,-0.055333
2.176,75.4094,-0.055333
2.207,75.4094,-0.055333
2.238,75.4094,-0.055333
2.268,75.4094,-0.055333
2.299,75.4094,-0.055333
2.330,75.4094,-0.055333
2.361,75.4094,-0.055333
2.392,75.4094,-0.054401
2.423,75.4094,-0.054401
2.457,75.4094,-0.054401
2.485,75.4094,-0.054401
2.515,75.4094,-0.054401
2.547,75.4094,-0.054401
2.578,75.4094,-0.054401
2.610,75.4094,-0.054401
2.640,75.4094,-0.053583
2.671,75.4094,-0.053583
2.702,75.4094,-0.053583
2.733,75.4094,-0.053583
2.764,75.4094,-0.053583
2.795,75.4094,-0.053583
2.826,75.4094,-0.053583
2.857,75.4094,-0.052821
2.887,75.4094,-0.052821
2.918,75.4094,-0.052821
2.948,75.4094,-0.052821
2.983,75.4094,-0.052821
3.011,75.4094,-0.052821
3.041,75.4094,-0.052821
3.071,75.4094,-0.052821
3.102,75.4094,-0.052821
3.133,75.4094,-0.052086
3.164,75.4094,-0.052086
3.194,75.4094,-0.052086
3.225,75.4094,-0.052086
3.256,75.4094,-0.052086
3.289,75.4094,-0.052086
3.318,75.4094,-0.052086
3.349,75.4094,-0.052086
3.380,75.4094,-0.051418
3.411,75.4094,-0.051418
3.443,75.4094,-0.051418
3.473,75.4094,-0.051418
3.504,75.4094,-0.051418
3.536,75.4094,-0.051418
3.566,75.4094,-0.051418
3.597,75.4094,-0.051418
3.629,75.4094,-0.051418
3.660,75.4094,-0.050750
3.691,75.4094,-0.050750
3.724,75.4094,-0.050750
3.753,75.4094,-0.050750
3.785,75.4094,-0.050750
3.814,75.4094,-0.050750
3.846,75.4094,-0.050750
3.878,75.4094,-0.050157
3.909,75.4094,-0.050157
3.940,75.4094,-0.050157
3.972,75.4094,-0.050157
4.003,75.4094,-0.050157
4.034,75.4094,-0.050157
4.065,75.4094,-0.050157
4.095,75.4094,-0.050157
4.126,75.4089,-0.050157
4.157,75.4077,-0.049659
4.188,75.4058,-0.049659
4.219,75.4031,-0.049659
4.251,75.3997,-0.049659
4.282,75.3955,-0.049659
4.314,75.3905,-0.049659
4.345,75.3849,-0.049659
4.378,75.3783,-0.049659
4.407,75.3714,-0.047984
4.439,75.3636,-0.047984
4.470,75.3549,-0.047984
4.501,75.3459,-0.047984
4.532,75.3359,-0.047984
4.563,75.3249,-0.047984
4.594,75.3136,-0.047984
4.624,75.3018,-0.037209
4.655,75.2892,-0.037209
4.685,75.2760,-0.037209
4.716,75.2613,-0.037209
4.746,75.2466,-0.037209
4.777,75.2309,-0.037209
4.808,75.2148,-0.037209
4.843,75.1950,-0.037209
4.870,75.1797,-0.018397
4.901,75.1609,-0.018397
4.932,75.1417,-0.018397
4.966,75.1194,-0.018397
4.994,75.1009,-0.018397
5.025,75.0788,-0.018397
5.056,75.0569,-0.018397
5.082,75.0377,-0.018397
5.118,75.0097,-0.000028
5.149,74.9857,-0.000028
5.180,74.9601,-0.000028
5.211,74.9342,-0.000028
5.242,74.9073,-0.000028
5.274,74.8798,-0.000028
5.304,74.8524,-0.000028
5.335,74.8240,-0.000028
5.366,74.7930,-0.000028
5.398,74.7626,0.015555
5.430,74.7309,0.015555
5.460,74.7007,0.015555
5.491,74.6677,0.015555
5.523,74.6332,0.015555
5.554,74.5997,0.015555
5.585,74.5649,0.015555
5.616,74.5293,0.025879
5.647,74.4922,0.025879
5.678,74.4561,0.025879
5.709,74.4185,0.025879
5.739,74.3812,0.025879
5.771,74.3421,0.025879
5.802,74.3008,0.025879
5.832,74.2619,0.025879
5.863,74.2205,0.032503
5.894,74.1783,0.032503
5.925,74.1353,0.032503
5.957,74.0921,0.032503
5.988,74.0466,0.032503
6.019,74.0021,0.032503
6.051,73.9542,0.032503
6.081,73.9113,0.032503
6.118,73.8532,0.039138
6.144,73.8140,0.039138
6.175,73.7654,0.039138
6.205,73.7172,0.039138
6.238,73.6640,0.039138
6.268,73.6155,0.039138
6.298,73.5650,0.039138
6.330,73.5115,0.039138
6.362,73.4568,0.045019
6.393,73.4034,0.045019
6.424,73.3501,0.045019
6.455,73.2946,0.045019
6.486,73.2378,0.045019
6.519,73.1790,0.045019
6.549,73.1229,0.045019
6.579,73.0665,0.045019
6.610,73.0074,0.048172
6.641,72.9480,0.048172
6.671,72.8897,0.048172
6.702,72.8294,0.048172
6.733,72.7701,0.048172
6.764,72.7121,0.048172
6.795,72.6524,0.048172
6.827,72.5949,0.048172
6.857,72.5371,0.048172
6.889,72.4815,0.030847
6.919,72.4287,0.030847
6.950,72.3725,0.030847
6.981,72.3192,0.030847
7.013,72.2646,0.030847
7.044,72.2122,0.030847
7.075,72.1606,0.030847
7.106,72.1102,0.030847
7.136,72.0600,0.030847
7.168,72.0105,0.010549
7.199,71.9617,0.010549
7.230,71.9142,0.010549
7.261,71.8667,0.010549
7.292,71.8209,0.010549
7.324,71.7731,0.010549
7.354,71.7295,0.010549
7.381,71.6906,0.010549
7.416,71.6420,0.008196
7.448,71.5981,0.008196
7.479,71.5559,0.008196
7.511,71.5130,0.008196
7.541,71.4730,0.008196
7.572,71.4328,0.008196
7.603,71.3942,0.008196
7.634,71.3558,0.008196
7.665,71.3183,0.007773
7.696,71.2811,0.007773
7.727,71.2458,0.007773
7.758,71.2093,0.007773
7.790,71.1737,0.007773
7.821,71.1395,0.007773
7.851,71.1071,0.007773
7.883,71.0729,0.007773
7.915,71.0412,0.007660
7.946,71.0096,0.007660
7.978,70.9787,0.007660
8.008,70.9492,0.007660
8.038,70.9213,0.007660
8.070,70.8928,0.007660
8.101,70.8648,0.007660
8.131,70.8392,0.007557
8.162,70.8125,0.007557
8.193,70.7882,0.007557
8.223,70.7637,0.007557
8.254,70.7405,0.007557
8.287,70.7156,0.007557
8.316,70.6946,0.007557
8.348,70.6719,0.007557
8.377,70.6523,0.007425
8.409,70.6317,0.007425
8.438,70.6127,0.007425
8.468,70.5946,0.007425
8.501,70.5759,0.007425
8.532,70.5582,0.007425
8.561,70.5425,0.007425
8.592,70.5265,0.007425
8.622,70.5118,0.007378
8.654,70.4968,0.007378
8.685,70.4831,0.007378
8.716,70.4700,0.007378
8.747,70.4580,0.007378
8.779,70.4457,0.007378
8.809,70.4351,0.007378
8.840,70.4248,0.007378
8.872,70.4155,0.007331
8.903,70.4066,0.007331
8.933,70.3988,0.007331
8.964,70.3917,0.007331
8.994,70.3855,0.007331
9.027,70.3795,0.007331
9.058,70.3742,0.007331
9.092,70.3697,0.007331
9.122,70.3662,0.007331
9.154,70.3635,0.007199
9.185,70.3613,0.007199
9.216,70.3600,0.007199
9.247,70.3594,0.007199
9.280,70.3594,0.007199
9.309,70.3594,0.007199
9.339,70.3594,0.007199
9.370,70.3594,0.007199
9.401,70.3595,0.007161
9.431,70.3604,0.007161
9.461,70.3618,0.007161
9.493,70.3641,0.007161
9.524,70.3672,0.007161
9.554,70.3707,0.007161
9.586,70.3752,0.007161
9.616,70.3802,0.007095
9.647,70.3860,0.007095
9.679,70.3930,0.007095
9.709,70.3999,0.007095
9.740,70.4082,0.007095
9.771,70.4169,0.007095
9.802,70.4265,0.007095
9.833,70.4366,0.007095
9.864,70.4475,0.007095
9.895,70.4592,0.006945
9.926,70.4717,0.006945
9.958,70.4851,0.006945
9.990,70.4995,0.006945
10.020,70.5139,0.006945
10.052,70.5296,0.006945
10.082,70.5458,0.006945
10.114,70.5630,0.006945
10.145,70.5800,0.006954
10.177,70.5990,0.006954
10.208,70.6180,0.006954
10.239,70.6382,0.006954
10.271,70.6589,0.006954
10.301,70.6793,0.006954
10.331,70.7007,0.006954
10.361,70.7231,0.006954
10.392,70.7464,0.006935
10.428,70.7740,0.006935
10.454,70.7953,0.006935
10.485,70.8206,0.006935
10.516,70.8464,0.006935
10.546,70.8724,0.006935
10.577,70.9007,0.006935
10.609,70.9300,0.006710
10.640,70.9590,0.006710
10.672,70.9900,0.006710
10.702,71.0193,0.006710
10.734,71.0518,0.006710
10.764,71.0829,0.006710
10.796,71.1167,0.006710
10.826,71.1495,0.006710
10.858,71.1849,0.006503
10.888,71.2201,0.006503
10.920,71.2561,0.006503
10.951,71.2924,0.006503
10.981,71.3290,0.006503
11.013,71.3678,0.006503
11.044,71.4061,0.006503
11.075,71.4458,0.006503
11.106,71.4855,0.006352
11.138,71.5280,0.006352
11.169,71.5696,0.006352
11.200,71.6127,0.006352
11.231,71.6542,0.006352
11.263,71.6988,0.006352
11.294,71.7442,0.006352
11.327,71.7934,0.006352
11.357,71.8364,0.006352
11.387,71.8818,0.006060
11.418,71.9290,0.006060
11.448,71.9771,0.006060
11.479,72.0257,0.006060
11.509,72.0729,0.006060
11.540,72.1242,0.006060
11.571,72.1751,0.006060
11.602,72.2265,0.005656
11.634,72.2799,0.005656
11.666,72.3351,0.005656
11.696,72.3875,0.005656
11.728,72.4435,0.005656
11.759,72.5000,0.005656
11.790,72.5552,0.005656
11.822,72.6132,0.005656
11.852,72.6695,0.005100
11.883,72.7288,0.005100
11.914,72.7875,0.005100
11.946,72.8479,0.005100
11.976,72.9069,0.005100
12.006,72.9652,0.005100
12.037,73.0239,0.005100
12.068,73.0816,0.005100
12.100,73.1398,0.005100
12.131,73.1980,0.004489
12.162,73.2541,0.004489
12.193,73.3080,0.004489
12.224,73.3631,0.004489
12.256,73.4170,0.004489
12.286,73.4696,0.004489
12.319,73.5228,0.004489
12.349,73.5738,0.004489
12.380,73.6233,0.003623
12.411,73.6745,0.003623
12.442,73.7228,0.003623
12.473,73.7724,0.003623
12.503,73.8175,0.003623
12.534,73.8648,0.003623
12.565,73.9103,0.003623
12.596,73.9564,0.003623
12.627,74.0026,0.002202
12.659,74.0473,0.002202
12.690,74.0900,0.002202
12.720,74.1313,0.002202
12.751,74.1727,0.002202
12.783,74.2155,0.002202
12.813,74.2542,0.002202
12.843,74.2944,0.002202
12.875,74.3328,-0.000546
12.905,74.3703,-0.000546
12.937,74.4089,-0.000546
12.967,74.4462,-0.000546
12.998,74.4819,-0.000546
13.031,74.5180,-0.000546
13.061,74.5528,-0.000546
13.094,74.5888,-0.000546
13.124,74.6209,-0.006380
13.155,74.6528,-0.006380
13.186,74.6841,-0.006380
13.216,74.7148,-0.006380
13.247,74.7448,-0.006380
13.278,74.7744,-0.006380
13.309,74.8029,-0.006380
13.340,74.8318,-0.006380
13.372,74.8593,-0.017362
13.404,74.8868,-0.017362
13.434,74.9119,-0.017362
13.465,74.9372,-0.017362
13.496,74.9613,-0.017362
13.527,74.9849,-0.017362
13.558,75.0080,-0.017362
13.589,75.0308,-0.017362
13.621,75.0525,-0.033539
13.652,75.0735,-0.033539
13.683,75.0936,-0.033539
13.714,75.1126,-0.033539
13.745,75.1312,-0.033539
13.777,75.1495,-0.033539
13.807,75.1661,-0.033539
13.838,75.1826,-0.033539
13.869,75.1983,-0.051795
13.900,75.2133,-0.051795
13.930,75.2272,-0.051795
13.962,75.2408,-0.051795
13.993,75.2535,-0.051795
14.024,75.2656,-0.051795
14.054,75.2769,-0.051795
14.086,75.2876,-0.051795
14.115,75.2970,-0.068047
14.148,75.3067,-0.068047
14.177,75.3147,-0.068047
14.208,75.3224,-0.068047
14.239,75.3291,-0.068047
14.270,75.3354,-0.068047
14.301,75.3409,-0.068047
14.331,75.3457,-0.068047
14.362,75.3498,-0.078737
14.393,75.3532,-0.078737
14.424,75.3559,-0.078737
14.455,75.3578,-0.078737
14.486,75.3589,-0.078737
14.517,75.3594,-0.078737
14.548,75.3594,-0.078737
14.580,75.3594,-0.078737
14.610,75.3594,-0.080515
14.642,75.3594,-0.080515
14.672,75.3594,-0.080515
14.703,75.3594,-0.080515
14.734,75.3594,-0.080515
14.766,75.3594,-0.080515
14.796,75.3594,-0.080515
14.827,75.3594,-0.080515
14.858,75.3594,-0.074878
14.889,75.3594,-0.074878
14.920,75.3594,-0.074878
14.951,75.3594,-0.074878
14.983,75.3594,-0.074878
15.014,75.3594,-0.074878
15.044,75.3594,-0.074878
15.076,75.3594,-0.074878
15.108,75.3594,-0.074878
15.139,75.3594,-0.068884
15.170,75.3594,-0.068884
15.201,75.3594,-0.068884
15.231,75.3594,-0.068884
15.263,75.3594,-0.068884
15.294,75.3594,-0.068884
15.325,75.3594,-0.068884
15.356,75.3594,-0.068884
15.388,75.3594,-0.068884
15.418,75.3594,-0.065365
15.450,75.3594,-0.065365
15.480,75.3594,-0.065365
15.511,75.3594,-0.065365
15.542,75.3594,-0.065365
15.574,75.3594,-0.065365
15.604,75.3594,-0.065365
15.637,75.3594,-0.062861
15.668,75.3594,-0.062861
15.699,75.3594,-0.062861
15.730,75.3594,-0.062861
15.762,75.3594,-0.062861
15.793,75.3594,-0.062861
15.823,75.3594,-0.062861
15.855,75.3594,-0.062861
15.886,75.3594,-0.062861
15.916,75.3594,-0.060791
15.947,75.3594,-0.060791
15.978,75.3594,-0.060791
16.009,75.3594,-0.060791
16.040,75.3594,-0.060791
16.070,75.3594,-0.060791
16.101,75.3594,-0.060791
16.133,75.3594,-0.060791
16.164,75.3594,-0.059163
16.195,75.3594,-0.059163
16.226,75.3594,-0.059163
16.258,75.3594,-0.059163
16.288,75.3594,-0.059163
16.320,75.3594,-0.059163
16.351,75.3594,-0.059163
16.381,75.3594,-0.059163
16.412,75.3594,-0.057780
16.444,75.3594,-0.057780
16.475,75.3594,-0.057780
16.507,75.3594,-0.057780
16.536,75.3594,-0.057780
16.567,75.3594,-0.057780
16.598,75.3594,-0.057780
16.629,75.3594,-0.057780
16.660,75.3594,-0.056538
16.688,75.3594,-0.056538
16.723,75.3594,-0.056538
16.753,75.3594,-0.056538
16.787,75.3594,-0.056538
16.816,75.3594,-0.056538
16.851,75.3594,-0.056538
16.878,75.3594,-0.056538
16.910,75.3594,-0.055484
16.941,75.3594,-0.055484
16.975,75.3594,-0.055484
17.003,75.3594,-0.055484
17.034,75.3594,-0.055484
17.066,75.3594,-0.055484
17.096,75.3594,-0.055484
17.127,75.3594,-0.055484
17.158,75.3594,-0.054571
17.189,75.3594,-0.054571
17.221,75.3594,-0.054571
17.251,75.3594,-0.054571
17.282,75.3594,-0.054571
17.313,75.3594,-0.054571
17.345,75.3594,-0.054571
17.376,75.3594,-0.053780
17.407,75.3594,-0.053780
17.438,75.3594,-0.053780
17.469,75.3594,-0.053780
17.500,75.3594,-0.053780
17.533,75.3594,-0.053780
17.563,75.3594,-0.053780
17.597,75.3594,-0.053780
17.625,75.3594,-0.053780
17.656,75.3594,-0.052999
17.688,75.3594,-0.052999
17.718,75.3594,-0.052999
17.749,75.3594,-0.052999
17.780,75.3594,-0.052999
17.811,75.3594,-0.052999
17.842,75.3594,-0.052999
17.873,75.3594,-0.052999
17.904,75.3594,-0.052275
17.935,75.3594,-0.052275
17.966,75.3594,-0.052275
17.996,75.3594,-0.052275
18.028,75.3594,-0.052275
18.058,75.3594,-0.052275
18.089,75.3594,-0.052275
18.120,75.3594,-0.052275
18.150,75.3594,-0.051663
18.181,75.3594,-0.051663
18.212,75.3594,-0.051663
18.244,75.3594,-0.051663
18.274,75.3594,-0.051663
18.306,75.3594,-0.051663
18.336,75.3594,-0.051663
18.367,75.3594,-0.051051
18.399,75.3594,-0.051051
18.429,75.3594,-0.051051
18.461,75.3594,-0.051051
18.492,75.3594,-0.051051
18.525,75.3594,-0.051051
18.553,75.3594,-0.051051
18.585,75.3594,-0.051051
18.616,75.3594,-0.050421
18.646,75.3594,-0.050421
18.677,75.3594,-0.050421
18.708,75.3594,-0.050421
18.739,75.3594,-0.050421
18.771,75.3594,-0.050421
18.801,75.3594,-0.050421
18.835,75.3594,-0.050421
18.862,75.3594,-0.050421
18.893,75.3592,-0.049903
18.924,75.3585,-0.049903
18.955,75.3570,-0.049903
18.986,75.3548,-0.049903
19.017,75.3518,-0.049903
19.048,75.3482,-0.049903
19.078,75.3440,-0.049903
19.109,75.3389,-0.049038
19.139,75.3331,-0.049038
19.171,75.3263,-0.049038
19.202,75.3189,-0.049038
19.233,75.3110,-0.049038
19.265,75.3021,-0.049038
19.296,75.2926,-0.049038
19.326,75.2825,-0.049038
19.357,75.2718,-0.049038
19.388,75.2602,-0.039467
19.419,75.2480,-0.039467
19.450,75.2344,-0.039467
19.481,75.2207,-0.039467
19.512,75.2060,-0.039467
19.543,75.1911,-0.039467
19.576,75.1737,-0.039467
19.605,75.1580,-0.021060
19.637,75.1400,-0.021060
19.667,75.1221,-0.021060
19.699,75.1028,-0.021060
19.729,75.0840,-0.021060
19.760,75.0632,-0.021060
19.792,75.0416,-0.021060
19.823,75.0193,-0.021060
19.854,74.9966,-0.002597
19.885,74.9738,-0.002597
19.915,74.9505,-0.002597
19.947,74.9252,-0.002597
19.977,74.9005,-0.002597
20.008,74.8746,-0.002597
20.039,74.8474,-0.002597
20.070,74.8199,-0.002597
20.101,74.7916,-0.002597
20.132,74.7619,0.013447
20.163,74.7319,0.013447
20.194,74.7007,0.013447
20.226,74.6689,0.013447
20.257,74.6374,0.013447
20.289,74.6039,0.013447
20.320,74.5703,0.013447
20.350,74.5362,0.013447
20.381,74.5020,0.024420
20.412,74.4662,0.024420
20.444,74.4288,0.024420
20.474,74.3936,0.024420
20.504,74.3561,0.024420
20.534,74.3186,0.024420
20.565,74.2792,0.024420
20.596,74.2382,0.024420
20.628,74.1969,0.030791
20.659,74.1555,0.030791
20.692,74.1109,0.030791
20.721,74.0719,0.030791
20.752,74.0279,0.030791
20.783,73.9833,0.030791
20.813,73.9392,0.030791
20.844,73.8920,0.036296
20.875,73.8469,0.036296
20.906,73.7989,0.036296
20.937,73.7518,0.036296
20.968,73.7022,0.036296
20.999,73.6532,0.036296
21.030,73.6028,0.036296
21.061,73.5531,0.036296
21.092,73.5009,0.036296
21.123,73.4474,0.041707
21.154,73.3956,0.041707
21.185,73.3418,0.041707
21.216,73.2864,0.041707
21.247,73.2306,0.041707
21.278,73.1752,0.041707
21.309,73.1198,0.041707
21.340,73.0617,0.041707
21.372,73.0022,0.045527
21.402,72.9456,0.045527
21.433,72.8856,0.045527
21.463,72.8252,0.045527
21.496,72.7624,0.045527
21.525,72.7069,0.045527
21.557,72.6450,0.045527
21.588,72.5878,0.045527
21.620,72.5287,0.030301
21.650,72.4750,0.030301
21.682,72.4157,0.030301
21.713,72.3610,0.030301
21.748,72.2990,0.030301
21.774,72.2556,0.030301
21.805,72.2031,0.030301
21.836,72.1505,0.030301
21.868,72.0983,0.030301
21.898,72.0479,0.011067
21.929,71.9983,0.011067
21.960,71.9501,0.011067
21.991,71.9011,0.011067
22.022,71.8535,0.011067
22.055,71.8032,0.011067
22.084,71.7597,0.011067
22.110,71.7214,0.008187
22.144,71.6715,0.008187
22.175,71.6276,0.008187
22.207,71.5834,0.008187
22.238,71.5402,0.008187
22.270,71.4978,0.008187
22.301,71.4562,0.008187
22.332,71.4158,0.008187
22.364,71.3744,0.008187
22.394,71.3375,0.007764
22.424,71.2986,0.007764
22.456,71.2610,0.007764
22.487,71.2234,0.007764
22.518,71.1887,0.007764
22.549,71.1530,0.007764
22.579,71.1198,0.007764
22.609,71.0860,0.007764
22.640,71.0525,0.007764
22.672,71.0197,0.007679
22.701,70.9898,0.007679
22.732,70.9581,0.007679
22.763,70.9278,0.007679
22.795,70.8979,0.007679
22.825,70.8690,0.007679
22.856,70.8417,0.007679
22.887,70.8143,0.007594
22.918,70.7875,0.007594
22.948,70.7619,0.007594
22.979,70.7360,0.007594
23.010,70.7125,0.007594
23.041,70.6885,0.007594
23.071,70.6661,0.007594
23.104,70.6423,0.007594
23.133,70.6218,0.007594
23.166,70.6000,0.007453
23.196,70.5801,0.007453
23.228,70.5603,0.007453
23.259,70.5411,0.007453
23.289,70.5239,0.007453
23.321,70.5061,0.007453
23.351,70.4901,0.007453
23.383,70.4738,0.007387
23.414,70.4583,0.007387
23.444,70.4444,0.007387
23.477,70.4299,0.007387
23.508,70.4172,0.007387
23.538,70.4054,0.007387
23.569,70.3937,0.007387
23.600,70.3833,0.007387
23.632,70.3730,0.007387
23.662,70.3641,0.007331
23.693,70.3554,0.007331
23.724,70.3476,0.007331
23.755,70.3404,0.007331
23.786,70.3339,0.007331
23.817,70.3286,0.007331
23.849,70.3235,0.007331
23.880,70.3193,0.007265
23.911,70.3158,0.007265
23.943,70.3131,0.007265
23.974,70.3111,0.007265
24.007,70.3099,0.007265
24.036,70.3094,0.007265
24.066,70.3094,0.007265
24.098,70.3094,0.007265
24.127,70.3094,0.007218
24.159,70.3094,0.007218
24.190,70.3094,0.007218
24.220,70.3098,0.007218
24.251,70.3109,0.007218
24.283,70.3127,0.007218
24.313,70.3152,0.007218
24.344,70.3186,0.007218
24.375,70.3225,0.007237
24.406,70.3271,0.007237
24.437,70.3326,0.007237
24.468,70.3388,0.007237
24.499,70.3457,0.007237
24.530,70.3535,0.007237
24.561,70.3618,0.007237
24.593,70.3711,0.007237
24.623,70.3808,0.007190
24.654,70.3914,0.007190
24.685,70.4028,0.007190
24.715,70.4142,0.007190
24.746,70.4272,0.007190
24.778,70.4405,0.007190
24.808,70.4549,0.007190
24.839,70.4694,0.007190
24.869,70.4844,0.006992
24.901,70.5016,0.006992
24.931,70.5177,0.006992
24.962,70.5354,0.006992
24.993,70.5540,0.006992
25.023,70.5733,0.006992
25.054,70.5928,0.006992
25.085,70.6139,0.006992
25.117,70.6352,0.006888
25.147,70.6571,0.006888
25.178,70.6796,0.006888
25.210,70.7038,0.006888
25.241,70.7285,0.006888
25.271,70.7529,0.006888
25.303,70.7793,0.006888
25.334,70.8061,0.006888
25.365,70.8325,0.006888
25.395,70.8602,0.006766
25.426,70.8892,0.006766
25.457,70.9186,0.006766
25.489,70.9487,0.006766
25.521,70.9806,0.006766
25.551,71.0115,0.006766
25.582,71.0441,0.006766
25.614,71.0776,0.006568
25.645,71.1116,0.006568
25.676,71.1462,0.006568
25.707,71.1818,0.006568
25.738,71.2176,0.006568
25.769,71.2552,0.006568
25.800,71.2921,0.006568
25.831,71.3298,0.006568
25.862,71.3684,0.006390
25.893,71.4087,0.006390
25.924,71.4484,0.006390
25.958,71.4939,0.006390
25.986,71.5316,0.006390
26.017,71.5737,0.006390
26.048,71.6171,0.006390
26.078,71.6599,0.006390
26.109,71.7045,0.006117
26.140,71.7503,0.006117
26.171,71.7964,0.006117
26.202,71.8432,0.006117
26.233,71.8902,0.006117
26.263,71.9391,0.006117
26.295,71.9880,0.006117
26.326,72.0390,0.006117
26.357,72.0891,0.005722
26.388,72.1392,0.005722
26.419,72.1935,0.005722
26.450,72.2454,0.005722
26.480,72.2966,0.005722
26.512,72.3519,0.005722
26.542,72.4055,0.005722
26.573,72.4601,0.005722
26.604,72.5168,0.005251
26.636,72.5747,0.005251
26.665,72.6302,0.005251
26.696,72.6879,0.005251
26.726,72.7463,0.005251
26.757,72.8071,0.005251
26.789,72.8670,0.005251
26.820,72.9274,0.005251
26.851,72.9844,0.005251
26.882,73.0434,0.004602
26.914,73.1021,0.004602
26.943,73.1549,0.004602
26.975,73.2115,0.004602
27.006,73.2672,0.004602
27.037,73.3222,0.004602
27.068,73.3740,0.004602
27.099,73.4277,0.004602
27.129,73.4781,0.003755
27.161,73.5294,0.003755
27.190,73.5785,0.003755
27.220,73.6263,0.003755
27.252,73.6765,0.003755
27.282,73.7236,0.003755
27.314,73.7715,0.003755
27.344,73.8191,0.003755
27.375,73.8646,0.003755
27.407,73.9107,0.002503
27.436,73.9538,0.002503
27.467,73.9980,0.002503
27.498,74.0405,0.002503
27.529,74.0835,0.002503
27.559,74.1237,0.002503
27.591,74.1668,0.002503
27.622,74.2063,0.000235
27.653,74.2459,0.000235
27.683,74.2838,0.000235
27.714,74.3224,0.000235
27.746,74.3611,0.000235
27.778,74.3983,0.000235
27.807,74.4328,0.000235
27.839,74.4688,0.000235
27.870,74.5032,-0.004555
27.900,74.5365,-0.004555
27.931,74.5698,-0.004555
27.963,74.6026,-0.004555
27.994,74.6347,-0.004555
28.025,74.6665,-0.004555
28.056,74.6961,-0.004555
28.086,74.7249,-0.004555
28.117,74.7535,-0.014210
28.149,74.7823,-0.014210
28.179,74.8087,-0.014210
28.211,74.8364,-0.014210
28.241,74.8612,-0.014210
28.272,74.8868,-0.014210
28.303,74.9114,-0.014210
28.334,74.9347,-0.014210
28.365,74.9583,-0.029464
28.396,74.9801,-0.029464
28.427,75.0016,-0.029464
28.457,75.0219,-0.029464
28.488,75.0421,-0.029464
28.518,75.0606,-0.029464
28.549,75.0791,-0.029464
28.580,75.0968,-0.029464
28.612,75.1144,-0.047664
28.643,75.1312,-0.047664
28.672,75.1463,-0.047664
28.704,75.1614,-0.047664
28.736,75.1767,-0.047664
28.768,75.1902,-0.047664
28.799,75.2030,-0.047664
28.830,75.2151,-0.047664
28.860,75.2264,-0.047664
28.891,75.2370,-0.047664
28.922,75.2466,-0.064715
28.954,75.2561,-0.064715
28.984,75.2644,-0.064715
29.015,75.2722,-0.064715
29.046,75.2790,-0.064715
29.078,75.2856,-0.064715
29.109,75.2910,-0.064715
29.140,75.2959,-0.076968
29.171,75.3000,-0.076968
29.196,75.3027,-0.076968
29.234,75.3060,-0.076968
29.264,75.3078,-0.076968
29.296,75.3090,-0.076968
29.326,75.3094,-0.076968
29.357,75.3094,-0.076968
29.388,75.3094,-0.076968
29.418,75.3094,-0.081033
29.449,75.3094,-0.081033
29.479,75.3094,-0.081033
29.510,75.3094,-0.081033
29.541,75.3094,-0.081033
29.572,75.3094,-0.081033
29.603,75.3094,-0.081033
29.634,75.3094,-0.081033
29.665,75.3094,-0.076431
29.696,75.3094,-0.076431
29.727,75.3094,-0.076431
29.759,75.3094,-0.076431
29.793,75.3094,-0.076431
29.820,75.3094,-0.076431
29.852,75.3094,-0.076431
29.882,75.3094,-0.069938
29.914,75.3094,-0.069938
29.945,75.3094,-0.069938
29.983,75.3094,-0.069938
30.023,75.3094,-0.069938
30.055,75.3094,-0.069938
30.087,75.3094,-0.069938
30.118,75.3094,-0.065967
30.150,75.3094,-0.065967
30.181,75.3094,-0.065967
30.213,75.3094,-0.065967
30.243,75.3094,-0.065967
30.274,75.3094,-0.065967
30.305,75.3094,-0.065967
30.336,75.3094,-0.065967
30.366,75.3094,-0.063153
30.398,75.3094,-0.063153
30.429,75.3094,-0.063153
30.460,75.3094,-0.063153
30.492,75.3094,-0.063153
30.524,75.3094,-0.063153
30.556,75.3094,-0.063153
30.585,75.3094,-0.063153
30.616,75.3094,-0.061026
30.648,75.3094,-0.061026
30.679,75.3094,-0.061026
30.710,75.3094,-0.061026
30.742,75.3094,-0.061026
30.772,75.3094,-0.061026
30.803,75.3094,-0.061026
30.834,75.3094,-0.061026
30.866,75.3094,-0.061026
30.896,75.3094,-0.059323
30.927,75.3094,-0.059323
30.958,75.3094,-0.059323
30.988,75.3094,-0.059323
31.020,75.3094,-0.059323
31.051,75.3094,-0.059323
31.082,75.3094,-0.059323
31.113,75.3094,-0.057902
31.145,75.3094,-0.057902
31.176,75.3094,-0.057902
31.208,75.3094,-0.057902
31.240,75.3094,-0.057902
31.273,75.3094,-0.057902
31.302,75.3094,-0.057902
31.332,75.3094,-0.057902
31.364,75.3094,-0.057902
31.395,75.3094,-0.056688
31.427,75.3094,-0.056688
31.460,75.3094,-0.056688
31.487,75.3094,-0.056688
31.518,75.3094,-0.056688
31.549,75.3094,-0.056688
31.581,75.3094,-0.056688
31.613,75.3094,-0.055615
31.644,75.3094,-0.055615
31.675,75.3094,-0.055615
31.705,75.3094,-0.055615
31.737,75.3094,-0.055615
31.768,75.3094,-0.055615
31.799,75.3094,-0.055615
31.830,75.3094,-0.055615
31.862,75.3094,-0.055615
31.893,75.3094,-0.054637
31.924,75.3094,-0.054637
31.955,75.3094,-0.054637
31.985,75.3094,-0.054637
32.016,75.3094,-0.054637
32.048,75.3094,-0.054637
32.079,75.3094,-0.054637
32.110,75.3094,-0.053771
32.142,75.3094,-0.053771
32.173,75.3094,-0.053771
32.204,75.3094,-0.053771
32.235,75.3094,-0.053771
32.266,75.3094,-0.053771
32.297,75.3094,-0.053771
32.328,75.3094,-0.053771
32.359,75.3094,-0.053009
32.390,75.3094,-0.053009
32.421,75.3094,-0.053009
32.452,75.3094,-0.053009
32.483,75.3094,-0.053009
32.515,75.3094,-0.053009
32.545,75.3094,-0.053009
32.576,75.3094,-0.053009
32.607,75.3094,-0.053009
32.639,75.3094,-0.052303
32.669,75.3094,-0.052303
32.701,75.3094,-0.052303
32.732,75.3094,-0.052303
32.763,75.3094,-0.052303
32.794,75.3094,-0.052303
32.826,75.3094,-0.052303
32.857,75.3094,-0.052303
32.888,75.3094,-0.051644
32.919,75.3094,-0.051644
32.951,75.3094,-0.051644
32.981,75.3094,-0.051644
33.013,75.3094,-0.051644
33.043,75.3094,-0.051644
33.075,75.3094,-0.051644
33.106,75.3094,-0.051051
33.136,75.3094,-0.051051
33.170,75.3094,-0.051051
33.198,75.3094,-0.051051
33.229,75.3094,-0.051051
33.260,75.3094,-0.051051
33.290,75.3094,-0.051051
33.322,75.3094,-0.051051
33.355,75.3094,-0.051051
33.383,75.3094,-0.051051
33.413,75.3094,-0.050430
33.445,75.3094,-0.050430
33.476,75.3094,-0.050430
33.507,75.3094,-0.050430
33.538,75.3094,-0.050430
33.568,75.3088,-0.050430
33.600,75.3074,-0.050430
33.632,75.3052,-0.049837
33.663,75.3024,-0.049837
33.694,75.2987,-0.049837
33.725,75.2945,-0.049837
33.756,75.2894,-0.049837
33.787,75.2838,-0.049837
33.818,75.2773,-0.049837
33.849,75.2702,-0.049837
33.880,75.2620,-0.045998
33.912,75.2533,-0.045998
33.943,75.2438,-0.045998
33.974,75.2337,-0.045998
34.004,75.2232,-0.045998
34.035,75.2117,-0.045998
34.067,75.1988,-0.045998
34.098,75.1860,-0.045998
34.129,75.1718,-0.032767
34.160,75.1578,-0.032767
34.191,75.1422,-0.032767
34.222,75.1266,-0.032767
34.253,75.1096,-0.032767
34.285,75.0917,-0.032767
34.315,75.0739,-0.032767
34.346,75.0553,-0.032767
34.377,75.0355,-0.013749
34.408,75.0153,-0.013749
34.438,74.9950,-0.013749
34.469,74.9735,-0.013749
34.500,74.9508,-0.013749
34.530,74.9280,-0.013749
34.561,74.9046,-0.013749
34.592,74.8805,-0.013749
34.623,74.8545,0.004112
34.653,74.8288,0.004112
34.685,74.8024,0.004112
34.715,74.7750,0.004112
34.746,74.7472,0.004112
34.777,74.7172,0.004112
34.809,74.6875,0.004112
34.841,74.6559,0.004112
34.870,74.6265,0.018491
34.902,74.5929,0.018491
34.932,74.5619,0.018491
34.963,74.5283,0.018491
34.994,74.4952,0.018491
35.026,74.4583,0.018491
35.057,74.4240,0.018491
35.089,74.3858,0.018491
35.120,74.3488,0.027554
35.151,74.3096,0.027554
35.183,74.2721,0.027554
35.215,74.2295,0.027554
35.245,74.1924,0.027554
35.276,74.1508,0.027554
35.307,74.1102,0.027554
35.338,74.0673,0.027554
35.369,74.0244,0.033821
35.406,73.9724,0.033821
35.446,73.9152,0.033821
35.477,73.8701,0.033821
35.508,73.8240,0.033821
35.538,73.7789,0.033821
35.570,73.7304,0.033821
35.601,73.6808,0.033821
35.631,73.6332,0.040098
35.662,73.5843,0.040098
35.693,73.5337,0.040098
35.725,73.4813,0.040098
35.755,73.4302,0.040098
35.787,73.3765,0.040098
35.818,73.3222,0.040098
35.849,73.2688,0.044897
35.882,73.2105,0.044897
35.911,73.1586,0.044897
35.944,73.0984,0.044897
35.974,73.0434,0.044897
36.005,72.9859,0.044897
36.035,72.9270,0.044897
36.067,72.8684,0.044897
36.096,72.8092,0.044897
36.128,72.7486,0.046864
36.161,72.6859,0.046864
36.189,72.6301,0.046864
36.220,72.5721,0.046864
36.251,72.5158,0.046864
36.282,72.4590,0.046864
36.313,72.4019,0.046864
36.344,72.3480,0.046864
36.374,72.2924,0.046864
36.406,72.2396,0.028523
36.436,72.1870,0.028523
36.467,72.1339,0.028523
36.498,72.0825,0.028523
36.529,72.0322,0.028523
36.561,71.9800,0.028523
36.591,71.9306,0.028523
36.622,71.8822,0.028523
36.653,71.8349,0.028523
36.684,71.7858,0.009025
36.714,71.7411,0.009025
36.747,71.6914,0.009025
36.777,71.6483,0.009025
36.808,71.6036,0.009025
36.839,71.5607,0.009025
36.870,71.5175,0.009025
36.900,71.4759,0.008046
36.931,71.4332,0.008046
36.962,71.3919,0.008046
36.994,71.3514,0.008046
37.026,71.3117,0.008046
37.056,71.2724,0.008046
37.087,71.2355,0.008046
37.118,71.1971,0.008046
37.149,71.1618,0.007745
37.180,71.1251,0.007745
37.211,71.0907,0.007745
37.242,71.0554,0.007745
37.273,71.0223,0.007745
37.304,70.9887,0.007745
37.335,70.9567,0.007745
37.367,70.9242,0.007745
37.398,70.8944,0.007604
37.428,70.8641,0.007604
37.459,70.8352,0.007604
37.492,70.8051,0.007604
37.522,70.7786,0.007604
37.555,70.7484,0.007604
37.584,70.7244,0.007604
37.614,70.7001,0.007604
37.645,70.6740,0.007538
37.676,70.6503,0.007538
37.710,70.6248,0.007538
37.739,70.6034,0.007538
37.769,70.5824,0.007538
37.800,70.5605,0.007538
37.831,70.5404,0.007538
37.862,70.5205,0.007538
37.893,70.5017,0.007462
37.923,70.4831,0.007462
37.955,70.4658,0.007462
37.984,70.4493,0.007462
38.015,70.4332,0.007462
38.047,70.4175,0.007462
38.077,70.4025,0.007462
38.108,70.3886,0.007368
38.139,70.3754,0.007368
38.169,70.3631,0.007368
38.200,70.3511,0.007368
38.233,70.3396,0.007368
38.263,70.3294,0.007368
38.294,70.3197,0.007368
38.325,70.3105,0.007368
38.355,70.3026,0.007293
38.387,70.2949,0.007293
38.417,70.2883,0.007293
38.449,70.2817,0.007293
38.478,70.2768,0.007293
38.510,70.2721,0.007293
38.542,70.2681,0.007293
38.573,70.2649,0.007293
38.604,70.2624,0.007218
38.635,70.2606,0.007218
38.666,70.2596,0.007218
38.697,70.2594,0.007218
38.730,70.2594,0.007218
38.758,70.2594,0.007218
38.789,70.2594,0.007218
38.820,70.2599,0.007218
38.851,70.2610,0.007218
38.883,70.2630,0.007208
38.914,70.2657,0.007208
38.945,70.2692,0.007208
38.977,70.2734,0.007208
39.007,70.2781,0.007208
39.038,70.2837,0.007208
39.069,70.2900,0.007208
39.100,70.2971,0.007208
39.131,70.3049,0.007105
39.163,70.3136,0.007105
39.193,70.3227,0.007105
39.224,70.3327,0.007105
39.255,70.3434,0.007105
39.286,70.3548,0.007105
39.318,70.3668,0.007105
39.349,70.3801,0.007105
39.380,70.3933,0.007105
39.411,70.4081,0.006954
39.442,70.4230,0.006954
39.474,70.4394,0.006954
39.505,70.4559,0.006954
39.537,70.4740,0.006954
39.567,70.4910,0.006954
39.598,70.5097,0.006954
39.629,70.5294,0.006917
39.660,70.5494,0.006917
39.691,70.5708,0.006917
39.722,70.5924,0.006917
39.754,70.6147,0.006917
39.785,70.6382,0.006917
39.816,70.6617,0.006917
39.847,70.6867,0.006917
39.878,70.7112,0.006917
39.908,70.7369,0.006794
39.940,70.7649,0.006794
39.970,70.7918,0.006794
40.001,70.8199,0.006794
40.032,70.8483,0.006794
40.063,70.8783,0.006794
40.094,70.9080,0.006794
40.125,70.9400,0.006681
40.156,70.9718,0.006681
40.187,71.0045,0.006681
40.218,71.0373,0.006681
40.250,71.0724,0.006681
40.281,71.1070,0.006681
40.313,71.1434,0.006681
40.343,71.1787,0.006681
40.374,71.2149,0.006681
40.404,71.2522,0.006493
40.435,71.2900,0.006493
40.466,71.3290,0.006493
40.495,71.3671,0.006493
40.526,71.4071,0.006493
40.559,71.4500,0.006493
40.589,71.4911,0.006493
40.620,71.5341,0.006258
40.650,71.5779,0.006258
40.681,71.6214,0.006258
40.712,71.6655,0.006258
40.743,71.7111,0.006258
40.777,71.7628,0.006258
40.806,71.8060,0.006258
40.837,71.8536,0.006258
40.868,71.9010,0.006258
40.900,71.9549,0.005929
40.930,72.0006,0.005929
40.963,72.0561,0.005929
40.999,72.1145,0.005929
41.039,72.1833,0.005929
41.070,72.2357,0.005929
41.104,72.2949,0.005929
41.133,72.3460,0.005477
41.164,72.4019,0.005477
41.195,72.4583,0.005477
41.226,72.5159,0.005477
41.259,72.5769,0.005477
41.290,72.6349,0.005477
41.322,72.6962,0.005477
41.352,72.7545,0.005477
41.384,72.8160,0.004856
41.414,72.8752,0.004856
41.445,72.9312,0.004856
41.476,72.9911,0.004856
41.507,73.0456,0.004856
41.539,73.1051,0.004856
41.569,73.1582,0.004856
41.600,73.2154,0.004856
41.631,73.2670,0.004141
41.662,73.3220,0.004141
41.693,73.3744,0.004141
41.725,73.4287,0.004141
41.756,73.4792,0.004141
41.788,73.5332,0.004141
41.819,73.5807,0.004141
41.850,73.6302,0.003181
41.884,73.6833,0.003181
41.911,73.7250,0.003181
41.942,73.7729,0.003181
41.973,73.8180,0.003181
42.006,73.8665,0.003181
42.035,73.9073,0.003181
42.065,73.9517,0.003181
42.096,73.9935,0.003181
42.128,74.0374,0.001355
42.158,74.0785,0.001355
42.191,74.1219,0.001355
42.223,74.1624,0.001355
42.254,74.2026,0.001355
42.284,74.2402,0.001355
42.316,74.2805,0.001355
42.347,74.3167,0.001355
42.378,74.3530,0.001355
42.408,74.3886,-0.002240
42.438,74.4231,-0.002240
42.469,74.4582,-0.002240
42.500,74.4907,-0.002240
42.535,74.5290,-0.002240
42.562,74.5558,-0.002240
42.594,74.5886,-0.002240
42.622,74.6171,-0.009890
42.656,74.6506,-0.009890
42.684,74.6769,-0.009890
42.715,74.7069,-0.009890
42.746,74.7332,-0.009890
42.777,74.7603,-0.009890
42.808,74.7872,-0.009890
42.839,74.8133,-0.009890
42.871,74.8392,-0.023178
42.908,74.8680,-0.023178
42.948,74.8986,-0.023178
42.979,74.9208,-0.023178
43.012,74.9444,-0.023178
43.041,74.9635,-0.023178
43.075,74.9858,-0.023178
43.103,75.0034,-0.023178
43.134,75.0229,-0.040738
43.166,75.0412,-0.040738
43.200,75.0607,-0.040738
43.227,75.0751,-0.040738
43.259,75.0914,-0.040738
43.290,75.1066,-0.040738
43.324,75.1229,-0.040738
43.353,75.1358,-0.040738
43.384,75.1487,-0.058787
43.415,75.1607,-0.058787
43.446,75.1725,-0.058787
43.478,75.1835,-0.058787
43.509,75.1940,-0.058787
43.541,75.2036,-0.058787
43.571,75.2122,-0.058787
43.603,75.2201,-0.058787
43.638,75.2283,-0.073288
43.665,75.2339,-0.073288
43.698,75.2398,-0.073288
43.728,75.2445,-0.073288
43.759,75.2490,-0.073288
43.791,75.2525,-0.073288
43.822,75.2553,-0.073288
43.856,75.2574,-0.073288
43.885,75.2587,-0.080882
43.917,75.2593,-0.080882
43.948,75.2593,-0.080882
43.980,75.2593,-0.080882
44.011,75.2593,-0.080882
44.042,75.2593,-0.080882
44.073,75.2593,-0.080882
44.103,75.2593,-0.078906
44.135,75.2593,-0.078906
44.167,75.2593,-0.078906
44.199,75.2593,-0.078906
44.229,75.2593,-0.078906
44.260,75.2593,-0.078906
44.291,75.2593,-0.078906
44.322,75.2593,-0.078906
44.355,75.2593,-0.072262
44.385,75.2593,-0.072262
44.417,75.2593,-0.072262
44.447,75.2593,-0.072262
44.478,75.2593,-0.072262
44.509,75.2593,-0.072262
44.540,75.2593,-0.072262
44.570,75.2593,-0.072262
44.601,75.2593,-0.067454
44.632,75.2593,-0.067454
44.664,75.2593,-0.067454
44.696,75.2593,-0.067454
44.726,75.2593,-0.067454
44.757,75.2593,-0.067454
44.788,75.2593,-0.067454
44.818,75.2593,-0.067454
44.850,75.2593,-0.064348
44.883,75.2593,-0.064348
44.912,75.2593,-0.064348
44.943,75.2593,-0.064348
44.974,75.2593,-0.064348
45.006,75.2593,-0.064348
45.036,75.2593,-0.064348
45.067,75.2593,-0.064348
45.100,75.2593,-0.064348
45.130,75.2593,-0.061986
45.161,75.2593,-0.061986
45.192,75.2593,-0.061986
45.223,75.2593,-0.061986
45.254,75.2593,-0.061986
45.285,75.2593,-0.061986
45.317,75.2593,-0.061986
45.348,75.2593,-0.060132
45.379,75.2593,-0.060132
45.410,75.2593,-0.060132
45.441,75.2593,-0.060132
45.472,75.2593,-0.060132
45.503,75.2593,-0.060132
45.534,75.2593,-0.060132
45.564,75.2593,-0.060132
45.596,75.2593,-0.060132
45.627,75.2593,-0.058617
45.659,75.2593,-0.058617
45.697,75.2593,-0.058617
45.738,75.2593,-0.058617
45.768,75.2593,-0.058617
45.799,75.2593,-0.058617
45.829,75.2593,-0.058617
45.860,75.2593,-0.057309
45.891,75.2593,-0.057309
45.922,75.2593,-0.057309
45.953,75.2593,-0.057309
45.984,75.2593,-0.057309
46.014,75.2593,-0.057309
46.045,75.2593,-0.057309
46.076,75.2593,-0.057309
46.107,75.2593,-0.057309
46.139,75.2593,-0.057309
46.168,75.2593,-0.056199
46.200,75.2593,-0.056199
46.231,75.2593,-0.056199
46.263,75.2593,-0.056199
46.293,75.2593,-0.056199
46.324,75.2593,-0.056199
46.358,75.2593,-0.056199
46.386,75.2593,-0.055201
46.418,75.2593,-0.055201
46.449,75.2593,-0.055201
46.480,75.2593,-0.055201
46.511,75.2593,-0.055201
46.542,75.2593,-0.055201
46.573,75.2593,-0.055201
46.604,75.2593,-0.055201
46.635,75.2593,-0.055201
46.666,75.2593,-0.054326
46.697,75.2593,-0.054326
46.728,75.2593,-0.054326
46.758,75.2593,-0.054326
46.789,75.2593,-0.054326
46.820,75.2593,-0.054326
46.851,75.2593,-0.054326
46.882,75.2593,-0.054326
46.913,75.2593,-0.053564
46.944,75.2593,-0.053564
46.975,75.2593,-0.053564
47.007,75.2593,-0.053564
47.038,75.2593,-0.053564
47.069,75.2593,-0.053564
47.100,75.2593,-0.053564
47.131,75.2593,-0.053564
47.162,75.2593,-0.052792
47.192,75.2593,-0.052792
47.224,75.2593,-0.052792
47.255,75.2593,-0.052792
47.286,75.2593,-0.052792
47.317,75.2593,-0.052792
47.350,75.2593,-0.052792
47.378,75.2593,-0.052792
47.409,75.2593,-0.052171
47.440,75.2593,-0.052171
47.467,75.2593,-0.052171
47.502,75.2593,-0.052171
47.534,75.2593,-0.052171
47.565,75.2593,-0.052171
47.596,75.2593,-0.052171
47.627,75.2593,-0.052171
47.657,75.2593,-0.051560
47.688,75.2593,-0.051560
47.720,75.2593,-0.051560
47.750,75.2593,-0.051560
47.781,75.2593,-0.051560
47.812,75.2593,-0.051560
47.843,75.2593,-0.051560
47.874,75.2593,-0.051560
47.905,75.2593,-0.050891
47.936,75.2593,-0.050891
47.967,75.2593,-0.050891
47.997,75.2593,-0.050891
48.029,75.2593,-0.050891
48.059,75.2593,-0.050891
48.091,75.2593,-0.050891
48.122,75.2593,-0.050891
48.153,75.2593,-0.050336
48.184,75.2593,-0.050336
48.215,75.2592,-0.050336
48.248,75.2583,-0.050336
48.278,75.2567,-0.050336
48.312,75.2542,-0.050336
48.340,75.2515,-0.050336
48.371,75.2475,-0.050336
48.404,75.2428,-0.049809
48.433,75.2380,-0.049809
48.467,75.2315,-0.049809
48.494,75.2255,-0.049809
48.525,75.2184,-0.049809
48.556,75.2099,-0.049809
48.587,75.2011,-0.049809
48.619,75.1916,-0.049809
48.650,75.1810,-0.042761
48.682,75.1697,-0.042761
48.713,75.1578,-0.042761
48.744,75.1457,-0.042761
48.774,75.1323,-0.042761
48.805,75.1188,-0.042761
48.837,75.1034,-0.042761
48.870,75.0874,-0.026509
48.900,75.0714,-0.026509
48.931,75.0540,-0.026509
48.963,75.0365,-0.026509
48.993,75.0187,-0.026509
49.024,74.9996,-0.026509
49.056,74.9790,-0.026509
49.086,74.9593,-0.026509
49.117,74.9376,-0.026509
49.149,74.9154,-0.007811
49.180,74.8927,-0.007811
49.210,74.8694,-0.007811
49.242,74.8454,-0.007811
49.272,74.8206,-0.007811
49.304,74.7942,-0.007811
49.335,74.7680,-0.007811
49.366,74.7414,0.009354
49.396,74.7135,0.009354
49.427,74.6854,0.009354
49.461,74.6531,0.009354
49.489,74.6258,0.009354
49.519,74.5963,0.009354
49.550,74.5645,0.009354
49.581,74.5326,0.009354
49.613,74.4984,0.022077
49.645,74.4642,0.022077
49.674,74.4319,0.022077
49.705,74.3965,0.022077
49.735,74.3617,0.022077
49.767,74.3246,0.022077
49.797,74.2878,0.022077
49.829,74.2502,0.022077
49.860,74.2110,0.029727
49.891,74.1704,0.029727
49.922,74.1314,0.029727
49.953,74.0905,0.029727
49.984,74.0492,0.029727
50.015,74.0065,0.029727
50.045,73.9645,0.029727
50.075,73.9223,0.029727
50.106,73.8774,0.029727
50.137,73.8319,0.035571
50.167,73.7880,0.035571
50.198,73.7415,0.035571
50.229,73.6946,0.035571
50.260,73.6464,0.035571
50.292,73.5966,0.035571
50.323,73.5458,0.035571
50.354,73.4969,0.041340
50.385,73.4444,0.041340
50.416,73.3916,0.041340
50.447,73.3404,0.041340
50.480,73.2816,0.041340
50.510,73.2319,0.041340
50.541,73.1773,0.041340
50.572,73.1216,0.041340
50.603,73.0662,0.041340
50.633,73.0102,0.041340
50.664,72.9527,0.045650
50.694,72.8965,0.045650
50.726,72.8367,0.045650
50.757,72.7763,0.045650
50.788,72.7168,0.045650
50.819,72.6555,0.045650
50.851,72.5958,0.045650
50.882,72.5352,0.040220
50.913,72.4784,0.040220
50.945,72.4199,0.040220
50.975,72.3637,0.040220
51.006,72.3091,0.040220
51.037,72.2546,0.040220
51.068,72.1990,0.040220
51.099,72.1465,0.040220
51.129,72.0937,0.021117
51.160,72.0434,0.021117
51.191,71.9914,0.021117
51.222,71.9418,0.021117
51.254,71.8893,0.021117
51.285,71.8414,0.021117
51.316,71.7923,0.021117
51.347,71.7457,0.021117
51.379,71.6960,0.008535
51.410,71.6506,0.008535
51.441,71.6043,0.008535
51.472,71.5600,0.008535
51.504,71.5138,0.008535
51.535,71.4722,0.008535
51.565,71.4304,0.008535
51.596,71.3893,0.007971
51.627,71.3481,0.007971
51.658,71.3069,0.007971
51.689,71.2682,0.007971
51.720,71.2294,0.007971
51.751,71.1906,0.007971
51.782,71.1537,0.007971
51.813,71.1162,0.007971
51.844,71.0811,0.007971
51.877,71.0431,0.007971
51.906,71.0116,0.007971
51.937,70.9777,0.007764
51.967,70.9450,0.007764
52.001,70.9093,0.007764
52.029,70.8806,0.007764
52.060,70.8501,0.007764
52.098,70.8134,0.007764
52.137,70.7771,0.007641
52.168,70.7489,0.007641
52.198,70.7210,0.007641
52.229,70.6947,0.007641
52.259,70.6692,0.007641
52.292,70.6425,0.007641
52.321,70.6188,0.007641
52.353,70.5941,0.007641
52.384,70.5711,0.007528
52.415,70.5485,0.007528
52.447,70.5258,0.007528
52.478,70.5048,0.007528
52.510,70.4838,0.007528
52.541,70.4642,0.007528
52.574,70.4442,0.007528
52.603,70.4271,0.007528
52.633,70.4103,0.007415
52.664,70.3931,0.007415
52.695,70.3776,0.007415
52.726,70.3620,0.007415
52.758,70.3473,0.007415
52.789,70.3336,0.007415
52.820,70.3202,0.007415
52.851,70.3078,0.007415
52.884,70.2957,0.007331
52.913,70.2852,0.007331
52.944,70.2752,0.007331
52.978,70.2645,0.007331
53.007,70.2567,0.007331
53.039,70.2485,0.007331
53.070,70.2413,0.007331
53.102,70.2347,0.007331
53.132,70.2291,0.007265
53.164,70.2241,0.007265
53.195,70.2197,0.007265
53.226,70.2162,0.007265
53.258,70.2134,0.007265
53.287,70.2114,0.007265
53.318,70.2100,0.007265
53.348,70.2093,0.007265
53.379,70.2093,0.007208
53.409,70.2093,0.007208
53.440,70.2093,0.007208
53.471,70.2093,0.007208
53.503,70.2094,0.007208
53.536,70.2103,0.007208
53.564,70.2117,0.007208
53.596,70.2139,0.007208
53.626,70.2167,0.007255
53.657,70.2205,0.007255
53.687,70.2247,0.007255
53.719,70.2299,0.007255
53.749,70.2355,0.007255
53.781,70.2424,0.007255
53.810,70.2491,0.007255
53.841,70.2572,0.007255
53.871,70.2657,0.007190
53.902,70.2752,0.007190
53.935,70.2857,0.007190
53.966,70.2965,0.007190
53.996,70.3078,0.007190
54.027,70.3203,0.007190
54.058,70.3336,0.007190
54.089,70.3476,0.007190
54.121,70.3618,0.007001
54.153,70.3776,0.007001
54.183,70.3936,0.007001
54.213,70.4098,0.007001
54.245,70.4275,0.007001
54.275,70.4454,0.007001
54.307,70.4648,0.007001
54.338,70.4845,0.007001
54.368,70.5037,0.006945
54.399,70.5253,0.006945
54.430,70.5469,0.006945
54.462,70.5701,0.006945
54.492,70.5928,0.006945
54.524,70.6176,0.006945
54.554,70.6414,0.006945
54.586,70.6679,0.006945
54.616,70.6934,0.006907
54.648,70.7210,0.006907
54.678,70.7477,0.006907
54.710,70.7778,0.006907
54.741,70.8060,0.006907
54.772,70.8366,0.006907
54.803,70.8664,0.006907
54.835,70.8989,0.006907
54.864,70.9290,0.006719
54.896,70.9625,0.006719
54.926,70.9954,0.006719
54.951,71.0231,0.006719
54.976,71.0504,0.006719
55.003,71.0812,0.006719
55.035,71.1176,0.006719
55.067,71.1555,0.006719
55.097,71.1918,0.006719
55.127,71.2293,0.006512
55.158,71.2687,0.006512
55.188,71.3070,0.006512
55.220,71.3477,0.006512
55.251,71.3895,0.006512
55.283,71.4324,0.006512
55.315,71.4755,0.006512
55.346,71.5202,0.006512
55.377,71.5638,0.006258
55.408,71.6090,0.006258
55.439,71.6545,0.006258
55.470,71.7001,0.006258
55.502,71.7487,0.006258
55.532,71.7944,0.006258
55.563,71.8427,0.006258
55.593,71.8909,0.006258
55.626,71.9430,0.005919
55.656,71.9925,0.005919
55.688,72.0452,0.005919
55.718,72.0972,0.005919
55.750,72.1499,0.005919
55.781,72.2037,0.005919
55.811,72.2568,0.005919
55.843,72.3140,0.005919
55.873,72.3687,0.005467
55.905,72.4244,0.005467
55.935,72.4809,0.005467
55.967,72.5418,0.005467
55.996,72.5964,0.005467
56.027,72.6555,0.005467
56.058,72.7139,0.005467
56.089,72.7740,0.005467
56.120,72.8351,0.004743
56.152,72.8943,0.004743
56.182,72.9493,0.004743
56.212,73.0050,0.004743
56.244,73.0622,0.004743
56.274,73.1180,0.004743
56.306,73.1737,0.004743
56.337,73.2278,0.004743
56.368,73.2802,0.004743
56.399,73.3327,0.003924
56.430,73.3838,0.003924
56.461,73.4361,0.003924
56.492,73.4865,0.003924
56.524,73.5370,0.003924
56.555,73.5863,0.003924
56.586,73.6348,0.003924
56.618,73.6852,0.003924
56.650,73.7318,0.002795
56.682,73.7789,0.002795
56.713,73.8243,0.002795
56.744,73.8694,0.002795
56.776,73.9141,0.002795
56.805,73.9552,0.002795
56.837,73.9982,0.002795
56.868,74.0398,0.000790
56.899,74.0817,0.000790
56.931,74.1229,0.000790
56.963,74.1630,0.000790
56.993,74.2014,0.000790
57.025,74.2391,0.000790
57.056,74.2766,0.000790
57.087,74.3137,0.000790
57.118,74.3496,0.000790
57.149,74.3850,-0.003425
57.181,74.4193,-0.003425
57.212,74.4537,-0.003425
57.243,74.4854,-0.003425
57.274,74.5177,-0.003425
57.305,74.5489,-0.003425
57.337,74.5817,-0.003425
57.367,74.6096,-0.003425
57.397,74.6387,-0.012177
57.428,74.6667,-0.012177
57.461,74.6957,-0.012177
57.492,74.7225,-0.012177
57.523,74.7487,-0.012177
57.553,74.7737,-0.012177
57.583,74.7978,-0.012177
57.614,74.8225,-0.026660
57.645,74.8452,-0.026660
57.677,74.8686,-0.026660
57.707,74.8899,-0.026660
57.738,74.9111,-0.026660
57.769,74.9315,-0.026660
57.801,74.9518,-0.026660
57.831,74.9699,-0.026660
57.862,74.9888,-0.026660
57.892,75.0060,-0.044775
57.924,75.0230,-0.044775
57.955,75.0390,-0.044775
57.985,75.0545,-0.044775
58.016,75.0690,-0.044775
58.048,75.0830,-0.044775
58.079,75.0959,-0.044775
58.110,75.1088,-0.044775
58.141,75.1204,-0.062353
58.172,75.1315,-0.062353
58.203,75.1415,-0.062353
58.234,75.1514,-0.062353
58.265,75.1599,-0.062353
58.296,75.1682,-0.062353
58.326,75.1753,-0.062353
58.357,75.1820,-0.062353
58.388,75.1878,-0.075612
58.419,75.1933,-0.075612
58.450,75.1976,-0.075612
58.482,75.2015,-0.075612
58.512,75.2043,-0.075612
58.545,75.2068,-0.075612
58.575,75.2083,-0.075612
58.606,75.2092,-0.075612
58.637,75.2093,-0.081475
58.668,75.2093,-0.081475
58.699,75.2093,-0.081475
58.727,75.2093,-0.081475
58.760,75.2093,-0.081475
58.792,75.2093,-0.081475
58.823,75.2093,-0.081475
58.854,75.2093,-0.081475
58.885,75.2093,-0.077993
58.916,75.2093,-0.077993
58.947,75.2093,-0.077993
58.978,75.2093,-0.077993
59.009,75.2093,-0.077993
59.039,75.2093,-0.077993
59.070,75.2093,-0.077993
59.101,75.2093,-0.077993
59.132,75.2093,-0.071124
59.162,75.2093,-0.071124
59.193,75.2093,-0.071124
59.225,75.2093,-0.071124
59.254,75.2093,-0.071124
59.286,75.2093,-0.071124
59.317,75.2093,-0.071124
59.348,75.2093,-0.071124
59.379,75.2093,-0.066748
59.411,75.2093,-0.066748
59.442,75.2093,-0.066748
59.473,75.2093,-0.066748
59.504,75.2093,-0.066748
59.535,75.2093,-0.066748
59.565,75.2093,-0.066748
59.595,75.2093,-0.066748
59.627,75.2093,-0.063878
59.658,75.2093,-0.063878
59.689,75.2093,-0.063878
59.720,75.2093,-0.063878
59.752,75.2093,-0.063878
59.783,75.2093,-0.063878
59.814,75.2093,-0.063878
59.845,75.2093,-0.063878
59.877,75.2093,-0.061723
59.907,75.2093,-0.061723
59.939,75.2093,-0.061723
59.970,75.2093,-0.061723
60.001,75.2093,-0.061723
60.034,75.2093,-0.061723
60.064,75.2093,-0.061723
60.094,75.2093,-0.061723
60.125,75.2093,-0.059916
60.156,75.2093,-0.059916
60.187,75.2093,-0.059916
60.219,75.2093,-0.059916
60.249,75.2093,-0.059916
60.279,75.2093,-0.059916
60.310,75.2093,-0.059916
60.342,75.2093,-0.059916
60.373,75.2093,-0.058439
60.404,75.2093,-0.058439
60.435,75.2093,-0.058439
60.466,75.2093,-0.058439
60.497,75.2093,-0.058439
60.527,75.2093,-0.058439
60.558,75.2093,-0.058439
60.590,75.2093,-0.058439
60.620,75.2093,-0.057196
60.652,75.2093,-0.057196
60.682,75.2093,-0.057196
60.713,75.2093,-0.057196
60.744,75.2093,-0.057196
60.775,75.2093,-0.057196
60.805,75.2093,-0.057196
60.836,75.2093,-0.057196
60.867,75.2093,-0.056095
60.898,75.2093,-0.056095
60.928,75.2093,-0.056095
60.960,75.2093,-0.056095
60.990,75.2093,-0.056095
61.021,75.2093,-0.056095
61.052,75.2093,-0.056095
61.083,75.2093,-0.056095
61.114,75.2093,-0.055154
61.145,75.2093,-0.055154
61.177,75.2093,-0.055154
61.207,75.2093,-0.055154
61.238,75.2093,-0.055154
61.274,75.2093,-0.055154
61.301,75.2093,-0.055154
61.332,75.2093,-0.055154
61.363,75.2093,-0.054251
61.394,75.2093,-0.054251
61.424,75.2093,-0.054251
61.455,75.2093,-0.054251
61.486,75.2093,-0.054251
61.517,75.2093,-0.054251
61.548,75.2093,-0.054251
61.579,75.2093,-0.054251
61.611,75.2093,-0.053479
61.642,75.2093,-0.053479
61.674,75.2093,-0.053479
61.704,75.2093,-0.053479
61.735,75.2093,-0.053479
61.770,75.2093,-0.053479
61.797,75.2093,-0.053479
61.828,75.2093,-0.053479
61.860,75.2093,-0.052839
61.890,75.2093,-0.052839
61.922,75.2093,-0.052839
61.952,75.2093,-0.052839
61.984,75.2093,-0.052839
62.014,75.2093,-0.052839
62.045,75.2093,-0.052839
62.076,75.2093,-0.052839
62.107,75.2093,-0.052171
62.138,75.2093,-0.052171
62.169,75.2093,-0.052171
62.200,75.2093,-0.052171
62.231,75.2093,-0.052171
62.262,75.2093,-0.052171
62.293,75.2093,-0.052171
62.325,75.2093,-0.052171
62.356,75.2093,-0.052171
62.387,75.2093,-0.051512
62.417,75.2093,-0.051512
62.448,75.2093,-0.051512
62.480,75.2093,-0.051512
62.511,75.2093,-0.051512
62.542,75.2093,-0.051512
62.573,75.2093,-0.051512
62.604,75.2093,-0.050929
62.635,75.2093,-0.050929
62.666,75.2093,-0.050929
62.697,75.2093,-0.050929
62.728,75.2093,-0.050929
62.762,75.2093,-0.050929
62.789,75.2093,-0.050929
62.820,75.2093,-0.050929
62.852,75.2093,-0.050383
62.883,75.2092,-0.050383
62.914,75.2084,-0.050383
62.946,75.2068,-0.050383
62.977,75.2047,-0.050383
63.008,75.2016,-0.050383
63.039,75.1979,-0.050383
63.071,75.1934,-0.050383
63.102,75.1883,-0.050383
63.132,75.1824,-0.049150
63.162,75.1761,-0.049150
63.194,75.1686,-0.049150
63.227,75.1597,-0.049150
63.256,75.1518,-0.049150
63.289,75.1415,-0.049150
63.317,75.1324,-0.049150
63.348,75.1216,-0.049150
63.379,75.1096,-0.039053
63.409,75.0978,-0.039053
63.440,75.0845,-0.039053
63.471,75.0710,-0.039053
63.502,75.0561,-0.039053
63.535,75.0396,-0.039053
63.563,75.0254,-0.039053
63.594,75.0085,-0.039053
63.626,74.9906,-0.039053
63.656,74.9727,-0.020562
63.688,74.9531,-0.020562
63.718,74.9342,-0.020562
63.750,74.9136,-0.020562
63.781,74.8922,-0.020562
63.812,74.8705,-0.020562
63.843,74.8469,-0.020562
63.874,74.8245,-0.002315
63.906,74.8004,-0.002315
63.935,74.7765,-0.002315
63.966,74.7514,-0.002315
63.996,74.7255,-0.002315
64.027,74.6991,-0.002315
64.058,74.6712,-0.002315
64.090,74.6425,-0.002315
64.120,74.6135,0.013607
64.151,74.5842,0.013607
64.182,74.5531,0.013607
64.214,74.5210,0.013607
64.247,74.4874,0.013607
64.276,74.4567,0.013607
64.311,74.4193,0.013607
64.338,74.3899,0.013607
64.368,74.3550,0.013607
64.400,74.3192,0.024439
64.431,74.2821,0.024439
64.463,74.2438,0.024439
64.498,74.2000,0.024439
64.538,74.1499,0.024439
64.570,74.1109,0.024439
64.601,74.0693,0.024439
64.633,74.0274,0.024439
64.665,73.9841,0.030941
64.695,73.9428,0.030941
64.727,73.8980,0.030941
64.759,73.8540,0.030941
64.790,73.8076,0.030941
64.821,73.7623,0.030941
64.852,73.7149,0.030941
64.884,73.6688,0.030941
64.914,73.6217,0.036804
64.945,73.5729,0.036804
64.978,73.5208,0.036804
65.006,73.4741,0.036804
65.038,73.4236,0.036804
65.069,73.3729,0.036804
65.100,73.3204,0.036804
65.131,73.2676,0.036804
65.162,73.2150,0.042347
65.193,73.1592,0.042347
65.224,73.1044,0.042347
65.261,73.0380,0.042347
65.302,72.9630,0.042347
65.334,72.9032,0.042347
65.364,72.8476,0.042347
65.395,72.7882,0.045819
65.426,72.7299,0.045819
65.457,72.6693,0.045819
65.487,72.6106,0.045819
65.519,72.5497,0.045819
65.550,72.4902,0.045819
65.580,72.4334,0.045819
65.611,72.3770,0.045819
65.643,72.3201,0.029934
65.674,72.2631,0.029934
65.705,72.2084,0.029934
65.737,72.1521,0.029934
65.767,72.1004,0.029934
65.799,72.0461,0.029934
65.830,71.9954,0.029934
65.861,71.9417,0.029934
65.891,71.8938,0.010709
65.923,71.8428,0.010709
65.953,71.7949,0.010709
65.984,71.7451,0.010709
66.016,71.6973,0.010709
66.048,71.6486,0.010709
66.079,71.6029,0.010709
66.110,71.5576,0.008253
66.140,71.5132,0.008253
66.173,71.4676,0.008253
66.203,71.4242,0.008253
66.233,71.3835,0.008253
66.264,71.3418,0.008253
66.296,71.2993,0.008253
66.327,71.2585,0.008253
66.359,71.2177,0.007876
66.389,71.1802,0.007876
66.421,71.1408,0.007876
66.453,71.1034,0.007876
66.484,71.0654,0.007876
66.514,71.0316,0.007876
66.545,70.9955,0.007876
66.576,70.9609,0.007876
66.606,70.9278,0.007698
66.638,70.8951,0.007698
66.672,70.8579,0.007698
66.701,70.8298,0.007698
66.732,70.7990,0.007698
66.763,70.7690,0.007698
66.793,70.7399,0.007698
66.824,70.7107,0.007698
66.856,70.6829,0.007698
66.886,70.6562,0.007613
66.917,70.6302,0.007613
66.948,70.6038,0.007613
66.979,70.5786,0.007613
67.011,70.5530,0.007613
67.041,70.5306,0.007613
67.073,70.5073,0.007613
67.105,70.4843,0.007613
67.136,70.4633,0.007613
67.167,70.4426,0.007519
67.198,70.4224,0.007519
67.229,70.4035,0.007519
67.260,70.3849,0.007519
67.290,70.3671,0.007519
67.321,70.3503,0.007519
67.353,70.3333,0.007519
67.383,70.3183,0.007519
67.415,70.3034,0.007406
67.445,70.2892,0.007406
67.470,70.2785,0.007406
67.507,70.2634,0.007406
67.538,70.2516,0.007406
67.569,70.2402,0.007406
67.600,70.2299,0.007406
67.631,70.2200,0.007350
67.663,70.2108,0.007350
67.694,70.2024,0.007350
67.726,70.1947,0.007350
67.756,70.1881,0.007350
67.787,70.1820,0.007350
67.818,70.1766,0.007350
67.849,70.1718,0.007350
67.880,70.1681,0.007302
67.910,70.1649,0.007302
67.941,70.1625,0.007302
67.972,70.1607,0.007302
68.003,70.1597,0.007302
68.034,70.1593,0.007302
68.066,70.1593,0.007302
68.097,70.1593,0.007302
68.129,70.1593,0.007255
68.159,70.1593,0.007255
68.191,70.1593,0.007255
68.221,70.1597,0.007255
68.252,70.1607,0.007255
68.283,70.1625,0.007255
68.314,70.1650,0.007255
68.343,70.1681,0.007255
68.377,70.1725,0.007255
68.405,70.1767,0.007255
68.439,70.1826,0.007255
68.467,70.1881,0.007255
68.498,70.1950,0.007255
68.530,70.2027,0.007255
68.561,70.2109,0.007255
68.592,70.2201,0.007255
68.622,70.2296,0.007208
68.658,70.2418,0.007208
68.685,70.2513,0.007208
68.716,70.2635,0.007208
68.751,70.2778,0.007208
68.778,70.2897,0.007208
68.809,70.3038,0.007208
68.841,70.3191,0.007208
68.876,70.3367,0.007001
68.903,70.3507,0.007001
68.935,70.3690,0.007001
68.964,70.3854,0.007001
68.998,70.4053,0.007001
69.026,70.4232,0.007001
69.057,70.4428,0.007001
69.088,70.4639,0.007001
69.117,70.4843,0.007001
69.148,70.5065,0.006898
69.181,70.5306,0.006898
69.210,70.5528,0.006898
69.242,70.5771,0.006898
69.273,70.6021,0.006898
69.305,70.6286,0.006898
69.335,70.6545,0.006898
69.368,70.6834,0.006898
69.397,70.7096,0.006794
69.428,70.7384,0.006794
69.459,70.7673,0.006794
69.485,70.7931,0.006794
69.520,70.8285,0.006794
69.546,70.8543,0.006794
69.583,70.8935,0.006794
69.614,70.9254,0.006794
69.645,70.9593,0.006616
69.676,70.9949,0.006616
69.707,71.0285,0.006616
69.738,71.0651,0.006616
69.768,71.1000,0.006616
69.799,71.1377,0.006616
69.830,71.1754,0.006616
69.861,71.2151,0.006616
69.892,71.2539,0.006493
69.923,71.2944,0.006493
69.955,71.3379,0.006493
69.986,71.3780,0.006493
70.017,71.4205,0.006493
70.048,71.4638,0.006493
70.079,71.5077,0.006493
70.110,71.5533,0.006493
70.141,71.5984,0.006493
70.172,71.6451,0.006239
70.203,71.6905,0.006239
70.235,71.7397,0.006239
70.265,71.7872,0.006239
70.296,71.8365,0.006239
70.327,71.8860,0.006239
70.358,71.9376,0.006239
70.389,71.9874,0.005834
70.420,72.0393,0.005834
70.450,72.0900,0.005834
70.481,72.1441,0.005834
70.513,72.1985,0.005834
70.544,72.2542,0.005834
70.575,72.3089,0.005834
70.605,72.3647,0.005834
70.637,72.4239,0.005402
70.668,72.4802,0.005402
70.699,72.5385,0.005402
70.730,72.5997,0.005402
70.762,72.6596,0.005402
70.792,72.7194,0.005402
70.824,72.7794,0.005402
70.855,72.8374,0.005402
70.886,72.8960,0.004724
70.918,72.9546,0.004724
70.949,73.0107,0.004724
70.980,73.0667,0.004724
71.011,73.1214,0.004724
71.047,73.1835,0.004724
71.073,73.2288,0.004724
71.104,73.2816,0.004724
71.135,73.3336,0.003830
71.166,73.3848,0.003830
71.196,73.4333,0.003830
71.227,73.4835,0.003830
71.258,73.5315,0.003830
71.289,73.5810,0.003830
71.322,73.6327,0.003830
71.351,73.6751,0.003830
71.381,73.7210,0.002616
71.413,73.7664,0.002616
71.443,73.8107,0.002616
71.474,73.8547,0.002616
71.505,73.8978,0.002616
71.536,73.9404,0.002616
71.568,73.9832,0.002616
71.600,74.0252,0.000358
71.631,74.0642,0.000358
71.662,74.1051,0.000358
71.693,74.1434,0.000358
71.724,74.1818,0.000358
71.756,74.2197,0.000358
71.787,74.2569,0.000358
71.818,74.2920,0.000358
71.849,74.3272,0.000358
71.879,74.3617,-0.004423
71.910,74.3946,-0.004423
71.941,74.4280,-0.004423
71.972,74.4595,-0.004423
72.006,74.4944,-0.004423
72.035,74.5228,-0.004423
72.067,74.5538,-0.004423
72.097,74.5825,-0.004423
72.128,74.6119,-0.014116
72.160,74.6395,-0.014116
72.191,74.6672,-0.014116
72.222,74.6931,-0.014116
72.252,74.7188,-0.014116
72.283,74.7431,-0.014116
72.314,74.7673,-0.014116
72.345,74.7905,-0.014116
72.379,74.8163,-0.029549
72.406,74.8352,-0.029549
72.437,74.8566,-0.029549
72.468,74.8769,-0.029549
72.499,74.8971,-0.029549
72.530,74.9164,-0.029549
72.562,74.9353,-0.029549
72.592,74.9522,-0.029549
72.623,74.9694,-0.029549
72.654,74.9857,-0.048049
72.686,75.0016,-0.048049
72.717,75.0162,-0.048049
72.752,75.0323,-0.048049
72.779,75.0437,-0.048049
72.811,75.0566,-0.048049
72.842,75.0688,-0.048049
72.872,75.0796,-0.048049
72.903,75.0896,-0.065205
72.934,75.0994,-0.065205
72.965,75.1083,-0.065205
72.996,75.1167,-0.065205
73.027,75.1243,-0.065205
73.058,75.1309,-0.065205
73.089,75.1371,-0.065205
73.121,75.1425,-0.065205
73.152,75.1472,-0.077438
73.183,75.1509,-0.077438
73.214,75.1541,-0.077438
73.244,75.1565,-0.077438
73.278,75.1582,-0.077438
73.306,75.1591,-0.077438
73.337,75.1593,-0.077438
73.368,75.1593,-0.077438
73.399,75.1593,-0.081569
73.431,75.1593,-0.081569
73.460,75.1593,-0.081569
73.495,75.1593,-0.081569
73.523,75.1593,-0.081569
73.555,75.1593,-0.081569
73.586,75.1593,-0.081569
73.616,75.1593,-0.076902
73.647,75.1593,-0.076902
73.678,75.1593,-0.076902
73.709,75.1593,-0.076902
73.741,75.1593,-0.076902
73.771,75.1593,-0.076902
73.803,75.1593,-0.076902
73.834,75.1593,-0.076902
73.865,75.1593,-0.076902
73.896,75.1593,-0.070192
73.927,75.1593,-0.070192
73.958,75.1593,-0.070192
73.985,75.1593,-0.070192
74.020,75.1593,-0.070192
74.051,75.1593,-0.070192
74.083,75.1593,-0.070192
74.115,75.1593,-0.066193
74.146,75.1593,-0.066193
74.177,75.1593,-0.066193
74.209,75.1593,-0.066193
74.240,75.1593,-0.066193
74.272,75.1593,-0.066193
74.303,75.1593,-0.066193
74.333,75.1593,-0.066193
74.363,75.1593,-0.066193
74.395,75.1593,-0.063445
74.425,75.1593,-0.063445
74.457,75.1593,-0.063445
74.488,75.1593,-0.063445
74.520,75.1593,-0.063445
74.550,75.1593,-0.063445
74.581,75.1593,-0.063445
74.612,75.1593,-0.061309
74.644,75.1593,-0.061309
74.676,75.1593,-0.061309
74.710,75.1593,-0.061309
74.737,75.1593,-0.061309
74.768,75.1593,-0.061309
74.799,75.1593,-0.061309
74.830,75.1593,-0.061309
74.861,75.1593,-0.059605
74.896,75.1593,-0.059605
74.923,75.1593,-0.059605
74.954,75.1593,-0.059605
74.987,75.1593,-0.059605
75.016,75.1593,-0.059605
75.046,75.1593,-0.059605
75.079,75.1593,-0.059605
75.110,75.1593,-0.059605
75.139,75.1593,-0.058184
75.171,75.1593,-0.058184
75.201,75.1593,-0.058184
75.233,75.1593,-0.058184
75.263,75.1593,-0.058184
75.294,75.1593,-0.058184
75.325,75.1593,-0.058184
75.355,75.1593,-0.058184
75.387,75.1593,-0.056933
75.417,75.1593,-0.056933
75.449,75.1593,-0.056933
75.479,75.1593,-0.056933
75.510,75.1593,-0.056933
75.541,75.1593,-0.056933
75.572,75.1593,-0.056933
75.603,75.1593,-0.056933
75.635,75.1593,-0.055898
75.665,75.1593,-0.055898
75.696,75.1593,-0.055898
75.726,75.1593,-0.055898
75.757,75.1593,-0.055898
75.787,75.1593,-0.055898
75.817,75.1593,-0.055898
75.849,75.1593,-0.055898
75.880,75.1593,-0.054994
75.916,75.1593,-0.054994
75.957,75.1593,-0.054994
75.987,75.1593,-0.054994
76.019,75.1593,-0.054994
76.050,75.1593,-0.054994
76.080,75.1593,-0.054994
76.112,75.1593,-0.054994
76.143,75.1593,-0.054119
76.174,75.1593,-0.054119
76.205,75.1593,-0.054119
76.236,75.1593,-0.054119
76.267,75.1593,-0.054119
76.299,75.1593,-0.054119
76.330,75.1593,-0.054119
76.361,75.1593,-0.053347
76.393,75.1593,-0.053347
76.423,75.1593,-0.053347
76.461,75.1593,-0.053347
76.501,75.1593,-0.053347
76.532,75.1593,-0.053347
76.562,75.1593,-0.053347
76.593,75.1593,-0.053347
76.623,75.1593,-0.052679
76.654,75.1593,-0.052679
76.685,75.1593,-0.052679
76.715,75.1593,-0.052679
76.747,75.1593,-0.052679
76.778,75.1593,-0.052679
76.810,75.1593,-0.052679
76.841,75.1593,-0.052679
76.873,75.1593,-0.052011
76.903,75.1593,-0.052011
76.935,75.1593,-0.052011
76.966,75.1593,-0.052011
76.998,75.1593,-0.052011
77.028,75.1593,-0.052011
77.060,75.1593,-0.052011
77.090,75.1593,-0.052011
77.129,75.1593,-0.052011
77.167,75.1593,-0.051362
77.198,75.1593,-0.051362
77.230,75.1593,-0.051362
77.261,75.1593,-0.051362
77.291,75.1593,-0.051362
77.323,75.1593,-0.051362
77.353,75.1593,-0.051362
77.384,75.1593,-0.050750
77.416,75.1593,-0.050750
77.446,75.1593,-0.050750
77.477,75.1593,-0.050750
77.509,75.1593,-0.050750
77.540,75.1593,-0.050750
77.570,75.1593,-0.050750
77.602,75.1593,-0.050750
77.632,75.1593,-0.050750
77.663,75.1592,-0.050214
77.693,75.1585,-0.050214
77.724,75.1570,-0.050214
77.755,75.1549,-0.050214
77.786,75.1519,-0.050214
77.818,75.1482,-0.050214
77.849,75.1438,-0.050214
77.881,75.1385,-0.050214
77.911,75.1329,-0.049470
77.942,75.1262,-0.049470
77.973,75.1190,-0.049470
78.005,75.1106,-0.049470
78.036,75.1020,-0.049470
78.066,75.0927,-0.049470
78.098,75.0821,-0.049470
78.130,75.0709,-0.040512
78.161,75.0586,-0.040512
78.191,75.0468,-0.040512
78.222,75.0339,-0.040512
78.253,75.0198,-0.040512
78.284,75.0054,-0.040512
78.315,74.9902,-0.040512
78.345,74.9739,-0.040512
78.376,74.9577,-0.022688
78.408,74.9393,-0.022688
78.438,74.9219,-0.022688
78.469,74.9030,-0.022688
78.500,74.8835,-0.022688
78.532,74.8625,-0.022688
78.563,74.8411,-0.022688
78.598,74.8161,-0.022688
78.625,74.7966,-0.004348
78.657,74.7726,-0.004348
78.688,74.7488,-0.004348
78.719,74.7234,-0.004348
78.750,74.6983,-0.004348
78.780,74.6725,-0.004348
78.811,74.6461,-0.004348
78.843,74.6172,-0.004348
78.873,74.5901,0.012074
78.906,74.5576,0.012074
78.936,74.5298,0.012074
78.967,74.4989,0.012074
78.998,74.4680,0.012074
79.029,74.4347,0.012074
79.060,74.4033,0.012074
79.090,74.3702,0.012074
79.121,74.3361,0.023846
79.153,74.2991,0.023846
79.184,74.2635,0.023846
79.215,74.2268,0.023846
79.247,74.1900,0.023846
79.278,74.1511,0.023846
79.309,74.1136,0.023846
79.340,74.0730,0.023846
79.370,74.0348,0.023846
79.401,73.9931,0.030998
79.432,73.9532,0.030998
79.463,73.9098,0.030998
79.493,73.8681,0.030998
79.525,73.8226,0.030998
79.556,73.7786,0.030998
79.587,73.7339,0.030998
79.618,73.6877,0.037020
79.650,73.6398,0.037020
79.681,73.5922,0.037020
79.712,73.5435,0.037020
79.743,73.4957,0.037020
79.773,73.4474,0.037020
79.804,73.3976,0.037020
79.834,73.3466,0.037020
79.865,73.2944,0.042742
79.896,73.2423,0.042742
79.927,73.1887,0.042742
79.959,73.1359,0.042742
79.990,73.0801,0.042742
80.022,73.0225,0.042742
80.053,72.9675,0.042742
80.083,72.9111,0.042742
80.114,72.8555,0.046487
80.145,72.7967,0.046487
80.176,72.7379,0.046487
80.206,72.6777,0.046487
80.238,72.6162,0.046487
80.269,72.5562,0.046487
80.300,72.4983,0.046487
80.331,72.4381,0.046487
80.362,72.3811,0.033416
80.393,72.3228,0.033416
80.424,72.2668,0.033416
80.455,72.2113,0.033416
80.494,72.1400,0.033416
80.533,72.0757,0.033416
80.566,72.0189,0.033416
80.596,71.9679,0.033416
80.628,71.9144,0.013899
80.659,71.8635,0.013899
80.690,71.8127,0.013899
80.721,71.7633,0.013899
80.751,71.7159,0.013899
80.783,71.6676,0.013899
80.812,71.6234,0.013899
80.844,71.5758,0.013899
80.873,71.5318,0.008338
80.904,71.4861,0.008338
80.936,71.4407,0.008338
80.968,71.3957,0.008338
80.999,71.3537,0.008338
81.030,71.3117,0.008338
81.061,71.2701,0.008338
81.092,71.2298,0.008338
81.123,71.1888,0.007914
81.154,71.1505,0.007914
81.185,71.1117,0.007914
81.215,71.0742,0.007914
81.246,71.0380,0.007914
81.277,71.0011,0.007914
81.309,70.9644,0.007914
81.339,70.9309,0.007914
81.371,70.8959,0.007914
81.403,70.8614,0.007764
81.433,70.8289,0.007764
81.465,70.7956,0.007764
81.496,70.7649,0.007764
81.527,70.7342,0.007764
81.558,70.7049,0.007764
81.588,70.6762,0.007764
81.618,70.6487,0.007764
81.650,70.6206,0.007651
81.680,70.5939,0.007651
81.711,70.5683,0.007651
81.742,70.5424,0.007651
81.777,70.5141,0.007651
81.805,70.4932,0.007651
81.836,70.4697,0.007651
81.867,70.4469,0.007651
81.898,70.4256,0.007519
81.930,70.4040,0.007519
81.963,70.3822,0.007519
81.992,70.3638,0.007519
82.023,70.3446,0.007519
82.054,70.3267,0.007519
82.086,70.3091,0.007519
82.115,70.2933,0.007415
82.146,70.2768,0.007415
82.177,70.2619,0.007415
82.208,70.2471,0.007415
82.239,70.2337,0.007415
82.270,70.2206,0.007415
82.300,70.2083,0.007415
82.331,70.1969,0.007415
82.362,70.1861,0.007387
82.393,70.1759,0.007387
82.424,70.1664,0.007387
82.454,70.1578,0.007387
82.485,70.1498,0.007387
82.517,70.1423,0.007387
82.548,70.1359,0.007387
82.578,70.1300,0.007387
82.608,70.1251,0.007387
82.639,70.1206,0.007350
82.670,70.1170,0.007350
82.701,70.1139,0.007350
82.732,70.1118,0.007350
82.765,70.1102,0.007350
82.793,70.1095,0.007350
82.826,70.1093,0.007350
82.856,70.1093,0.007293
82.888,70.1093,0.007293
82.918,70.1093,0.007293
82.948,70.1093,0.007293
82.980,70.1093,0.007293
83.011,70.1096,0.007293
83.043,70.1107,0.007293
83.074,70.1124,0.007293
83.105,70.1149,0.007293
83.137,70.1183,0.007293
83.167,70.1221,0.007293
83.198,70.1268,0.007293
83.230,70.1324,0.007293
83.262,70.1387,0.007293
83.293,70.1455,0.007293
83.323,70.1530,0.007293
83.354,70.1612,0.007293
83.386,70.1706,0.007171
83.417,70.1806,0.007171
83.449,70.1912,0.007171
83.482,70.2035,0.007171
83.510,70.2143,0.007171
83.544,70.2281,0.007171
83.571,70.2404,0.007171
83.603,70.2546,0.007171
83.634,70.2696,0.007039
83.667,70.2866,0.007039
83.696,70.3017,0.007039
83.727,70.3186,0.007039
83.759,70.3370,0.007039
83.790,70.3554,0.007039
83.822,70.3752,0.007039
83.852,70.3948,0.007039
83.883,70.4162,0.007039
83.915,70.4376,0.006973
83.945,70.4596,0.006973
83.975,70.4817,0.006973
84.007,70.5062,0.006973
84.038,70.5299,0.006973
84.068,70.5547,0.006973
84.099,70.5805,0.006973
84.129,70.6063,0.006813
84.160,70.6340,0.006813
84.191,70.6609,0.006813
84.221,70.6893,0.006813
84.253,70.7194,0.006813
84.284,70.7490,0.006813
84.316,70.7817,0.006813
84.347,70.8130,0.006813
84.377,70.8444,0.006813
84.409,70.8785,0.006672
84.440,70.9128,0.006672
84.471,70.9474,0.006672
84.502,70.9823,0.006672
84.534,71.0202,0.006672
84.565,71.0563,0.006672
84.595,71.0928,0.006672
84.626,71.1299,0.006672
84.657,71.1701,0.006521
84.688,71.2089,0.006521
84.719,71.2502,0.006521
84.750,71.2904,0.006521
84.780,71.3325,0.006521
84.812,71.3749,0.006521
84.843,71.4178,0.006521
84.874,71.4626,0.006521
84.905,71.5067,0.006286
84.936,71.5525,0.006286
84.967,71.5984,0.006286
84.998,71.6452,0.006286
85.030,71.6948,0.006286
85.061,71.7433,0.006286
85.092,71.7926,0.006286
85.123,71.8418,0.006286
85.154,71.8922,0.005872
85.185,71.9455,0.005872
85.216,71.9962,0.005872
85.247,72.0484,0.005872
85.278,72.1033,0.005872
85.310,72.1584,0.005872
85.340,72.2151,0.005872
85.372,72.2698,0.005364
85.403,72.3256,0.005364
85.434,72.3826,0.005364
85.465,72.4418,0.005364
85.496,72.4985,0.005364
85.526,72.5582,0.005364
85.558,72.6185,0.005364
85.589,72.6785,0.005364
85.620,72.7366,0.005364
85.652,72.7984,0.004780
85.681,72.8514,0.004780
85.713,72.9090,0.004780
85.743,72.9651,0.004780
85.774,73.0195,0.004780
85.805,73.0752,0.004780
85.836,73.1283,0.004780
85.868,73.1833,0.004780
85.898,73.2346,0.003999
85.929,73.2869,0.003999
85.959,73.3358,0.003999
85.992,73.3888,0.003999
86.021,73.4364,0.003999
86.052,73.4851,0.003999
86.084,73.5341,0.003999
86.114,73.5815,0.003999
86.146,73.6287,0.002908
86.178,73.6764,0.002908
86.208,73.7213,0.002908
86.238,73.7641,0.002908
86.269,73.8073,0.002908
86.300,73.8514,0.002908
86.332,73.8937,0.002908
86.362,73.9351,0.002908
86.393,73.9756,0.000800
86.425,74.0171,0.000800
86.455,74.0555,0.000800
86.486,74.0948,0.000800
86.516,74.1313,0.000800
86.548,74.1699,0.000800
86.578,74.2058,0.000800
86.609,74.2423,0.000800
86.640,74.2765,-0.003454
86.671,74.3112,-0.003454
86.702,74.3446,-0.003454
86.733,74.3775,-0.003454
86.764,74.4093,-0.003454
86.795,74.4411,-0.003454
86.826,74.4731,-0.003454
86.859,74.5035,-0.003454
86.889,74.5321,-0.012168
86.920,74.5609,-0.012168
86.951,74.5891,-0.012168
86.982,74.6166,-0.012168
87.013,74.6424,-0.012168
87.044,74.6683,-0.012168
87.075,74.6931,-0.012168
87.105,74.7169,-0.012168
87.136,74.7404,-0.026829
87.167,74.7634,-0.026829
87.198,74.7845,-0.026829
87.229,74.8067,-0.026829
87.260,74.8269,-0.026829
87.291,74.8468,-0.026829
87.321,74.8656,-0.026829
87.352,74.8840,-0.026829
87.382,74.9017,-0.045095
87.417,74.9206,-0.045095
87.445,74.9347,-0.045095
87.474,74.9497,-0.045095
87.505,74.9644,-0.045095
87.536,74.9785,-0.045095
87.566,74.9918,-0.045095
87.598,75.0048,-0.045095
87.628,75.0163,-0.062814
87.660,75.0280,-0.062814
87.690,75.0380,-0.062814
87.721,75.0479,-0.062814
87.753,75.0574,-0.062814
87.783,75.0654,-0.062814
87.815,75.0732,-0.062814
87.845,75.0799,-0.062814
87.876,75.0861,-0.076121
87.907,75.0916,-0.076121
87.940,75.0966,-0.076121
87.969,75.1003,-0.076121
88.001,75.1036,-0.076121
88.031,75.1061,-0.076121
88.062,75.1080,-0.076121
88.094,75.1090,-0.076121
88.124,75.1093,-0.081804
88.154,75.1093,-0.081804
88.186,75.1093,-0.081804
88.219,75.1093,-0.081804
