Elapsed Time (s),Position (mm),Force (N)
-0.007,67.6594,-0.559447
0.024,67.6594,-0.559447
0.055,67.6594,-0.438195
0.087,67.6594,-0.438195
0.118,67.6594,-0.438195
0.149,67.6594,-0.438195
0.180,67.6594,-0.438195
0.211,67.6594,-0.438195
0.242,67.6594,-0.438195
0.272,67.6594,-0.438195
0.303,67.6594,-0.438195
0.335,67.6594,-0.277860
0.366,67.6594,-0.277860
0.397,67.6594,-0.277860
0.425,67.6594,-0.277860
0.461,67.6594,-0.277860
0.491,67.6594,-0.277860
0.522,67.6594,-0.277860
0.552,67.6594,-0.277860
0.584,67.6594,-0.277860
0.615,67.6594,-0.222452
0.646,67.6594,-0.222452
0.672,67.6594,-0.222452
0.709,67.6594,-0.222452
0.740,67.6594,-0.222452
0.770,67.6594,-0.222452
0.802,67.6594,-0.222452
0.833,67.6594,-0.222452
0.864,67.6594,-0.198964
0.895,67.6594,-0.198964
0.926,67.6594,-0.198964
0.967,67.6594,-0.198964
1.004,67.6594,-0.198964
1.034,67.6594,-0.198964
1.065,67.6594,-0.186006
1.096,67.6594,-0.186006
1.127,67.6594,-0.186006
1.158,67.6594,-0.186006
1.189,67.6594,-0.186006
1.220,67.6594,-0.186006
1.251,67.6594,-0.186006
1.281,67.6594,-0.186006
1.311,67.6594,-0.177151
1.343,67.6594,-0.177151
1.374,67.6594,-0.177151
1.405,67.6594,-0.177151
1.435,67.6594,-0.177151
1.467,67.6594,-0.177151
1.496,67.6594,-0.177151
1.531,67.6594,-0.177151
1.561,67.6594,-0.170639
1.592,67.6594,-0.170639
1.623,67.6594,-0.170639
1.654,67.6594,-0.170639
1.685,67.6594,-0.170639
1.717,67.6594,-0.170639
1.747,67.6594,-0.170639
1.778,67.6594,-0.170639
1.810,67.6594,-0.170639
1.842,67.6594,-0.170639
1.873,67.6594,-0.165726
1.904,67.6594,-0.165726
1.934,67.6594,-0.165726
1.965,67.6594,-0.165726
1.996,67.6594,-0.165726
2.028,67.6594,-0.165726
2.058,67.6594,-0.165726
2.090,67.6594,-0.161887
2.121,67.6594,-0.161887
2.152,67.6594,-0.161887
2.183,67.6594,-0.161887
2.214,67.6594,-0.161887
2.245,67.6594,-0.161887
2.276,67.6594,-0.161887
2.308,67.6594,-0.161887
2.340,67.6594,-0.158499
2.370,67.6594,-0.158499
2.401,67.6594,-0.158499
2.432,67.6594,-0.158499
2.464,67.6594,-0.158499
2.495,67.6594,-0.158499
2.526,67.6594,-0.158499
2.557,67.6594,-0.158499
2.588,67.6594,-0.155460
2.619,67.6594,-0.155460
2.652,67.6594,-0.155460
2.681,67.6594,-0.155460
2.712,67.6594,-0.155460
2.743,67.6594,-0.155460
2.774,67.6594,-0.155460
2.805,67.6594,-0.153145
2.836,67.6594,-0.153145
2.867,67.6594,-0.153145
2.898,67.6594,-0.153145
2.930,67.6594,-0.153145
2.961,67.6594,-0.153145
2.992,67.6594,-0.153145
3.023,67.6594,-0.153145
3.054,67.6594,-0.153145
3.085,67.6594,-0.153145
3.116,67.6594,-0.150585
3.146,67.6594,-0.150585
3.177,67.6594,-0.150585
3.208,67.6594,-0.150585
3.240,67.6594,-0.150585
3.271,67.6594,-0.150585
3.302,67.6594,-0.150585
3.333,67.6594,-0.148477
3.366,67.6594,-0.148477
3.395,67.6594,-0.148477
3.426,67.6594,-0.148477
3.457,67.6594,-0.148477
3.488,67.6594,-0.148477
3.519,67.6594,-0.148477
3.551,67.6594,-0.148477
3.582,67.6594,-0.146247
3.613,67.6594,-0.146247
3.643,67.6594,-0.146247
3.674,67.6594,-0.146247
3.705,67.6594,-0.146247
3.736,67.6594,-0.146247
3.767,67.6594,-0.146247
3.798,67.6594,-0.146247
3.829,67.6594,-0.143555
3.860,67.6594,-0.143555
3.891,67.6594,-0.143555
3.922,67.6594,-0.143555
3.952,67.6594,-0.143555
3.983,67.6594,-0.143555
4.014,67.6594,-0.143555
4.046,67.6594,-0.143555
4.077,67.6594,-0.140648
4.108,67.6590,-0.140648
4.139,67.6579,-0.140648
4.171,67.6559,-0.140648
4.201,67.6534,-0.140648
4.232,67.6499,-0.140648
4.263,67.6461,-0.140648
4.293,67.6413,-0.140648
4.324,67.6359,-0.123304
4.355,67.6297,-0.123304
4.385,67.6230,-0.123304
4.416,67.6152,-0.123304
4.447,67.6070,-0.123304
4.478,67.5979,-0.123304
4.509,67.5883,-0.123304
4.539,67.5778,-0.123304
4.570,67.5665,0.044822
4.600,67.5551,0.044822
4.631,67.5424,0.044822
4.663,67.5284,0.044822
4.694,67.5145,0.044822
4.725,67.4990,0.044822
4.756,67.4840,0.044822
4.787,67.4676,0.044822
4.818,67.4509,0.105443
4.849,67.4324,0.105443
4.880,67.4142,0.105443
4.911,67.3947,0.105443
4.942,67.3750,0.105443
4.974,67.3537,0.105443
5.004,67.3329,0.105443
5.035,67.3105,0.105443
5.067,67.2874,0.020750
5.097,67.2640,0.020750
5.127,67.2404,0.020750
5.158,67.2159,0.020750
5.189,67.1901,0.020750
5.219,67.1639,0.020750
5.250,67.1369,0.020750
5.281,67.1090,0.020750
5.312,67.0811,0.020750
5.343,67.0505,0.037576
5.373,67.0219,0.037576
5.404,66.9905,0.037576
5.436,66.9591,0.037576
5.467,66.9264,0.037576
5.498,66.8932,0.037576
5.529,66.8593,0.037576
5.560,66.8249,0.053752
5.591,66.7897,0.053752
5.623,66.7529,0.053752
5.654,66.7164,0.053752
5.685,66.6785,0.053752
5.715,66.6415,0.053752
5.746,66.6026,0.053752
5.777,66.5636,0.053752
5.808,66.5227,0.063849
5.838,66.4818,0.063849
5.869,66.4417,0.063849
5.900,66.3984,0.063849
5.931,66.3560,0.063849
5.963,66.3102,0.063849
5.993,66.2670,0.063849
6.024,66.2211,0.063849
6.055,66.1761,0.063849
6.086,66.1277,0.069279
6.116,66.0829,0.069279
6.147,66.0347,0.069279
6.178,65.9854,0.069279
6.209,65.9359,0.069279
6.241,65.8842,0.069279
6.272,65.8334,0.069279
6.303,65.7803,0.072629
6.334,65.7283,0.072629
6.364,65.6750,0.072629
6.396,65.6214,0.072629
6.426,65.5690,0.072629
6.458,65.5102,0.072629
6.488,65.4558,0.072629
6.519,65.3994,0.072629
6.550,65.3417,0.072629
6.581,65.2826,0.074954
6.611,65.2259,0.074954
6.642,65.1664,0.074954
6.672,65.1073,0.074954
6.704,65.0453,0.074954
6.735,64.9848,0.074954
6.766,64.9273,0.074954
6.796,64.8700,0.074954
6.827,64.8138,0.084007
6.859,64.7564,0.084007
6.889,64.7015,0.084007
6.920,64.6466,0.084007
6.951,64.5935,0.084007
6.982,64.5414,0.084007
7.012,64.4886,0.084007
7.043,64.4377,0.084007
7.074,64.3869,0.084007
7.105,64.3359,0.101199
7.136,64.2861,0.101199
7.169,64.2350,0.101199
7.199,64.1863,0.101199
7.230,64.1402,0.101199
7.261,64.0931,0.101199
7.291,64.0486,0.101199
7.323,64.0023,0.101199
7.354,63.9573,0.100136
7.384,63.9142,0.100136
7.415,63.8702,0.100136
7.446,63.8287,0.100136
7.477,63.7871,0.100136
7.508,63.7454,0.100136
7.539,63.7059,0.100136
7.570,63.6661,0.100136
7.601,63.6272,0.054081
7.632,63.5886,0.054081
7.663,63.5520,0.054081
7.695,63.5141,0.054081
7.725,63.4790,0.054081
7.756,63.4446,0.054081
7.787,63.4098,0.054081
7.818,63.3755,0.054081
7.850,63.3417,0.016515
7.882,63.3091,0.016515
7.912,63.2775,0.016515
7.944,63.2464,0.016515
7.974,63.2167,0.016515
8.004,63.1881,0.016515
8.036,63.1591,0.016515
8.066,63.1318,0.016515
8.097,63.1041,0.014473
8.128,63.0781,0.014473
8.158,63.0526,0.014473
8.188,63.0290,0.014473
8.220,63.0030,0.014473
8.250,62.9810,0.014473
8.282,62.9573,0.014473
8.312,62.9363,0.014473
8.343,62.9149,0.013645
8.374,62.8939,0.013645
8.405,62.8739,0.013645
8.436,62.8542,0.013645
8.467,62.8361,0.013645
8.499,62.8177,0.013645
8.530,62.8006,0.013645
8.561,62.7844,0.013645
8.592,62.7689,0.013127
8.624,62.7536,0.013127
8.654,62.7399,0.013127
8.686,62.7261,0.013127
8.716,62.7138,0.013127
8.748,62.7014,0.013127
8.778,62.6904,0.013127
8.810,62.6798,0.013127
8.840,62.6702,0.012779
8.871,62.6611,0.012779
8.902,62.6529,0.012779
8.932,62.6455,0.012779
8.964,62.6385,0.012779
8.995,62.6322,0.012779
9.025,62.6270,0.012779
9.057,62.6222,0.012779
9.088,62.6183,0.012779
9.119,62.6150,0.012488
9.151,62.6125,0.012488
9.181,62.6108,0.012488
9.212,62.6098,0.012488
9.243,62.6094,0.012488
9.274,62.6094,0.012488
9.307,62.6094,0.012488
9.336,62.6094,0.012318
9.368,62.6099,0.012318
9.398,62.6111,0.012318
9.430,62.6132,0.012318
9.460,62.6158,0.012318
9.492,62.6193,0.012318
9.523,62.6234,0.012318
9.553,62.6282,0.012158
9.585,62.6341,0.012158
9.616,62.6403,0.012158
9.647,62.6475,0.012158
9.678,62.6553,0.012158
9.709,62.6637,0.012158
9.740,62.6728,0.012158
9.770,62.6827,0.012158
9.801,62.6935,0.011989
9.833,62.7050,0.011989
9.863,62.7172,0.011989
9.894,62.7298,0.011989
9.925,62.7433,0.011989
9.955,62.7575,0.011989
9.986,62.7724,0.011989
10.019,62.7888,0.011989
10.049,62.8050,0.011876
10.080,62.8225,0.011876
10.111,62.8403,0.011876
10.142,62.8590,0.011876
10.173,62.8785,0.011876
10.204,62.8986,0.011876
10.235,62.9190,0.011876
10.266,62.9414,0.011876
10.297,62.9635,0.011876
10.328,62.9867,0.011707
10.358,63.0094,0.011707
10.390,63.0344,0.011707
10.420,63.0592,0.011707
10.451,63.0851,0.011707
10.483,63.1127,0.011707
10.515,63.1410,0.011707
10.545,63.1680,0.011340
10.575,63.1961,0.011340
10.606,63.2254,0.011340
10.638,63.2562,0.011340
10.669,63.2875,0.011340
10.701,63.3203,0.011340
10.732,63.3524,0.011340
10.762,63.3863,0.011340
10.793,63.4193,0.011340
10.823,63.4531,0.011340
10.854,63.4883,0.010718
10.886,63.5258,0.010718
10.916,63.5611,0.010718
10.948,63.6003,0.010718
10.979,63.6378,0.010718
11.010,63.6780,0.010718
11.041,63.7182,0.010718
11.074,63.7597,0.010718
11.104,63.7998,0.009975
11.134,63.8413,0.009975
11.165,63.8837,0.009975
11.196,63.9278,0.009975
11.227,63.9712,0.009975
11.259,64.0168,0.009975
11.290,64.0621,0.009975
11.321,64.1099,0.009975
11.351,64.1556,0.008912
11.383,64.2042,0.008912
11.414,64.2528,0.008912
11.445,64.3024,0.008912
11.476,64.3515,0.008912
11.507,64.4023,0.008912
11.538,64.4544,0.008912
11.569,64.5071,0.008912
11.601,64.5608,0.007161
11.631,64.6146,0.007161
11.662,64.6674,0.007161
11.694,64.7232,0.007161
11.725,64.7802,0.007161
11.756,64.8360,0.007161
11.787,64.8945,0.007161
11.818,64.9514,0.007161
11.848,65.0102,0.004376
11.880,65.0708,0.004376
11.911,65.1313,0.004376
11.942,65.1898,0.004376
11.973,65.2496,0.004376
12.004,65.3091,0.004376
12.035,65.3658,0.004376
12.068,65.4253,0.004376
12.097,65.4772,-0.000122
12.127,65.5316,-0.000122
12.158,65.5857,-0.000122
12.195,65.6498,-0.000122
12.236,65.7200,-0.000122
12.267,65.7737,-0.000122
12.298,65.8241,-0.000122
12.329,65.8757,-0.006964
12.361,65.9253,-0.006964
12.393,65.9772,-0.006964
12.424,66.0247,-0.006964
12.455,66.0737,-0.006964
12.487,66.1205,-0.006964
12.517,66.1665,-0.006964
12.549,66.2123,-0.006964
12.580,66.2575,-0.017183
12.611,66.3007,-0.017183
12.641,66.3430,-0.017183
12.672,66.3861,-0.017183
12.703,66.4276,-0.017183
12.734,66.4694,-0.017183
12.766,66.5096,-0.017183
12.797,66.5491,-0.017183
12.828,66.5886,-0.032626
12.859,66.6268,-0.032626
12.890,66.6651,-0.032626
12.921,66.7015,-0.032626
12.952,66.7380,-0.032626
12.984,66.7738,-0.032626
13.015,66.8086,-0.032626
13.047,66.8422,-0.032626
13.077,66.8758,-0.055004
13.108,66.9069,-0.055004
13.139,66.9394,-0.055004
13.171,66.9702,-0.055004
13.202,67.0009,-0.055004
13.233,67.0302,-0.055004
13.264,67.0586,-0.055004
13.295,67.0873,-0.055004
13.326,67.1137,-0.084835
13.358,67.1411,-0.084835
13.383,67.1620,-0.084835
13.420,67.1917,-0.084835
13.450,67.2161,-0.084835
13.481,67.2391,-0.084835
13.513,67.2625,-0.084835
13.543,67.2841,-0.084835
13.575,67.3064,-0.084835
13.606,67.3266,-0.126014
13.637,67.3470,-0.126014
13.668,67.3661,-0.126014
13.699,67.3839,-0.126014
13.730,67.4017,-0.126014
13.761,67.4189,-0.126014
13.792,67.4349,-0.126014
13.822,67.4505,-0.126014
13.853,67.4652,-0.203641
13.886,67.4802,-0.203641
13.915,67.4927,-0.203641
13.941,67.5034,-0.203641
13.979,67.5179,-0.203641
14.009,67.5290,-0.203641
14.040,67.5392,-0.203641
14.071,67.5492,-0.203641
14.103,67.5583,-0.335791
14.135,67.5669,-0.335791
14.165,67.5740,-0.335791
14.197,67.5810,-0.335791
14.227,67.5869,-0.335791
14.258,67.5924,-0.335791
14.289,67.5970,-0.335791
14.319,67.6008,-0.335791
14.350,67.6041,-0.497141
14.381,67.6064,-0.497141
14.412,67.6082,-0.497141
14.444,67.6091,-0.497141
14.476,67.6094,-0.497141
14.508,67.6094,-0.497141
14.538,67.6094,-0.497141
14.569,67.6094,-0.497141
14.600,67.6094,-0.543365
14.631,67.6094,-0.543365
14.661,67.6094,-0.543365
14.692,67.6094,-0.543365
14.723,67.6094,-0.543365
14.755,67.6094,-0.543365
14.786,67.6094,-0.543365
14.817,67.6094,-0.543365
14.848,67.6094,-0.402209
14.879,67.6094,-0.402209
14.911,67.6094,-0.402209
14.942,67.6094,-0.402209
14.973,67.6094,-0.402209
15.005,67.6094,-0.402209
15.037,67.6094,-0.402209
15.068,67.6094,-0.402209
15.099,67.6094,-0.263491
15.130,67.6094,-0.263491
15.161,67.6094,-0.263491
15.192,67.6094,-0.263491
15.222,67.6094,-0.263491
15.253,67.6094,-0.263491
15.284,67.6094,-0.263491
15.315,67.6094,-0.263491
15.345,67.6094,-0.216222
15.378,67.6094,-0.216222
15.408,67.6094,-0.216222
15.438,67.6094,-0.216222
15.470,67.6094,-0.216222
15.502,67.6094,-0.216222
15.533,67.6094,-0.216222
15.564,67.6094,-0.216222
15.594,67.6094,-0.195378
15.619,67.6094,-0.195378
15.658,67.6094,-0.195378
15.687,67.6094,-0.195378
15.718,67.6094,-0.195378
15.749,67.6094,-0.195378
15.780,67.6094,-0.195378
15.811,67.6094,-0.195378
15.842,67.6094,-0.195378
15.873,67.6094,-0.183503
15.904,67.6094,-0.183503
15.939,67.6094,-0.183503
15.967,67.6094,-0.183503
15.998,67.6094,-0.183503
16.029,67.6094,-0.183503
16.060,67.6094,-0.175353
16.090,67.6094,-0.175353
16.122,67.6094,-0.175353
16.153,67.6094,-0.175353
16.185,67.6094,-0.175353
16.214,67.6094,-0.175353
16.245,67.6094,-0.175353
16.276,67.6094,-0.175353
16.308,67.6094,-0.175353
16.338,67.6094,-0.169283
16.369,67.6094,-0.169283
16.400,67.6094,-0.169283
16.431,67.6094,-0.169283
16.463,67.6094,-0.169283
16.495,67.6094,-0.169283
16.526,67.6094,-0.169283
16.557,67.6094,-0.169283
16.587,67.6094,-0.169283
16.617,67.6094,-0.164381
16.649,67.6094,-0.164381
16.680,67.6094,-0.164381
16.711,67.6094,-0.164381
16.742,67.6094,-0.164381
16.774,67.6094,-0.164381
16.804,67.6094,-0.164381
16.835,67.6094,-0.160485
16.866,67.6094,-0.160485
16.899,67.6094,-0.160485
16.929,67.6094,-0.160485
16.960,67.6094,-0.160485
16.991,67.6094,-0.160485
17.021,67.6094,-0.160485
17.052,67.6094,-0.160485
17.084,67.6094,-0.157285
17.115,67.6094,-0.157285
17.147,67.6094,-0.157285
17.174,67.6094,-0.157285
17.209,67.6094,-0.157285
17.241,67.6094,-0.157285
17.272,67.6094,-0.157285
17.302,67.6094,-0.157285
17.334,67.6094,-0.154067
17.365,67.6094,-0.154067
17.396,67.6094,-0.154067
17.429,67.6094,-0.154067
17.459,67.6094,-0.154067
17.490,67.6094,-0.154067
17.521,67.6094,-0.154067
17.551,67.6094,-0.154067
17.582,67.6094,-0.154067
17.614,67.6094,-0.151677
17.648,67.6094,-0.151677
17.676,67.6094,-0.151677
17.707,67.6094,-0.151677
17.738,67.6094,-0.151677
17.770,67.6094,-0.151677
17.799,67.6094,-0.149842
17.830,67.6094,-0.149842
17.860,67.6094,-0.149842
17.892,67.6094,-0.149842
17.924,67.6094,-0.149842
17.955,67.6094,-0.149842
17.986,67.6094,-0.149842
18.017,67.6094,-0.149842
18.048,67.6094,-0.149842
18.080,67.6094,-0.147574
18.111,67.6094,-0.147574
18.142,67.6094,-0.147574
18.173,67.6094,-0.147574
18.204,67.6094,-0.147574
18.235,67.6094,-0.147574
18.266,67.6094,-0.147574
18.297,67.6094,-0.147574
18.327,67.6094,-0.144920
18.358,67.6094,-0.144920
18.390,67.6094,-0.144920
18.421,67.6094,-0.144920
18.451,67.6094,-0.144920
18.482,67.6094,-0.144920
18.513,67.6094,-0.144920
18.544,67.6094,-0.144920
18.574,67.6094,-0.144920
18.605,67.6094,-0.142596
18.636,67.6094,-0.142596
18.667,67.6094,-0.142596
18.698,67.6094,-0.142596
18.730,67.6094,-0.142596
18.759,67.6094,-0.142596
18.790,67.6094,-0.142596
18.820,67.6094,-0.139575
18.851,67.6093,-0.139575
18.882,67.6085,-0.139575
18.913,67.6070,-0.139575
18.943,67.6048,-0.139575
18.974,67.6020,-0.139575
19.005,67.5982,-0.139575
19.036,67.5938,-0.139575
19.068,67.5887,-0.139575
19.098,67.5827,-0.125892
19.129,67.5760,-0.125892
19.161,67.5688,-0.125892
19.192,67.5608,-0.125892
19.224,67.5517,-0.125892
19.255,67.5422,-0.125892
19.285,67.5321,-0.125892
19.316,67.5212,-0.125892
19.345,67.5104,0.070625
19.378,67.4970,0.070625
19.409,67.4838,0.070625
19.440,67.4701,0.070625
19.472,67.4546,0.070625
19.503,67.4399,0.070625
19.535,67.4231,0.070625
19.565,67.4064,0.134710
19.596,67.3890,0.134710
19.627,67.3711,0.134710
19.658,67.3522,0.134710
19.688,67.3328,0.134710
19.720,67.3119,0.134710
19.750,67.2911,0.134710
19.782,67.2686,0.134710
19.813,67.2459,0.020788
19.845,67.2223,0.020788
19.876,67.1984,0.020788
19.908,67.1723,0.020788
19.938,67.1477,0.020788
19.969,67.1206,0.020788
20.001,67.0938,0.020788
20.031,67.0664,0.020788
20.062,67.0380,0.037340
20.094,67.0071,0.037340
20.124,66.9789,0.037340
20.155,66.9479,0.037340
20.186,66.9167,0.037340
20.217,66.8850,0.037340
20.247,66.8528,0.037340
20.279,66.8184,0.037340
20.309,66.7848,0.053696
20.340,66.7495,0.053696
20.371,66.7147,0.053696
20.403,66.6770,0.053696
20.433,66.6411,0.053696
20.464,66.6027,0.053696
20.495,66.5645,0.053696
20.527,66.5232,0.053696
20.558,66.4844,0.064057
20.588,66.4439,0.064057
20.619,66.4018,0.064057
20.654,66.3534,0.064057
20.681,66.3167,0.064057
20.713,66.2723,0.064057
20.744,66.2274,0.064057
20.776,66.1813,0.064057
20.807,66.1349,0.064057
20.837,66.0897,0.069580
20.868,66.0433,0.069580
20.899,65.9949,0.069580
20.930,65.9454,0.069580
20.961,65.8955,0.069580
20.992,65.8448,0.069580
21.024,65.7928,0.069580
21.055,65.7410,0.069580
21.086,65.6873,0.072780
21.117,65.6354,0.072780
21.148,65.5804,0.072780
21.180,65.5239,0.072780
21.212,65.4674,0.072780
21.246,65.4062,0.072780
21.275,65.3520,0.072780
21.306,65.2962,0.072780
21.336,65.2373,0.075114
21.367,65.1788,0.075114
21.398,65.1197,0.075114
21.429,65.0584,0.075114
21.460,65.0003,0.075114
21.490,64.9405,0.075114
21.521,64.8831,0.075114
21.553,64.8244,0.075114
21.582,64.7700,0.084204
21.615,64.7108,0.084204
21.644,64.6589,0.084204
21.676,64.6029,0.084204
21.708,64.5471,0.084204
21.739,64.4921,0.084204
21.770,64.4397,0.084204
21.802,64.3859,0.084204
21.831,64.3373,0.101265
21.863,64.2856,0.101265
21.894,64.2357,0.101265
21.925,64.1876,0.101265
21.956,64.1393,0.101265
21.988,64.0902,0.101265
22.018,64.0450,0.101265
22.049,63.9976,0.101265
22.080,63.9531,0.103335
22.112,63.9068,0.103335
22.143,63.8639,0.103335
22.174,63.8187,0.103335
22.209,63.7721,0.103335
22.237,63.7338,0.103335
22.271,63.6894,0.103335
22.299,63.6523,0.103335
22.330,63.6139,0.057488
22.361,63.5755,0.057488
22.391,63.5382,0.057488
22.421,63.5010,0.057488
22.452,63.4655,0.057488
22.483,63.4294,0.057488
22.514,63.3936,0.057488
22.545,63.3600,0.057488
22.576,63.3255,0.016713
22.603,63.2972,0.016713
22.638,63.2611,0.016713
22.669,63.2294,0.016713
22.698,63.2000,0.016713
22.729,63.1696,0.016713
22.760,63.1406,0.016713
22.791,63.1122,0.016713
22.822,63.0837,0.014530
22.854,63.0556,0.014530
22.885,63.0293,0.014530
22.916,63.0030,0.014530
22.947,62.9781,0.014530
22.978,62.9538,0.014530
23.009,62.9297,0.014530
23.040,62.9073,0.014530
23.071,62.8851,0.013777
23.102,62.8639,0.013777
23.132,62.8437,0.013777
23.163,62.8235,0.013777
23.194,62.8047,0.013777
23.225,62.7860,0.013777
23.255,62.7690,0.013777
23.286,62.7516,0.013777
23.317,62.7351,0.013203
23.352,62.7172,0.013203
23.379,62.7048,0.013203
23.411,62.6903,0.013203
23.442,62.6770,0.013203
23.477,62.6623,0.013203
23.504,62.6519,0.013203
23.534,62.6411,0.013203
23.565,62.6306,0.012845
23.596,62.6209,0.012845
23.627,62.6115,0.012845
23.658,62.6034,0.012845
23.688,62.5959,0.012845
23.720,62.5888,0.012845
23.751,62.5826,0.012845
23.782,62.5769,0.012845
23.814,62.5723,0.012610
23.845,62.5683,0.012610
23.876,62.5650,0.012610
23.907,62.5625,0.012610
23.938,62.5608,0.012610
23.969,62.5597,0.012610
24.000,62.5593,0.012610
24.031,62.5593,0.012610
24.063,62.5593,0.012469
24.094,62.5593,0.012469
24.125,62.5593,0.012469
24.156,62.5593,0.012469
24.187,62.5595,0.012469
24.219,62.5604,0.012469
24.250,62.5621,0.012469
24.280,62.5642,0.012469
24.311,62.5675,0.012356
24.343,62.5713,0.012356
24.373,62.5759,0.012356
24.404,62.5810,0.012356
24.435,62.5872,0.012356
24.467,62.5939,0.012356
24.498,62.6016,0.012356
24.531,62.6099,0.012356
24.561,62.6186,0.012111
24.591,62.6282,0.012111
24.622,62.6383,0.012111
24.653,62.6497,0.012111
24.683,62.6609,0.012111
24.714,62.6735,0.012111
24.745,62.6869,0.012111
24.776,62.7008,0.012111
24.807,62.7151,0.011838
24.837,62.7303,0.011838
24.868,62.7463,0.011838
24.900,62.7638,0.011838
24.931,62.7815,0.011838
24.963,62.8003,0.011838
24.994,62.8195,0.011838
25.025,62.8396,0.011838
25.057,62.8608,0.011838
25.088,62.8820,0.011603
25.119,62.9038,0.011603
25.151,62.9270,0.011603
25.181,62.9505,0.011603
25.212,62.9751,0.011603
25.243,62.9992,0.011603
25.275,63.0255,0.011603
25.305,63.0510,0.011368
25.337,63.0792,0.011368
25.367,63.1066,0.011368
25.398,63.1355,0.011368
25.428,63.1640,0.011368
25.459,63.1935,0.011368
25.489,63.2237,0.011368
25.521,63.2555,0.011368
25.551,63.2873,0.010954
25.582,63.3200,0.010954
25.612,63.3524,0.010954
25.644,63.3876,0.010954
25.675,63.4227,0.010954
25.706,63.4586,0.010954
25.737,63.4943,0.010954
25.768,63.5322,0.010954
25.799,63.5702,0.010154
25.831,63.6108,0.010154
25.862,63.6503,0.010154
25.894,63.6907,0.010154
25.925,63.7323,0.010154
25.955,63.7731,0.010154
25.986,63.8145,0.010154
26.017,63.8582,0.010154
26.051,63.9061,0.010154
26.079,63.9464,0.010154
26.113,63.9956,0.009232
26.141,64.0375,0.009232
26.172,64.0853,0.009232
26.203,64.1317,0.009232
26.237,64.1847,0.009232
26.265,64.2293,0.009232
26.296,64.2786,0.009232
26.328,64.3297,0.007773
26.359,64.3809,0.007773
26.390,64.4336,0.007773
26.421,64.4857,0.007773
26.453,64.5407,0.007773
26.484,64.5951,0.007773
26.515,64.6499,0.007773
26.545,64.7036,0.007773
26.576,64.7608,0.005449
26.607,64.8170,0.005449
26.639,64.8760,0.005449
26.669,64.9342,0.005449
26.700,64.9919,0.005449
26.730,65.0505,0.005449
26.762,65.1121,0.005449
26.793,65.1718,0.005449
26.824,65.2301,0.005449
26.855,65.2878,0.001600
26.886,65.3446,0.001600
26.917,65.4012,0.001600
26.947,65.4563,0.001600
26.979,65.5114,0.001600
27.009,65.5641,0.001600
27.041,65.6184,0.001600
27.071,65.6700,-0.004508
27.103,65.7251,-0.004508
27.135,65.7769,-0.004508
27.164,65.8247,-0.004508
27.195,65.8758,-0.004508
27.226,65.9237,-0.004508
27.257,65.9729,-0.004508
27.288,66.0198,-0.004508
27.319,66.0662,-0.013739
27.349,66.1129,-0.013739
27.381,66.1578,-0.013739
27.410,66.2011,-0.013739
27.441,66.2439,-0.013739
27.472,66.2880,-0.013739
27.503,66.3301,-0.013739
27.535,66.3741,-0.013739
27.565,66.4141,-0.013739
27.597,66.4545,-0.027384
27.629,66.4958,-0.027384
27.659,66.5341,-0.027384
27.690,66.5729,-0.027384
27.722,66.6104,-0.027384
27.753,66.6477,-0.027384
27.784,66.6831,-0.027384
27.814,66.7192,-0.047221
27.845,66.7538,-0.047221
27.876,66.7869,-0.047221
27.907,66.8199,-0.047221
27.938,66.8515,-0.047221
27.968,66.8830,-0.047221
28.000,66.9149,-0.047221
28.030,66.9446,-0.047221
28.062,66.9745,-0.047221
28.093,67.0029,-0.074399
28.124,67.0317,-0.074399
28.155,67.0589,-0.074399
28.186,67.0858,-0.074399
28.217,67.1113,-0.074399
28.249,67.1377,-0.074399
28.279,67.1612,-0.074399
28.310,67.1847,-0.074399
28.341,67.2079,-0.110346
28.371,67.2291,-0.110346
28.401,67.2508,-0.110346
28.432,67.2708,-0.110346
28.464,67.2921,-0.110346
28.496,67.3117,-0.110346
28.527,67.3301,-0.110346
28.558,67.3481,-0.110346
28.589,67.3652,-0.172182
28.621,67.3823,-0.172182
28.651,67.3974,-0.172182
28.681,67.4119,-0.172182
28.712,67.4262,-0.172182
28.744,67.4402,-0.172182
28.774,67.4525,-0.172182
28.806,67.4650,-0.172182
28.837,67.4764,-0.286565
28.868,67.4869,-0.286565
28.898,67.4967,-0.286565
28.930,67.5060,-0.286565
28.961,67.5146,-0.286565
28.992,67.5221,-0.286565
29.023,67.5291,-0.286565
29.054,67.5356,-0.286565
29.087,67.5414,-0.445601
29.116,67.5458,-0.445601
29.148,67.5501,-0.445601
29.178,67.5532,-0.445601
29.209,67.5558,-0.445601
29.240,67.5577,-0.445601
29.272,67.5589,-0.445601
29.303,67.5593,-0.560116
29.334,67.5593,-0.560116
29.366,67.5593,-0.560116
29.396,67.5593,-0.560116
29.427,67.5593,-0.560116
29.459,67.5593,-0.560116
29.490,67.5593,-0.560116
29.521,67.5593,-0.560116
29.552,67.5593,-0.560116
29.584,67.5593,-0.462737
29.613,67.5593,-0.462737
29.644,67.5593,-0.462737
29.675,67.5593,-0.462737
29.705,67.5593,-0.462737
29.736,67.5593,-0.462737
29.767,67.5593,-0.462737
29.797,67.5593,-0.462737
29.828,67.5593,-0.289219
29.859,67.5593,-0.289219
29.891,67.5593,-0.289219
29.922,67.5593,-0.289219
29.953,67.5593,-0.289219
29.984,67.5593,-0.289219
30.015,67.5593,-0.289219
30.045,67.5593,-0.289219
30.076,67.5593,-0.289219
30.107,67.5593,-0.225078
30.138,67.5593,-0.225078
30.169,67.5593,-0.225078
30.201,67.5593,-0.225078
30.231,67.5593,-0.225078
30.262,67.5593,-0.225078
30.292,67.5593,-0.225078
30.323,67.5593,-0.225078
30.354,67.5593,-0.199764
30.385,67.5593,-0.199764
30.415,67.5593,-0.199764
30.446,67.5593,-0.199764
30.478,67.5593,-0.199764
30.510,67.5593,-0.199764
30.540,67.5593,-0.199764
30.572,67.5593,-0.199764
30.603,67.5593,-0.186401
30.634,67.5593,-0.186401
30.665,67.5593,-0.186401
30.696,67.5593,-0.186401
30.727,67.5593,-0.186401
30.757,67.5593,-0.186401
30.788,67.5593,-0.186401
30.819,67.5593,-0.186401
30.850,67.5593,-0.177433
30.881,67.5593,-0.177433
30.912,67.5593,-0.177433
30.943,67.5593,-0.177433
30.974,67.5593,-0.177433
31.005,67.5593,-0.177433
31.035,67.5593,-0.177433
31.066,67.5593,-0.177433
31.096,67.5593,-0.170648
31.127,67.5593,-0.170648
31.157,67.5593,-0.170648
31.190,67.5593,-0.170648
31.219,67.5593,-0.170648
31.244,67.5593,-0.170648
31.282,67.5593,-0.170648
31.311,67.5593,-0.165802
31.342,67.5593,-0.165802
31.373,67.5593,-0.165802
31.405,67.5593,-0.165802
31.436,67.5593,-0.165802
31.468,67.5593,-0.165802
31.498,67.5593,-0.165802
31.529,67.5593,-0.165802
31.562,67.5593,-0.162339
31.593,67.5593,-0.162339
31.624,67.5593,-0.162339
31.655,67.5593,-0.162339
31.685,67.5593,-0.162339
31.716,67.5593,-0.162339
31.747,67.5593,-0.162339
31.779,67.5593,-0.162339
31.810,67.5593,-0.162339
31.841,67.5593,-0.158829
31.873,67.5593,-0.158829
31.904,67.5593,-0.158829
31.935,67.5593,-0.158829
31.966,67.5593,-0.158829
31.998,67.5593,-0.158829
32.027,67.5593,-0.158829
32.057,67.5593,-0.158829
32.088,67.5593,-0.155544
32.119,67.5593,-0.155544
32.150,67.5593,-0.155544
32.180,67.5593,-0.155544
32.211,67.5593,-0.155544
32.243,67.5593,-0.155544
32.274,67.5593,-0.155544
32.305,67.5593,-0.155544
32.336,67.5593,-0.152966
32.367,67.5593,-0.152966
32.398,67.5593,-0.152966
32.429,67.5593,-0.152966
32.461,67.5593,-0.152966
32.492,67.5593,-0.152966
32.523,67.5593,-0.152966
32.554,67.5593,-0.152966
32.585,67.5593,-0.150312
32.617,67.5593,-0.150312
32.648,67.5593,-0.150312
32.679,67.5593,-0.150312
32.710,67.5593,-0.150312
32.742,67.5593,-0.150312
32.773,67.5593,-0.150312
32.806,67.5593,-0.150312
32.836,67.5593,-0.150312
32.866,67.5593,-0.148289
32.897,67.5593,-0.148289
32.928,67.5593,-0.148289
32.959,67.5593,-0.148289
32.990,67.5593,-0.148289
33.022,67.5593,-0.148289
33.052,67.5593,-0.148289
33.083,67.5593,-0.145767
33.113,67.5593,-0.145767
33.144,67.5593,-0.145767
33.175,67.5593,-0.145767
33.205,67.5593,-0.145767
33.237,67.5593,-0.145767
33.268,67.5593,-0.145767
33.299,67.5593,-0.145767
33.330,67.5593,-0.143348
33.360,67.5593,-0.143348
33.392,67.5593,-0.143348
33.422,67.5593,-0.143348
33.454,67.5593,-0.143348
33.485,67.5593,-0.143348
33.515,67.5593,-0.143348
33.546,67.5593,-0.143348
33.577,67.5593,-0.141005
33.608,67.5589,-0.141005
33.639,67.5579,-0.141005
33.671,67.5561,-0.141005
33.702,67.5535,-0.141005
33.733,67.5501,-0.141005
33.764,67.5463,-0.141005
33.795,67.5413,-0.141005
33.826,67.5360,-0.121601
33.857,67.5299,-0.121601
33.888,67.5228,-0.121601
33.919,67.5153,-0.121601
33.951,67.5068,-0.121601
33.982,67.4975,-0.121601
34.014,67.4876,-0.121601
34.045,67.4769,-0.121601
34.075,67.4658,0.043928
34.108,67.4531,0.043928
34.138,67.4406,0.043928
34.169,67.4268,0.043928
34.201,67.4127,0.043928
34.231,67.3979,0.043928
34.262,67.3823,0.043928
34.294,67.3653,0.043928
34.325,67.3482,0.102479
34.357,67.3296,0.102479
34.389,67.3100,0.102479
34.419,67.2916,0.102479
34.453,67.2693,0.102479
34.481,67.2508,0.102479
34.512,67.2293,0.102479
34.542,67.2077,0.102479
34.573,67.1844,0.020609
34.603,67.1615,0.020609
34.634,67.1371,0.020609
34.665,67.1116,0.020609
34.696,67.0860,0.020609
34.727,67.0600,0.020609
34.758,67.0322,0.020609
34.789,67.0044,0.020609
34.820,66.9750,0.037275
34.851,66.9460,0.037275
34.883,66.9149,0.037275
34.913,66.8841,0.037275
34.944,66.8536,0.037275
34.974,66.8217,0.037275
35.004,66.7897,0.037275
35.035,66.7564,0.037275
35.066,66.7210,0.037275
35.097,66.6868,0.053526
35.128,66.6496,0.053526
35.159,66.6134,0.053526
35.191,66.5750,0.053526
35.221,66.5373,0.053526
35.252,66.4981,0.053526
35.283,66.4598,0.053526
35.315,66.4172,0.053526
35.344,66.3791,0.063878
35.374,66.3383,0.063878
35.406,66.2950,0.063878
35.438,66.2506,0.063878
35.468,66.2068,0.063878
35.506,66.1521,0.063878
35.544,66.0957,0.063878
35.575,66.0493,0.063878
35.606,66.0029,0.069486
35.637,65.9557,0.069486
35.667,65.9067,0.069486
35.698,65.8588,0.069486
35.732,65.8027,0.069486
35.760,65.7567,0.069486
35.792,65.7038,0.069486
35.822,65.6537,0.072771
35.853,65.5997,0.072771
35.884,65.5461,0.072771
35.915,65.4924,0.072771
35.946,65.4374,0.072771
35.977,65.3797,0.072771
36.009,65.3240,0.072771
36.038,65.2683,0.072771
36.070,65.2095,0.075189
36.102,65.1489,0.075189
36.132,65.0913,0.075189
36.162,65.0316,0.075189
36.193,64.9715,0.075189
36.224,64.9118,0.075189
36.256,64.8527,0.075189
36.287,64.7948,0.075189
36.318,64.7373,0.084712
36.349,64.6792,0.084712
36.381,64.6233,0.084712
36.412,64.5676,0.084712
36.443,64.5136,0.084712
36.474,64.4586,0.084712
36.505,64.4066,0.084712
36.537,64.3535,0.084712
36.568,64.3008,0.101642
36.600,64.2495,0.101642
36.630,64.1994,0.101642
36.662,64.1503,0.101642
36.693,64.1024,0.101642
36.723,64.0545,0.101642
36.758,64.0016,0.101642
36.786,63.9610,0.101642
36.820,63.9105,0.101152
36.849,63.8683,0.101152
36.881,63.8215,0.101152
36.910,63.7815,0.101152
36.941,63.7391,0.101152
36.973,63.6956,0.101152
37.004,63.6552,0.101152
37.034,63.6162,0.101152
37.066,63.5748,0.055070
37.096,63.5371,0.055070
37.128,63.4979,0.055070
37.159,63.4604,0.055070
37.189,63.4243,0.055070
37.220,63.3873,0.055070
37.251,63.3524,0.055070
37.282,63.3183,0.055070
37.315,63.2821,0.055070
37.345,63.2501,0.055070
37.375,63.2177,0.016515
37.405,63.1878,0.016515
37.440,63.1526,0.016515
37.467,63.1268,0.016515
37.498,63.0968,0.016515
37.528,63.0691,0.016515
37.559,63.0405,0.016515
37.591,63.0125,0.014586
37.624,62.9847,0.014586
37.653,62.9590,0.014586
37.684,62.9346,0.014586
37.715,62.9101,0.014586
37.746,62.8863,0.014586
37.777,62.8631,0.014586
37.809,62.8404,0.014586
37.839,62.8191,0.013786
37.869,62.7989,0.013786
37.900,62.7789,0.013786
37.931,62.7596,0.013786
37.962,62.7406,0.013786
37.994,62.7225,0.013786
38.026,62.7048,0.013786
38.057,62.6878,0.013786
38.088,62.6721,0.013184
38.119,62.6570,0.013184
38.150,62.6429,0.013184
38.181,62.6290,0.013184
38.212,62.6165,0.013184
38.243,62.6042,0.013184
38.274,62.5926,0.013184
38.305,62.5824,0.013184
38.336,62.5722,0.013184
38.367,62.5631,0.012836
38.398,62.5547,0.012836
38.429,62.5466,0.012836
38.460,62.5398,0.012836
38.491,62.5335,0.012836
38.522,62.5279,0.012836
38.554,62.5231,0.012836
38.585,62.5189,0.012648
38.615,62.5156,0.012648
38.647,62.5129,0.012648
38.677,62.5110,0.012648
38.707,62.5098,0.012648
38.739,62.5093,0.012648
38.769,62.5093,0.012648
38.799,62.5093,0.012648
38.830,62.5093,0.012441
38.861,62.5093,0.012441
38.891,62.5093,0.012441
38.923,62.5094,0.012441
38.954,62.5103,0.012441
38.986,62.5118,0.012441
39.016,62.5140,0.012441
39.048,62.5172,0.012441
39.079,62.5211,0.012328
39.111,62.5257,0.012328
39.141,62.5306,0.012328
39.172,62.5365,0.012328
39.203,62.5430,0.012328
39.233,62.5505,0.012328
39.264,62.5585,0.012328
39.295,62.5673,0.012168
39.326,62.5770,0.012168
39.357,62.5869,0.012168
39.389,62.5988,0.012168
39.418,62.6093,0.012168
39.449,62.6219,0.012168
39.480,62.6348,0.012168
39.510,62.6485,0.012168
39.541,62.6627,0.012168
39.572,62.6780,0.011914
39.602,62.6938,0.011914
39.633,62.7107,0.011914
39.664,62.7282,0.011914
39.695,62.7462,0.011914
39.727,62.7658,0.011914
39.757,62.7851,0.011914
39.788,62.8057,0.011914
39.819,62.8263,0.011707
39.851,62.8495,0.011707
39.881,62.8711,0.011707
39.912,62.8945,0.011707
39.944,62.9187,0.011707
39.979,62.9466,0.011707
40.019,62.9798,0.011707
40.050,63.0070,0.011424
40.082,63.0344,0.011424
40.112,63.0618,0.011424
40.143,63.0913,0.011424
40.174,63.1194,0.011424
40.204,63.1491,0.011424
40.234,63.1795,0.011424
40.265,63.2103,0.011424
40.295,63.2422,0.011424
40.326,63.2744,0.011001
40.357,63.3090,0.011001
40.387,63.3429,0.011001
40.418,63.3777,0.011001
40.448,63.4124,0.011001
40.479,63.4478,0.011001
40.511,63.4875,0.011001
40.540,63.5232,0.011001
40.571,63.5609,0.010333
40.601,63.6001,0.010333
40.633,63.6410,0.010333
40.663,63.6807,0.010333
40.694,63.7222,0.010333
40.725,63.7655,0.010333
40.755,63.8068,0.010333
40.786,63.8511,0.010333
40.817,63.8949,0.009354
40.848,63.9405,0.009354
40.879,63.9857,0.009354
40.910,64.0326,0.009354
40.942,64.0814,0.009354
40.973,64.1287,0.009354
41.004,64.1799,0.009354
41.035,64.2279,0.009354
41.066,64.2794,0.009354
41.097,64.3300,0.009354
41.128,64.3833,0.007933
41.158,64.4328,0.007933
41.188,64.4850,0.007933
41.219,64.5375,0.007933
41.248,64.5894,0.007933
41.279,64.6444,0.007933
41.309,64.6993,0.007933
41.341,64.7581,0.005722
41.372,64.8143,0.005722
41.401,64.8695,0.005722
41.432,64.9294,0.005722
41.465,64.9935,0.005722
41.494,65.0482,0.005722
41.525,65.1081,0.005722
41.555,65.1655,0.005722
41.580,65.2124,0.002033
41.618,65.2810,0.002033
41.648,65.3357,0.002033
41.678,65.3922,0.002033
41.709,65.4468,0.002033
41.741,65.5034,0.002033
41.772,65.5563,0.002033
41.803,65.6090,0.002033
41.834,65.6610,-0.004075
41.865,65.7122,-0.004075
41.896,65.7642,-0.004075
41.934,65.8249,-0.004075
41.974,65.8881,-0.004075
42.006,65.9368,-0.004075
42.036,65.9843,-0.004075
42.068,66.0321,-0.004075
42.098,66.0777,-0.004075
42.129,66.1219,-0.013513
42.161,66.1677,-0.013513
42.192,66.2104,-0.013513
42.223,66.2558,-0.013513
42.255,66.2990,-0.013513
42.285,66.3393,-0.013513
42.317,66.3807,-0.013513
42.348,66.4203,-0.027563
42.379,66.4606,-0.027563
42.410,66.4983,-0.027563
42.441,66.5366,-0.027563
42.472,66.5739,-0.027563
42.503,66.6104,-0.027563
42.534,66.6459,-0.027563
42.565,66.6808,-0.027563
42.595,66.7143,-0.047852
42.631,66.7547,-0.047852
42.672,66.7972,-0.047852
42.703,66.8293,-0.047852
42.734,66.8599,-0.047852
42.766,66.8910,-0.047852
42.796,66.9199,-0.047852
42.834,66.9558,-0.075462
42.875,66.9921,-0.075462
42.906,67.0192,-0.075462
42.940,67.0482,-0.075462
42.968,67.0711,-0.075462
43.001,67.0977,-0.075462
43.030,67.1204,-0.075462
43.061,67.1433,-0.075462
43.092,67.1665,-0.075462
43.125,67.1898,-0.112162
43.152,67.2081,-0.112162
43.185,67.2305,-0.112162
43.214,67.2487,-0.112162
43.245,67.2677,-0.112162
43.277,67.2868,-0.112162
43.308,67.3038,-0.112162
43.342,67.3229,-0.176228
43.370,67.3373,-0.176228
43.401,67.3528,-0.176228
43.431,67.3672,-0.176228
43.466,67.3829,-0.176228
43.494,67.3950,-0.176228
43.524,67.4070,-0.176228
43.556,67.4191,-0.176228
43.588,67.4306,-0.176228
43.617,67.4403,-0.293868
43.649,67.4505,-0.293868
43.683,67.4602,-0.293868
43.712,67.4675,-0.293868
43.743,67.4752,-0.293868
43.774,67.4818,-0.293868
43.802,67.4871,-0.293868
43.836,67.4929,-0.456187
43.867,67.4976,-0.456187
43.899,67.5014,-0.456187
43.929,67.5043,-0.456187
43.961,67.5067,-0.456187
43.991,67.5082,-0.456187
44.023,67.5092,-0.456187
44.054,67.5093,-0.562581
44.085,67.5093,-0.562581
44.116,67.5093,-0.562581
44.148,67.5093,-0.562581
44.179,67.5093,-0.562581
44.211,67.5093,-0.562581
44.239,67.5093,-0.562581
44.269,67.5093,-0.562581
44.303,67.5093,-0.562581
44.331,67.5093,-0.562581
44.360,67.5093,-0.457712
44.394,67.5093,-0.457712
44.425,67.5093,-0.457712
44.457,67.5093,-0.457712
44.488,67.5093,-0.457712
44.520,67.5093,-0.457712
44.551,67.5093,-0.457712
44.581,67.5093,-0.287826
44.613,67.5093,-0.287826
44.645,67.5093,-0.287826
44.676,67.5093,-0.287826
44.707,67.5093,-0.287826
44.739,67.5093,-0.287826
44.769,67.5093,-0.287826
44.800,67.5093,-0.287826
44.831,67.5093,-0.287826
44.862,67.5093,-0.224984
44.887,67.5093,-0.224984
44.924,67.5093,-0.224984
44.954,67.5093,-0.224984
44.985,67.5093,-0.224984
45.017,67.5093,-0.224984
45.048,67.5093,-0.224984
45.079,67.5093,-0.224984
45.110,67.5093,-0.200112
45.141,67.5093,-0.200112
45.172,67.5093,-0.200112
45.203,67.5093,-0.200112
45.238,67.5093,-0.200112
45.266,67.5093,-0.200112
45.298,67.5093,-0.200112
45.328,67.5093,-0.200112
45.361,67.5093,-0.186561
45.391,67.5093,-0.186561
45.421,67.5093,-0.186561
45.453,67.5093,-0.186561
45.488,67.5093,-0.186561
45.516,67.5093,-0.186561
45.547,67.5093,-0.186561
45.577,67.5093,-0.186561
45.610,67.5093,-0.177772
45.641,67.5093,-0.177772
45.672,67.5093,-0.177772
45.703,67.5093,-0.177772
45.733,67.5093,-0.177772
45.765,67.5093,-0.177772
45.796,67.5093,-0.177772
45.826,67.5093,-0.171231
45.857,67.5093,-0.171231
45.887,67.5093,-0.171231
45.918,67.5093,-0.171231
45.949,67.5093,-0.171231
45.980,67.5093,-0.171231
46.011,67.5093,-0.171231
46.042,67.5093,-0.171231
46.073,67.5093,-0.165999
46.105,67.5093,-0.165999
46.136,67.5093,-0.165999
46.168,67.5093,-0.165999
46.198,67.5093,-0.165999
46.229,67.5093,-0.165999
46.261,67.5093,-0.165999
46.292,67.5093,-0.165999
46.323,67.5093,-0.161849
46.354,67.5093,-0.161849
46.386,67.5093,-0.161849
46.424,67.5093,-0.161849
46.465,67.5093,-0.161849
46.497,67.5093,-0.161849
46.527,67.5093,-0.161849
46.559,67.5093,-0.158339
46.590,67.5093,-0.158339
46.622,67.5093,-0.158339
46.653,67.5093,-0.158339
46.685,67.5093,-0.158339
46.717,67.5093,-0.158339
46.747,67.5093,-0.158339
46.779,67.5093,-0.158339
46.810,67.5093,-0.155469
46.840,67.5093,-0.155469
46.871,67.5093,-0.155469
46.904,67.5093,-0.155469
46.933,67.5093,-0.155469
46.964,67.5093,-0.155469
46.996,67.5093,-0.155469
47.026,67.5093,-0.155469
47.057,67.5093,-0.155469
47.089,67.5093,-0.153079
47.120,67.5093,-0.153079
47.151,67.5093,-0.153079
47.182,67.5093,-0.153079
47.213,67.5093,-0.153079
47.243,67.5093,-0.153079
47.275,67.5093,-0.153079
47.306,67.5093,-0.153079
47.337,67.5093,-0.150689
47.369,67.5093,-0.150689
47.399,67.5093,-0.150689
47.430,67.5093,-0.150689
47.461,67.5093,-0.150689
47.492,67.5093,-0.150689
47.523,67.5093,-0.150689
47.554,67.5093,-0.150689
47.585,67.5093,-0.148534
47.616,67.5093,-0.148534
47.648,67.5093,-0.148534
47.679,67.5093,-0.148534
47.710,67.5093,-0.148534
47.741,67.5093,-0.148534
47.773,67.5093,-0.148534
47.803,67.5093,-0.146294
47.834,67.5093,-0.146294
47.865,67.5093,-0.146294
47.896,67.5093,-0.146294
47.927,67.5093,-0.146294
47.958,67.5093,-0.146294
47.991,67.5093,-0.146294
48.019,67.5093,-0.146294
48.050,67.5093,-0.146294
48.081,67.5093,-0.146294
48.111,67.5093,-0.143631
48.142,67.5093,-0.143631
48.174,67.5093,-0.143631
48.206,67.5093,-0.143631
48.242,67.5093,-0.143631
48.268,67.5093,-0.143631
48.299,67.5093,-0.143631
48.331,67.5093,-0.140450
48.362,67.5091,-0.140450
48.393,67.5079,-0.140450
48.430,67.5058,-0.140450
48.456,67.5037,-0.140450
48.488,67.5004,-0.140450
48.518,67.4965,-0.140450
48.555,67.4908,-0.140450
48.595,67.4835,-0.123427
48.627,67.4768,-0.123427
48.658,67.4696,-0.123427
48.688,67.4618,-0.123427
48.721,67.4525,-0.123427
48.750,67.4436,-0.123427
48.781,67.4337,-0.123427
48.813,67.4226,0.058119
48.843,67.4111,0.058119
48.875,67.3986,0.058119
48.906,67.3854,0.058119
48.938,67.3710,0.058119
48.967,67.3576,0.058119
49.001,67.3409,0.058119
49.029,67.3266,0.058119
49.062,67.3085,0.058119
49.091,67.2926,0.058119
49.121,67.2748,0.119079
49.150,67.2572,0.119079
49.182,67.2368,0.119079
49.213,67.2170,0.119079
49.248,67.1929,0.119079
49.276,67.1738,0.119079
49.307,67.1504,0.119079
49.339,67.1269,0.020590
49.370,67.1026,0.020590
49.400,67.0789,0.020590
49.431,67.0541,0.020590
49.461,67.0285,0.020590
49.492,67.0017,0.020590
49.523,66.9738,0.020590
49.554,66.9455,0.020590
49.585,66.9162,0.037124
49.616,66.8868,0.037124
49.646,66.8572,0.037124
49.679,66.8253,0.037124
49.708,66.7938,0.037124
49.739,66.7619,0.037124
49.771,66.7285,0.037124
49.802,66.6930,0.053536
49.834,66.6584,0.053536
49.864,66.6222,0.053536
49.895,66.5869,0.053536
49.927,66.5494,0.053536
49.959,66.5102,0.053536
49.989,66.4726,0.053536
50.021,66.4315,0.053536
50.051,66.3940,0.053536
50.081,66.3535,0.064047
50.112,66.3122,0.064047
50.144,66.2696,0.064047
50.174,66.2274,0.064047
50.205,66.1841,0.064047
50.237,66.1396,0.064047
50.267,66.0946,0.064047
50.298,66.0484,0.064047
50.329,66.0025,0.069439
50.360,65.9550,0.069439
50.393,65.9048,0.069439
50.422,65.8590,0.069439
50.453,65.8094,0.069439
50.484,65.7590,0.069439
50.517,65.7058,0.069439
50.544,65.6595,0.072375
50.574,65.6103,0.072375
50.605,65.5572,0.072375
50.636,65.5035,0.072375
50.667,65.4501,0.072375
50.698,65.3946,0.072375
50.729,65.3382,0.072375
50.761,65.2809,0.072375
50.793,65.2217,0.072375
50.823,65.1639,0.075057
50.855,65.1045,0.075057
50.886,65.0442,0.075057
50.917,64.9842,0.075057
50.948,64.9232,0.075057
50.979,64.8621,0.075057
51.011,64.8034,0.075057
51.042,64.7449,0.075057
51.073,64.6875,0.084731
51.104,64.6307,0.084731
51.135,64.5750,0.084731
51.166,64.5200,0.084731
51.201,64.4585,0.084731
51.228,64.4133,0.084731
51.258,64.3613,0.084731
51.289,64.3093,0.084731
51.319,64.2590,0.101792
51.350,64.2074,0.101792
51.381,64.1577,0.101792
51.411,64.1112,0.101792
51.441,64.0629,0.101792
51.472,64.0163,0.101792
51.503,63.9679,0.101792
51.534,63.9217,0.101792
51.565,63.8750,0.104587
51.596,63.8313,0.104587
51.627,63.7867,0.104587
51.658,63.7428,0.104587
51.689,63.7004,0.104587
51.720,63.6578,0.104587
51.751,63.6167,0.104587
51.781,63.5764,0.104587
51.813,63.5360,0.104587
51.844,63.4967,0.104587
51.875,63.4581,0.058457
51.906,63.4209,0.058457
51.937,63.3833,0.058457
51.967,63.3487,0.058457
51.998,63.3127,0.058457
52.030,63.2774,0.058457
52.061,63.2435,0.058457
52.091,63.2105,0.016666
52.122,63.1783,0.016666
52.153,63.1455,0.016666
52.184,63.1139,0.016666
52.215,63.0843,0.016666
52.246,63.0543,0.016666
52.277,63.0251,0.016666
52.308,62.9966,0.016666
52.340,62.9684,0.014558
52.371,62.9416,0.014558
52.401,62.9160,0.014558
52.432,62.8908,0.014558
52.463,62.8661,0.014558
52.494,62.8424,0.014558
52.524,62.8194,0.014558
52.555,62.7970,0.014558
52.587,62.7745,0.014558
52.617,62.7539,0.013711
52.649,62.7328,0.013711
52.679,62.7141,0.013711
52.710,62.6957,0.013711
52.744,62.6755,0.013711
52.773,62.6592,0.013711
52.804,62.6424,0.013711
52.835,62.6268,0.013711
52.866,62.6115,0.013184
52.897,62.5970,0.013184
52.928,62.5831,0.013184
52.960,62.5697,0.013184
52.990,62.5578,0.013184
53.021,62.5463,0.013184
53.052,62.5352,0.013184
53.083,62.5253,0.012864
53.114,62.5155,0.012864
53.145,62.5069,0.012864
53.176,62.4989,0.012864
53.207,62.4918,0.012864
53.238,62.4852,0.012864
53.269,62.4794,0.012864
53.300,62.4743,0.012864
53.331,62.4701,0.012629
53.362,62.4665,0.012629
53.392,62.4637,0.012629
53.423,62.4616,0.012629
53.454,62.4601,0.012629
53.492,62.4593,0.012629
53.531,62.4593,0.012629
53.562,62.4593,0.012629
53.593,62.4593,0.012441
53.624,62.4593,0.012441
53.655,62.4594,0.012441
53.687,62.4602,0.012441
53.717,62.4617,0.012441
53.749,62.4638,0.012441
53.781,62.4670,0.012441
53.811,62.4705,0.012384
53.842,62.4748,0.012384
53.874,62.4800,0.012384
53.905,62.4857,0.012384
53.935,62.4924,0.012384
53.967,62.4999,0.012384
53.997,62.5077,0.012384
54.028,62.5162,0.012384
54.059,62.5258,0.012384
54.090,62.5360,0.012384
54.121,62.5468,0.012168
54.151,62.5584,0.012168
54.183,62.5708,0.012168
54.213,62.5838,0.012168
54.244,62.5975,0.012168
54.275,62.6122,0.012168
54.305,62.6269,0.012168
54.337,62.6431,0.011885
54.370,62.6610,0.011885
54.399,62.6772,0.011885
54.430,62.6957,0.011885
54.460,62.7141,0.011885
54.492,62.7343,0.011885
54.522,62.7544,0.011885
54.554,62.7753,0.011885
54.583,62.7968,0.011725
54.615,62.8197,0.011725
54.646,62.8427,0.011725
54.678,62.8680,0.011725
54.709,62.8922,0.011725
54.741,62.9192,0.011725
54.772,62.9444,0.011725
54.805,62.9739,0.011725
54.834,62.9987,0.011405
54.864,63.0264,0.011405
54.897,63.0577,0.011405
54.926,63.0854,0.011405
54.958,63.1180,0.011405
54.988,63.1468,0.011405
55.021,63.1824,0.011405
55.050,63.2114,0.011405
55.079,63.2443,0.011405
55.110,63.2781,0.010982
55.141,63.3120,0.010982
55.172,63.3478,0.010982
55.203,63.3840,0.010982
55.235,63.4227,0.010982
55.264,63.4581,0.010982
55.296,63.4978,0.010982
55.327,63.5363,0.010333
55.358,63.5762,0.010333
55.388,63.6161,0.010333
55.419,63.6579,0.010333
55.450,63.6993,0.010333
55.481,63.7422,0.010333
55.515,63.7902,0.010333
55.543,63.8314,0.009297
55.576,63.8779,0.009297
55.605,63.9206,0.009297
55.636,63.9679,0.009297
55.666,64.0128,0.009297
55.697,64.0613,0.009297
55.728,64.1092,0.009297
55.759,64.1602,0.009297
55.791,64.2102,0.009297
55.821,64.2588,0.009297
55.852,64.3116,0.007905
55.884,64.3648,0.007905
55.915,64.4195,0.007905
55.946,64.4726,0.007905
55.978,64.5282,0.007905
56.009,64.5826,0.007905
56.040,64.6387,0.007905
56.071,64.6977,0.007905
56.102,64.7541,0.005674
56.134,64.8145,0.005674
56.165,64.8727,0.005674
56.197,64.9342,0.005674
56.226,64.9904,0.005674
56.257,65.0503,0.005674
56.288,65.1078,0.005674
56.320,65.1685,0.005674
56.350,65.2236,0.001854
56.382,65.2835,0.001854
56.413,65.3378,0.001854
56.444,65.3942,0.001854
56.474,65.4462,0.001854
56.505,65.5010,0.001854
56.537,65.5540,0.001854
56.567,65.6060,0.001854
56.598,65.6584,-0.004329
56.628,65.7080,-0.004329
56.659,65.7556,-0.004329
56.689,65.8050,-0.004329
56.721,65.8540,-0.004329
56.752,65.9031,-0.004329
56.782,65.9477,-0.004329
56.812,65.9941,-0.004329
56.843,66.0402,-0.013993
56.874,66.0839,-0.013993
56.905,66.1289,-0.013993
56.938,66.1756,-0.013993
56.968,66.2166,-0.013993
56.999,66.2589,-0.013993
57.029,66.2985,-0.013993
57.061,66.3401,-0.013993
57.090,66.3785,-0.028466
57.122,66.4191,-0.028466
57.154,66.4587,-0.028466
57.185,66.4958,-0.028466
57.216,66.5339,-0.028466
57.247,66.5700,-0.028466
57.278,66.6074,-0.028466
57.309,66.6405,-0.028466
57.340,66.6750,-0.049132
57.371,66.7080,-0.049132
57.402,66.7400,-0.049132
57.433,66.7721,-0.049132
57.463,66.8026,-0.049132
57.493,66.8324,-0.049132
57.524,66.8622,-0.049132
57.556,66.8932,-0.049132
57.586,66.9191,-0.077316
57.617,66.9480,-0.077316
57.650,66.9763,-0.077316
57.680,67.0008,-0.077316
57.713,67.0288,-0.077316
57.741,67.0505,-0.077316
57.772,67.0750,-0.077316
57.802,67.0975,-0.077316
57.834,67.1205,-0.114863
57.864,67.1417,-0.114863
57.898,67.1653,-0.114863
57.925,67.1826,-0.114863
57.956,67.2022,-0.114863
57.987,67.2213,-0.114863
58.018,67.2396,-0.114863
58.052,67.2587,-0.114863
58.080,67.2737,-0.181545
58.110,67.2894,-0.181545
58.142,67.3049,-0.181545
58.173,67.3197,-0.181545
58.203,67.3333,-0.181545
58.234,67.3463,-0.181545
58.265,67.3587,-0.181545
58.300,67.3721,-0.181545
58.341,67.3863,-0.181545
58.369,67.3955,-0.302516
58.403,67.4052,-0.302516
58.433,67.4138,-0.302516
58.465,67.4217,-0.302516
58.496,67.4287,-0.302516
58.527,67.4350,-0.302516
58.557,67.4405,-0.302516
58.588,67.4454,-0.302516
58.621,67.4498,-0.466567
58.650,67.4530,-0.466567
58.682,67.4557,-0.466567
58.717,67.4578,-0.466567
58.744,67.4588,-0.466567
58.775,67.4593,-0.466567
58.808,67.4593,-0.466567
58.837,67.4593,-0.466567
58.868,67.4593,-0.567672
58.899,67.4593,-0.567672
58.926,67.4593,-0.567672
58.960,67.4593,-0.567672
58.991,67.4593,-0.567672
59.024,67.4593,-0.567672
59.054,67.4593,-0.567672
59.085,67.4593,-0.451774
59.116,67.4593,-0.451774
59.147,67.4593,-0.451774
59.178,67.4593,-0.451774
59.210,67.4593,-0.451774
59.240,67.4593,-0.451774
59.272,67.4593,-0.451774
59.302,67.4593,-0.451774
59.334,67.4593,-0.451774
59.364,67.4593,-0.280966
59.396,67.4593,-0.280966
59.426,67.4593,-0.280966
59.457,67.4593,-0.280966
59.489,67.4593,-0.280966
59.520,67.4593,-0.280966
59.550,67.4593,-0.280966
59.582,67.4593,-0.222989
59.612,67.4593,-0.222989
59.642,67.4593,-0.222989
59.674,67.4593,-0.222989
59.704,67.4593,-0.222989
59.739,67.4593,-0.222989
59.766,67.4593,-0.222989
59.796,67.4593,-0.222989
59.828,67.4593,-0.222989
59.859,67.4593,-0.199406
59.891,67.4593,-0.199406
59.922,67.4593,-0.199406
59.953,67.4593,-0.199406
59.985,67.4593,-0.199406
60.016,67.4593,-0.199406
60.047,67.4593,-0.199406
60.079,67.4593,-0.186166
60.109,67.4593,-0.186166
60.140,67.4593,-0.186166
60.171,67.4593,-0.186166
60.201,67.4593,-0.186166
60.232,67.4593,-0.186166
60.264,67.4593,-0.186166
60.294,67.4593,-0.186166
60.325,67.4593,-0.177320
60.357,67.4593,-0.177320
60.386,67.4593,-0.177320
60.418,67.4593,-0.177320
60.449,67.4593,-0.177320
60.485,67.4593,-0.177320
60.525,67.4593,-0.177320
60.556,67.4593,-0.177320
60.587,67.4593,-0.171222
60.617,67.4593,-0.171222
60.648,67.4593,-0.171222
60.678,67.4593,-0.171222
60.708,67.4593,-0.171222
60.743,67.4593,-0.171222
60.772,67.4593,-0.171222
60.803,67.4593,-0.171222
60.833,67.4593,-0.166272
60.868,67.4593,-0.166272
60.895,67.4593,-0.166272
60.927,67.4593,-0.166272
60.958,67.4593,-0.166272
60.989,67.4593,-0.166272
61.019,67.4593,-0.166272
61.050,67.4593,-0.166272
61.080,67.4593,-0.166272
61.113,67.4593,-0.162310
61.141,67.4593,-0.162310
61.173,67.4593,-0.162310
61.204,67.4593,-0.162310
61.237,67.4593,-0.162310
61.267,67.4593,-0.162310
61.297,67.4593,-0.162310
61.328,67.4593,-0.158791
61.363,67.4593,-0.158791
61.391,67.4593,-0.158791
61.423,67.4593,-0.158791
61.453,67.4593,-0.158791
61.485,67.4593,-0.158791
61.516,67.4593,-0.158791
61.547,67.4593,-0.158791
61.578,67.4593,-0.155761
61.609,67.4593,-0.155761
61.639,67.4593,-0.155761
61.670,67.4593,-0.155761
61.702,67.4593,-0.155761
61.732,67.4593,-0.155761
61.763,67.4593,-0.155761
61.795,67.4593,-0.155761
61.826,67.4593,-0.153436
61.860,67.4593,-0.153436
61.888,67.4593,-0.153436
61.920,67.4593,-0.153436
61.951,67.4593,-0.153436
61.982,67.4593,-0.153436
62.014,67.4593,-0.153436
62.046,67.4593,-0.153436
62.077,67.4593,-0.150792
62.108,67.4593,-0.150792
62.139,67.4593,-0.150792
62.170,67.4593,-0.150792
62.203,67.4593,-0.150792
62.232,67.4593,-0.150792
62.263,67.4593,-0.150792
62.294,67.4593,-0.149032
62.325,67.4593,-0.149032
62.355,67.4593,-0.149032
62.386,67.4593,-0.149032
62.416,67.4593,-0.149032
62.447,67.4593,-0.149032
62.478,67.4593,-0.149032
62.509,67.4593,-0.149032
62.540,67.4593,-0.149032
62.571,67.4593,-0.146934
62.602,67.4593,-0.146934
62.633,67.4593,-0.146934
62.664,67.4593,-0.146934
62.695,67.4593,-0.146934
62.727,67.4593,-0.146934
62.757,67.4593,-0.146934
62.787,67.4593,-0.146934
62.818,67.4593,-0.146934
62.849,67.4593,-0.143715
62.881,67.4593,-0.143715
62.911,67.4593,-0.143715
62.944,67.4593,-0.143715
62.974,67.4593,-0.143715
63.005,67.4593,-0.143715
63.036,67.4593,-0.143715
63.067,67.4593,-0.143715
63.098,67.4593,-0.140977
63.128,67.4590,-0.140977
63.160,67.4580,-0.140977
63.192,67.4561,-0.140977
63.222,67.4535,-0.140977
63.254,67.4501,-0.140977
63.285,67.4462,-0.140977
63.316,67.4413,-0.140977
63.347,67.4360,-0.128141
63.378,67.4296,-0.128141
63.410,67.4227,-0.128141
63.441,67.4148,-0.128141
63.471,67.4070,-0.128141
63.502,67.3977,-0.128141
63.532,67.3883,-0.128141
63.563,67.3773,-0.128141
63.594,67.3661,0.086736
63.625,67.3542,0.086736
63.656,67.3417,0.086736
63.687,67.3281,0.086736
63.719,67.3140,0.086736
63.749,67.2990,0.086736
63.781,67.2835,0.086736
63.812,67.2665,0.152128
63.842,67.2498,0.152128
63.874,67.2316,0.152128
63.905,67.2135,0.152128
63.937,67.1933,0.152128
63.968,67.1733,0.152128
63.999,67.1525,0.152128
64.032,67.1290,0.152128
64.061,67.1085,0.152128
64.093,67.0851,0.020110
64.122,67.0617,0.020110
64.155,67.0364,0.020110
64.185,67.0126,0.020110
64.216,66.9870,0.020110
64.247,66.9603,0.020110
64.281,66.9297,0.020110
64.310,66.9041,0.020110
64.341,66.8743,0.035957
64.372,66.8458,0.035957
64.403,66.8156,0.035957
64.433,66.7854,0.035957
64.464,66.7539,0.035957
64.495,66.7210,0.035957
64.526,66.6880,0.035957
64.557,66.6545,0.052538
64.589,66.6189,0.052538
64.620,66.5832,0.052538
64.651,66.5478,0.052538
64.681,66.5104,0.052538
64.713,66.4731,0.052538
64.743,66.4355,0.052538
64.774,66.3972,0.052538
64.806,66.3564,0.052538
64.837,66.3151,0.052538
64.868,66.2740,0.063115
64.899,66.2327,0.063115
64.930,66.1901,0.063115
64.961,66.1453,0.063115
64.992,66.1020,0.063115
65.023,66.0567,0.063115
65.053,66.0130,0.063115
65.085,65.9657,0.068564
65.116,65.9180,0.068564
65.146,65.8723,0.068564
65.179,65.8211,0.068564
65.209,65.7742,0.068564
65.239,65.7240,0.068564
65.271,65.6729,0.068564
65.305,65.6173,0.068564
65.333,65.5686,0.071792
65.365,65.5156,0.071792
65.395,65.4640,0.071792
65.426,65.4093,0.071792
65.456,65.3563,0.071792
65.488,65.2992,0.071792
65.517,65.2450,0.071792
65.548,65.1885,0.071792
65.579,65.1310,0.074333
65.611,65.0691,0.074333
65.640,65.0145,0.074333
65.674,64.9500,0.074333
65.703,64.8909,0.074333
65.736,64.8288,0.074333
65.766,64.7722,0.074333
65.797,64.7121,0.074333
65.829,64.6545,0.082934
65.861,64.5964,0.082934
65.892,64.5382,0.082934
65.923,64.4836,0.082934
65.954,64.4288,0.082934
65.985,64.3751,0.082934
66.016,64.3233,0.082934
66.047,64.2699,0.082934
66.077,64.2202,0.099515
66.108,64.1685,0.099515
66.139,64.1196,0.099515
66.169,64.0694,0.099515
66.200,64.0223,0.099515
66.233,63.9717,0.099515
66.263,63.9252,0.099515
66.298,63.8712,0.099515
66.326,63.8314,0.099515
66.357,63.7864,0.099515
66.386,63.7447,0.104211
66.418,63.6993,0.104211
66.448,63.6579,0.104211
66.478,63.6165,0.104211
66.510,63.5735,0.104211
66.542,63.5321,0.104211
66.572,63.4926,0.059201
66.605,63.4521,0.059201
66.635,63.4132,0.059201
66.666,63.3762,0.059201
66.697,63.3384,0.059201
66.728,63.3029,0.059201
66.762,63.2624,0.059201
66.790,63.2324,0.059201
66.824,63.1937,0.016863
66.852,63.1650,0.016863
66.883,63.1318,0.016863
66.914,63.0992,0.016863
66.947,63.0655,0.016863
66.976,63.0370,0.016863
67.007,63.0071,0.016863
67.038,62.9782,0.016863
67.068,62.9512,0.014652
67.098,62.9235,0.014652
67.129,62.8976,0.014652
67.160,62.8703,0.014652
67.194,62.8426,0.014652
67.223,62.8199,0.014652
67.252,62.7970,0.014652
67.284,62.7726,0.014652
67.315,62.7503,0.014652
67.346,62.7286,0.013852
67.384,62.7027,0.013852
67.425,62.6762,0.013852
67.456,62.6561,0.013852
67.487,62.6377,0.013852
67.518,62.6198,0.013852
67.551,62.6023,0.013852
67.581,62.5861,0.013344
67.612,62.5706,0.013344
67.643,62.5553,0.013344
67.674,62.5413,0.013344
67.705,62.5275,0.013344
67.736,62.5148,0.013344
67.767,62.5029,0.013344
67.799,62.4913,0.013344
67.831,62.4804,0.012977
67.862,62.4706,0.012977
67.892,62.4618,0.012977
67.925,62.4530,0.012977
67.954,62.4459,0.012977
67.984,62.4389,0.012977
68.015,62.4329,0.012977
68.045,62.4274,0.012977
68.076,62.4227,0.012977
68.107,62.4186,0.012666
68.138,62.4154,0.012666
68.168,62.4128,0.012666
68.198,62.4111,0.012666
68.230,62.4097,0.012666
68.262,62.4093,0.012666
68.292,62.4093,0.012666
68.324,62.4093,0.012478
68.356,62.4093,0.012478
68.387,62.4093,0.012478
68.419,62.4101,0.012478
68.450,62.4114,0.012478
68.480,62.4136,0.012478
68.511,62.4164,0.012478
68.542,62.4200,0.012478
68.573,62.4243,0.012384
68.604,62.4294,0.012384
68.639,62.4359,0.012384
68.667,62.4418,0.012384
68.697,62.4490,0.012384
68.728,62.4568,0.012384
68.759,62.4656,0.012384
68.790,62.4747,0.012384
68.822,62.4852,0.012177
68.852,62.4959,0.012177
68.883,62.5076,0.012177
68.914,62.5196,0.012177
68.947,62.5339,0.012177
68.976,62.5463,0.012177
69.007,62.5606,0.012177
69.037,62.5755,0.012177
69.069,62.5918,0.012177
69.099,62.6081,0.011951
69.129,62.6251,0.011951
69.160,62.6432,0.011951
69.190,62.6616,0.011951
69.221,62.6806,0.011951
69.252,62.7007,0.011951
69.283,62.7218,0.011951
69.314,62.7435,0.011763
69.345,62.7662,0.011763
69.376,62.7890,0.011763
69.406,62.8124,0.011763
69.437,62.8371,0.011763
69.467,62.8614,0.011763
69.498,62.8870,0.011763
69.529,62.9136,0.011763
69.559,62.9403,0.011481
69.591,62.9696,0.011481
69.620,62.9962,0.011481
69.650,63.0256,0.011481
69.680,63.0550,0.011481
69.712,63.0864,0.011481
69.743,63.1185,0.011481
69.774,63.1515,0.011481
69.805,63.1836,0.011029
69.836,63.2183,0.011029
69.867,63.2524,0.011029
69.897,63.2873,0.011029
69.929,63.3239,0.011029
69.959,63.3597,0.011029
69.992,63.4008,0.011029
70.023,63.4380,0.011029
70.053,63.4764,0.011029
70.088,63.5220,0.011029
70.116,63.5574,0.010295
70.147,63.5990,0.010295
70.181,63.6459,0.010295
70.211,63.6855,0.010295
70.241,63.7273,0.010295
70.271,63.7719,0.010295
70.303,63.8168,0.009260
70.334,63.8624,0.009260
70.367,63.9140,0.009260
70.397,63.9578,0.009260
70.427,64.0044,0.009260
70.458,64.0524,0.009260
70.489,64.1025,0.009260
70.520,64.1524,0.009260
70.551,64.2023,0.009260
70.582,64.2534,0.007801
70.613,64.3069,0.007801
70.644,64.3596,0.007801
70.678,64.4180,0.007801
70.707,64.4687,0.007801
70.737,64.5232,0.007801
70.768,64.5779,0.007801
70.799,64.6351,0.007801
70.830,64.6910,0.005467
70.861,64.7504,0.005467
70.892,64.8073,0.005467
70.922,64.8676,0.005467
70.953,64.9249,0.005467
70.984,64.9869,0.005467
71.014,65.0436,0.005467
71.045,65.1028,0.005467
71.076,65.1584,0.001581
71.107,65.2159,0.001581
71.138,65.2719,0.001581
71.167,65.3236,0.001581
71.198,65.3792,0.001581
71.229,65.4329,0.001581
71.261,65.4878,0.001581
71.292,65.5388,0.001581
71.323,65.5926,-0.004752
71.354,65.6419,-0.004752
71.385,65.6939,-0.004752
71.415,65.7418,-0.004752
71.447,65.7920,-0.004752
71.478,65.8400,-0.004752
71.508,65.8870,-0.004752
71.540,65.9333,-0.004752
71.572,65.9818,-0.014567
71.603,66.0262,-0.014567
71.634,66.0711,-0.014567
71.665,66.1144,-0.014567
71.695,66.1570,-0.014567
71.726,66.1990,-0.014567
71.757,66.2407,-0.014567
71.789,66.2831,-0.014567
71.820,66.3231,-0.014567
71.852,66.3627,-0.029257
71.882,66.4010,-0.029257
71.916,66.4415,-0.029257
71.944,66.4757,-0.029257
71.975,66.5120,-0.029257
72.006,66.5481,-0.029257
72.037,66.5827,-0.029257
72.067,66.6167,-0.050299
72.099,66.6516,-0.050299
72.132,66.6865,-0.050299
72.162,66.7177,-0.050299
72.194,66.7498,-0.050299
72.225,66.7800,-0.050299
72.256,66.8102,-0.050299
72.287,66.8395,-0.050299
72.319,66.8693,-0.050299
72.348,66.8946,-0.078991
72.380,66.9218,-0.078991
72.411,66.9492,-0.078991
72.444,66.9755,-0.078991
72.473,66.9994,-0.078991
72.508,67.0260,-0.078991
72.536,67.0474,-0.078991
72.570,67.0720,-0.117611
72.598,67.0920,-0.117611
72.632,67.1147,-0.117611
72.661,67.1338,-0.117611
72.691,67.1530,-0.117611
72.722,67.1718,-0.117611
72.753,67.1898,-0.117611
72.786,67.2089,-0.117611
72.817,67.2255,-0.187483
72.846,67.2403,-0.187483
72.877,67.2556,-0.187483
72.909,67.2704,-0.187483
72.943,67.2858,-0.187483
72.971,67.2975,-0.187483
73.002,67.3099,-0.187483
73.034,67.3219,-0.187483
73.064,67.3324,-0.312613
73.094,67.3426,-0.312613
73.125,67.3520,-0.312613
73.156,67.3606,-0.312613
73.187,67.3688,-0.312613
73.218,67.3760,-0.312613
73.250,67.3829,-0.312613
73.279,67.3884,-0.312613
73.310,67.3936,-0.312613
73.341,67.3981,-0.479092
73.375,67.4019,-0.479092
73.402,67.4046,-0.479092
73.434,67.4069,-0.479092
73.464,67.4084,-0.479092
73.495,67.4092,-0.479092
73.526,67.4093,-0.479092
73.556,67.4093,-0.479092
73.587,67.4093,-0.567202
73.618,67.4093,-0.567202
73.649,67.4093,-0.567202
73.680,67.4093,-0.567202
73.711,67.4093,-0.567202
73.741,67.4093,-0.567202
73.771,67.4093,-0.567202
73.802,67.4093,-0.567202
73.833,67.4093,-0.440086
73.864,67.4093,-0.440086
73.895,67.4093,-0.440086
73.927,67.4093,-0.440086
73.957,67.4093,-0.440086
73.988,67.4093,-0.440086
74.018,67.4093,-0.440086
74.049,67.4093,-0.440086
74.081,67.4093,-0.274134
74.111,67.4093,-0.274134
74.143,67.4093,-0.274134
74.176,67.4093,-0.274134
74.205,67.4093,-0.274134
74.236,67.4093,-0.274134
74.270,67.4093,-0.274134
74.297,67.4093,-0.274134
74.329,67.4093,-0.220344
74.359,67.4093,-0.220344
74.392,67.4093,-0.220344
74.421,67.4093,-0.220344
74.453,67.4093,-0.220344
74.484,67.4093,-0.220344
74.515,67.4093,-0.220344
74.546,67.4093,-0.220344
74.576,67.4093,-0.198173
74.608,67.4093,-0.198173
74.639,67.4093,-0.198173
74.669,67.4093,-0.198173
74.700,67.4093,-0.198173
74.732,67.4093,-0.198173
74.763,67.4093,-0.198173
74.793,67.4093,-0.198173
74.824,67.4093,-0.185149
74.855,67.4093,-0.185149
74.885,67.4093,-0.185149
74.916,67.4093,-0.185149
74.947,67.4093,-0.185149
74.978,67.4093,-0.185149
75.009,67.4093,-0.185149
75.039,67.4093,-0.185149
75.071,67.4093,-0.176642
75.101,67.4093,-0.176642
75.133,67.4093,-0.176642
75.164,67.4093,-0.176642
75.194,67.4093,-0.176642
75.225,67.4093,-0.176642
75.256,67.4093,-0.176642
75.287,67.4093,-0.176642
75.320,67.4093,-0.170337
75.349,67.4093,-0.170337
75.381,67.4093,-0.170337
75.411,67.4093,-0.170337
75.443,67.4093,-0.170337
75.474,67.4093,-0.170337
75.505,67.4093,-0.170337
75.536,67.4093,-0.170337
75.569,67.4093,-0.165585
75.598,67.4093,-0.165585
75.630,67.4093,-0.165585
75.660,67.4093,-0.165585
75.691,67.4093,-0.165585
75.721,67.4093,-0.165585
75.751,67.4093,-0.165585
75.782,67.4093,-0.165585
75.813,67.4093,-0.165585
75.845,67.4093,-0.161821
75.875,67.4093,-0.161821
75.905,67.4093,-0.161821
75.938,67.4093,-0.161821
75.968,67.4093,-0.161821
76.003,67.4093,-0.161821
76.030,67.4093,-0.161821
76.062,67.4093,-0.161821
76.093,67.4093,-0.158367
76.128,67.4093,-0.158367
76.155,67.4093,-0.158367
76.186,67.4093,-0.158367
76.218,67.4093,-0.158367
76.249,67.4093,-0.158367
76.280,67.4093,-0.158367
76.312,67.4093,-0.158367
76.342,67.4093,-0.155422
76.374,67.4093,-0.155422
76.405,67.4093,-0.155422
76.436,67.4093,-0.155422
76.467,67.4093,-0.155422
76.497,67.4093,-0.155422
76.523,67.4093,-0.155422
76.559,67.4093,-0.155422
76.590,67.4093,-0.155422
76.620,67.4093,-0.152900
76.654,67.4093,-0.152900
76.683,67.4093,-0.152900
76.714,67.4093,-0.152900
76.745,67.4093,-0.152900
76.776,67.4093,-0.152900
76.807,67.4093,-0.150566
76.838,67.4093,-0.150566
76.870,67.4093,-0.150566
76.901,67.4093,-0.150566
76.932,67.4093,-0.150566
76.963,67.4093,-0.150566
76.994,67.4093,-0.150566
77.025,67.4093,-0.150566
77.056,67.4093,-0.150566
77.087,67.4093,-0.150566
77.118,67.4093,-0.148778
77.149,67.4093,-0.148778
77.180,67.4093,-0.148778
77.211,67.4093,-0.148778
77.241,67.4093,-0.148778
77.272,67.4093,-0.148778
77.303,67.4093,-0.148778
77.334,67.4093,-0.148778
77.365,67.4093,-0.146783
77.397,67.4093,-0.146783
77.428,67.4093,-0.146783
77.459,67.4093,-0.146783
77.491,67.4093,-0.146783
77.521,67.4093,-0.146783
77.555,67.4093,-0.146783
77.583,67.4093,-0.146783
77.614,67.4093,-0.144007
77.646,67.4093,-0.144007
77.675,67.4093,-0.144007
77.706,67.4093,-0.144007
77.737,67.4093,-0.144007
77.763,67.4093,-0.144007
77.799,67.4093,-0.144007
77.831,67.4093,-0.144007
77.862,67.4093,-0.140676
77.892,67.4088,-0.140676
77.923,67.4076,-0.140676
77.955,67.4055,-0.140676
77.988,67.4026,-0.140676
78.018,67.3992,-0.140676
78.047,67.3952,-0.140676
78.078,67.3904,-0.129628
78.110,67.3847,-0.129628
78.140,67.3786,-0.129628
78.174,67.3705,-0.129628
78.202,67.3636,-0.129628
78.233,67.3550,-0.129628
78.264,67.3453,-0.129628
78.296,67.3354,-0.129628
78.326,67.3249,0.098734
78.358,67.3132,0.098734
78.389,67.3013,0.098734
78.421,67.2876,0.098734
78.452,67.2743,0.098734
78.483,67.2594,0.098734
78.514,67.2450,0.098734
78.545,67.2285,0.098734
78.576,67.2123,0.165802
78.607,67.1947,0.165802
78.639,67.1767,0.165802
78.669,67.1581,0.165802
78.700,67.1381,0.165802
78.731,67.1185,0.165802
78.762,67.0979,0.165802
78.793,67.0755,0.165802
78.824,67.0535,0.165802
78.856,67.0297,0.019988
78.886,67.0069,0.019988
78.917,66.9816,0.019988
78.948,66.9569,0.019988
78.979,66.9309,0.019988
79.010,66.9038,0.019988
79.041,66.8767,0.019988
79.072,66.8488,0.035750
79.103,66.8192,0.035750
79.133,66.7901,0.035750
79.166,66.7585,0.035750
79.196,66.7282,0.035750
79.228,66.6956,0.035750
79.260,66.6620,0.035750
79.291,66.6281,0.035750
79.323,66.5922,0.052576
79.354,66.5580,0.052576
79.385,66.5227,0.052576
79.416,66.4865,0.052576
79.447,66.4496,0.052576
79.478,66.4122,0.052576
79.509,66.3740,0.052576
79.540,66.3346,0.052576
79.571,66.2946,0.063511
79.602,66.2537,0.063511
79.633,66.2129,0.063511
79.663,66.1710,0.063511
79.695,66.1271,0.063511
79.726,66.0846,0.063511
79.758,66.0388,0.063511
79.788,65.9939,0.063511
79.819,65.9493,0.069091
79.849,65.9041,0.069091
79.880,65.8571,0.069091
79.911,65.8097,0.069091
79.942,65.7595,0.069091
79.973,65.7110,0.069091
80.004,65.6599,0.069091
80.036,65.6084,0.069091
80.066,65.5577,0.072215
80.102,65.4968,0.072215
80.142,65.4281,0.072215
80.174,65.3723,0.072215
80.208,65.3126,0.072215
80.236,65.2629,0.072215
80.267,65.2071,0.072215
80.298,65.1498,0.074540
80.332,65.0853,0.074540
80.361,65.0308,0.074540
80.392,64.9732,0.074540
80.423,64.9135,0.074540
80.453,64.8521,0.074540
80.485,64.7926,0.074540
80.518,64.7280,0.074540
80.547,64.6752,0.074540
80.578,64.6179,0.083273
80.609,64.5592,0.083273
80.640,64.5043,0.083273
80.670,64.4498,0.083273
80.701,64.3941,0.083273
80.732,64.3425,0.083273
80.763,64.2874,0.083273
80.794,64.2353,0.083273
80.825,64.1826,0.083273
80.857,64.1310,0.099835
80.888,64.0809,0.099835
80.920,64.0282,0.099835
80.951,63.9803,0.099835
80.981,63.9342,0.099835
81.011,63.8870,0.099835
81.044,63.8375,0.099835
81.075,63.7922,0.099835
81.105,63.7476,0.106036
81.136,63.7035,0.106036
81.167,63.6596,0.106036
81.199,63.6153,0.106036
81.229,63.5745,0.106036
81.259,63.5335,0.106036
81.290,63.4922,0.106036
81.321,63.4515,0.106036
81.352,63.4126,0.060989
81.384,63.3729,0.060989
81.415,63.3352,0.060989
81.446,63.2973,0.060989
81.477,63.2606,0.060989
81.506,63.2269,0.060989
81.537,63.1924,0.060989
81.567,63.1579,0.060989
81.598,63.1254,0.016958
81.629,63.0923,0.016958
81.660,63.0601,0.016958
81.691,63.0285,0.016958
81.721,62.9978,0.016958
81.753,62.9677,0.016958
81.784,62.9379,0.016958
81.815,62.9093,0.016958
81.846,62.8812,0.014661
81.877,62.8536,0.014661
81.908,62.8279,0.014661
81.939,62.8019,0.014661
81.971,62.7766,0.014661
82.002,62.7521,0.014661
82.033,62.7281,0.014661
82.064,62.7054,0.014661
82.095,62.6832,0.013861
82.127,62.6614,0.013861
82.157,62.6414,0.013861
82.188,62.6215,0.013861
82.219,62.6022,0.013861
82.250,62.5841,0.013861
82.281,62.5662,0.013861
82.311,62.5494,0.013400
82.342,62.5335,0.013400
82.374,62.5172,0.013400
82.406,62.5021,0.013400
82.437,62.4880,0.013400
82.471,62.4735,0.013400
82.499,62.4623,0.013400
82.530,62.4503,0.013400
82.562,62.4387,0.013005
82.592,62.4286,0.013005
82.623,62.4193,0.013005
82.654,62.4102,0.013005
82.684,62.4021,0.013005
82.716,62.3945,0.013005
82.746,62.3879,0.013005
82.777,62.3816,0.013005
82.808,62.3763,0.012732
82.839,62.3716,0.012732
82.871,62.3678,0.012732
82.902,62.3646,0.012732
82.934,62.3622,0.012732
82.964,62.3606,0.012732
82.995,62.3596,0.012732
83.026,62.3594,0.012732
83.057,62.3594,0.012516
83.089,62.3594,0.012516
83.120,62.3594,0.012516
83.149,62.3594,0.012516
83.181,62.3594,0.012516
83.211,62.3599,0.012516
83.243,62.3611,0.012516
83.273,62.3630,0.012516
83.304,62.3657,0.012516
83.335,62.3690,0.012431
83.367,62.3734,0.012431
83.397,62.3781,0.012431
83.428,62.3835,0.012431
83.459,62.3900,0.012431
83.489,62.3968,0.012431
83.521,62.4045,0.012431
83.552,62.4132,0.012431
83.582,62.4221,0.012299
83.614,62.4325,0.012299
83.645,62.4428,0.012299
83.677,62.4547,0.012299
83.708,62.4668,0.012299
83.739,62.4797,0.012299
83.769,62.4929,0.012299
83.800,62.5074,0.012299
83.831,62.5221,0.012074
83.865,62.5397,0.012074
83.894,62.5547,0.012074
83.926,62.5729,0.012074
83.958,62.5915,0.012074
83.987,62.6093,0.012074
84.018,62.6285,0.012074
84.050,62.6488,0.011923
84.080,62.6694,0.011923
84.111,62.6904,0.011923
84.142,62.7138,0.011923
84.173,62.7363,0.011923
84.204,62.7598,0.011923
84.235,62.7850,0.011923
84.266,62.8099,0.011923
84.298,62.8365,0.011923
84.329,62.8638,0.011612
84.358,62.8893,0.011612
84.390,62.9180,0.011612
84.421,62.9465,0.011612
84.452,62.9769,0.011612
84.484,63.0073,0.011612
84.515,63.0394,0.011612
84.546,63.0706,0.011612
84.579,63.1046,0.011612
84.608,63.1369,0.011180
84.641,63.1727,0.011180
84.671,63.2057,0.011180
84.702,63.2423,0.011180
84.734,63.2796,0.011180
84.763,63.3143,0.011180
84.794,63.3513,0.011180
84.825,63.3909,0.011180
84.856,63.4291,0.010521
84.888,63.4702,0.010521
84.921,63.5135,0.010521
84.949,63.5513,0.010521
84.983,63.5962,0.010521
85.011,63.6356,0.010521
85.044,63.6805,0.010521
85.075,63.7260,0.009504
85.110,63.7771,0.009504
85.136,63.8153,0.009504
85.167,63.8613,0.009504
85.199,63.9092,0.009504
85.230,63.9576,0.009504
85.261,64.0054,0.009504
85.291,64.0541,0.009504
85.322,64.1040,0.009504
85.353,64.1543,0.008187
85.384,64.2058,0.008187
85.415,64.2585,0.008187
85.445,64.3089,0.008187
85.475,64.3607,0.008187
85.506,64.4154,0.008187
85.539,64.4745,0.008187
85.568,64.5265,0.006145
85.601,64.5861,0.006145
85.631,64.6432,0.006145
85.662,64.6999,0.006145
85.694,64.7609,0.006145
85.724,64.8204,0.006145
85.756,64.8799,0.006145
85.787,64.9415,0.006145
85.820,65.0016,0.006145
85.849,65.0585,0.006145
85.884,65.1215,0.002625
85.911,65.1707,0.002625
85.942,65.2294,0.002625
85.973,65.2832,0.002625
86.004,65.3386,0.002625
86.035,65.3921,0.002625
86.067,65.4457,-0.003190
86.096,65.4960,-0.003190
86.128,65.5501,-0.003190
86.160,65.6008,-0.003190
86.191,65.6517,-0.003190
86.222,65.7012,-0.003190
86.252,65.7490,-0.003190
86.282,65.7944,-0.003190
86.313,65.8426,-0.003190
86.344,65.8883,-0.012262
86.375,65.9350,-0.012262
86.406,65.9800,-0.012262
86.437,66.0235,-0.012262
86.467,66.0670,-0.012262
86.497,66.1087,-0.012262
86.527,66.1500,-0.012262
86.560,66.1939,-0.012262
86.590,66.2338,-0.025879
86.621,66.2734,-0.025879
86.652,66.3120,-0.025879
86.683,66.3514,-0.025879
86.714,66.3890,-0.025879
86.744,66.4253,-0.025879
86.775,66.4613,-0.025879
86.805,66.4963,-0.025879
86.836,66.5315,-0.045518
86.867,66.5651,-0.045518
86.898,66.5988,-0.045518
86.929,66.6313,-0.045518
86.960,66.6643,-0.045518
86.991,66.6951,-0.045518
87.021,66.7261,-0.045518
87.053,66.7560,-0.072460
87.084,66.7864,-0.072460
87.115,66.8138,-0.072460
87.146,66.8417,-0.072460
87.177,66.8690,-0.072460
87.208,66.8951,-0.072460
87.238,66.9208,-0.072460
87.269,66.9451,-0.072460
87.300,66.9701,-0.072460
87.332,66.9930,-0.072460
87.363,67.0166,-0.108295
87.394,67.0380,-0.108295
87.425,67.0600,-0.108295
87.456,67.0798,-0.108295
87.486,67.0994,-0.108295
87.518,67.1186,-0.108295
87.548,67.1366,-0.108295
87.579,67.1540,-0.168747
87.609,67.1707,-0.168747
87.640,67.1870,-0.168747
87.672,67.2028,-0.168747
87.703,67.2176,-0.168747
87.735,67.2319,-0.168747
87.764,67.2448,-0.168747
87.796,67.2572,-0.168747
87.827,67.2693,-0.282302
87.857,67.2801,-0.282302
87.889,67.2908,-0.282302
87.921,67.3005,-0.282302
87.951,67.3093,-0.282302
87.981,67.3169,-0.282302
88.011,67.3243,-0.282302
88.041,67.3308,-0.282302
88.072,67.3370,-0.444236
88.104,67.3425,-0.444236
88.135,67.3471,-0.444236
88.171,67.3515,-0.444236
88.212,67.3554,-0.444236
88.243,67.3574,-0.444236
88.274,67.3587,-0.444236
88.305,67.3594,-0.444236
88.336,67.3594,-0.565169
88.367,67.3594,-0.565169
88.399,67.3594,-0.565169
88.431,67.3594,-0.565169
