Elapsed Time (s),Position (mm),Force (N)
-0.025,77.4094,-0.048906
0.007,77.4094,-0.048906
0.038,77.4094,-0.048906
0.069,77.4094,-0.048906
0.101,77.4094,-0.048906
0.130,77.4094,-0.048906
0.162,77.4094,-0.046224
0.193,77.4094,-0.046224
0.224,77.4094,-0.046224
0.256,77.4094,-0.046224
0.286,77.4094,-0.046224
0.319,77.4094,-0.046224
0.349,77.4094,-0.046224
0.379,77.4094,-0.042827
0.410,77.4094,-0.042827
0.442,77.4094,-0.042827
0.472,77.4094,-0.042827
0.503,77.4094,-0.042827
0.534,77.4094,-0.042827
0.565,77.4094,-0.042827
0.596,77.4094,-0.042827
0.626,77.4094,-0.042827
0.657,77.4094,-0.040531
0.694,77.4094,-0.040531
0.735,77.4094,-0.040531
0.766,77.4094,-0.040531
0.797,77.4094,-0.040531
0.829,77.4094,-0.040531
0.860,77.4094,-0.040531
0.890,77.4094,-0.040531
0.921,77.4094,-0.038827
0.952,77.4094,-0.038827
0.984,77.4094,-0.038827
1.015,77.4094,-0.038827
1.046,77.4094,-0.038827
1.078,77.4094,-0.038827
1.109,77.4094,-0.038827
1.140,77.4094,-0.037416
1.171,77.4094,-0.037416
1.202,77.4094,-0.037416
1.233,77.4094,-0.037416
1.265,77.4094,-0.037416
1.298,77.4094,-0.037416
1.327,77.4094,-0.037416
1.359,77.4094,-0.037416
1.391,77.4094,-0.037416
1.421,77.4094,-0.036277
1.452,77.4094,-0.036277
1.482,77.4094,-0.036277
1.512,77.4094,-0.036277
1.542,77.4094,-0.036277
1.574,77.4094,-0.036277
1.605,77.4094,-0.036277
1.637,77.4094,-0.035345
1.668,77.4094,-0.035345
1.699,77.4094,-0.035345
1.730,77.4094,-0.035345
1.761,77.4094,-0.035345
1.792,77.4094,-0.035345
1.823,77.4094,-0.035345
1.854,77.4094,-0.035345
1.884,77.4094,-0.035345
1.915,77.4094,-0.034498
1.945,77.4094,-0.034498
1.977,77.4094,-0.034498
2.007,77.4094,-0.034498
2.037,77.4094,-0.034498
2.068,77.4094,-0.034498
2.099,77.4094,-0.034498
2.130,77.4094,-0.033755
2.161,77.4094,-0.033755
2.192,77.4094,-0.033755
2.223,77.4094,-0.033755
2.255,77.4094,-0.033755
2.286,77.4094,-0.033755
2.317,77.4094,-0.033755
2.348,77.4094,-0.033755
2.380,77.4094,-0.033755
2.411,77.4094,-0.033115
2.442,77.4094,-0.033115
2.473,77.4094,-0.033115
2.505,77.4094,-0.033115
2.535,77.4094,-0.033115
2.566,77.4094,-0.033115
2.597,77.4094,-0.033115
2.629,77.4094,-0.032541
2.660,77.4094,-0.032541
2.690,77.4094,-0.032541
2.722,77.4094,-0.032541
2.754,77.4094,-0.032541
2.784,77.4094,-0.032541
2.815,77.4094,-0.032541
2.847,77.4094,-0.032541
2.877,77.4094,-0.032024
2.909,77.4094,-0.032024
2.938,77.4094,-0.032024
2.970,77.4094,-0.032024
3.000,77.4094,-0.032024
3.031,77.4094,-0.032024
3.061,77.4094,-0.032024
3.092,77.4094,-0.032024
3.123,77.4094,-0.031506
3.156,77.4094,-0.031506
3.185,77.4094,-0.031506
3.218,77.4094,-0.031506
3.249,77.4094,-0.031506
3.280,77.4094,-0.031506
3.311,77.4094,-0.031506
3.341,77.4094,-0.031506
3.372,77.4094,-0.031054
3.403,77.4094,-0.031054
3.434,77.4094,-0.031054
3.465,77.4094,-0.031054
3.496,77.4094,-0.031054
3.528,77.4094,-0.031054
3.558,77.4094,-0.031054
3.589,77.4094,-0.031054
3.619,77.4094,-0.030650
3.651,77.4094,-0.030650
3.681,77.4094,-0.030650
3.713,77.4094,-0.030650
3.744,77.4094,-0.030650
3.775,77.4094,-0.030650
3.808,77.4094,-0.030650
3.837,77.4094,-0.030650
3.869,77.4094,-0.030254
3.898,77.4094,-0.030254
3.930,77.4094,-0.030254
3.962,77.4094,-0.030254
3.993,77.4094,-0.030254
4.026,77.4094,-0.030254
4.055,77.4094,-0.030254
4.086,77.4094,-0.030254
4.117,77.4094,-0.030254
4.148,77.4094,-0.029850
4.179,77.4094,-0.029850
4.210,77.4091,-0.029850
4.241,77.4080,-0.029850
4.273,77.4063,-0.029850
4.303,77.4038,-0.029850
4.335,77.4004,-0.029850
4.365,77.3966,-0.029464
4.397,77.3917,-0.029464
4.428,77.3863,-0.029464
4.458,77.3805,-0.029464
4.489,77.3736,-0.029464
4.520,77.3661,-0.029464
4.551,77.3576,-0.029464
4.583,77.3483,-0.029464
4.615,77.3382,-0.029464
4.645,77.3280,-0.029464
4.676,77.3170,-0.025257
4.707,77.3052,-0.025257
4.738,77.2922,-0.025257
4.768,77.2794,-0.025257
4.799,77.2651,-0.025257
4.830,77.2505,-0.025257
4.861,77.2346,-0.025257
4.893,77.2182,-0.014125
4.925,77.2005,-0.014125
4.955,77.1834,-0.014125
4.986,77.1644,-0.014125
5.017,77.1448,-0.014125
5.049,77.1242,-0.014125
5.079,77.1046,-0.014125
5.111,77.0829,-0.014125
5.141,77.0611,0.000066
5.173,77.0374,0.000066
5.203,77.0145,0.000066
5.235,76.9898,0.000066
5.265,76.9653,0.000066
5.296,76.9388,0.000066
5.327,76.9130,0.000066
5.358,76.8854,0.000066
5.389,76.8583,0.012309
5.420,76.8279,0.012309
5.450,76.8000,0.012309
5.481,76.7704,0.012309
5.512,76.7399,0.012309
5.543,76.7079,0.012309
5.573,76.6758,0.012309
5.604,76.6439,0.012309
5.635,76.6105,0.020044
5.671,76.5701,0.020044
5.698,76.5391,0.020044
5.728,76.5045,0.020044
5.759,76.4679,0.020044
5.789,76.4311,0.020044
5.821,76.3927,0.020044
5.852,76.3534,0.020044
5.883,76.3136,0.025041
5.916,76.2697,0.025041
5.946,76.2316,0.025041
5.978,76.1875,0.025041
6.008,76.1465,0.025041
6.039,76.1036,0.025041
6.070,76.0606,0.025041
6.100,76.0168,0.025041
6.130,75.9725,0.031092
6.162,75.9254,0.031092
6.192,75.8796,0.031092
6.223,75.8315,0.031092
6.254,75.7823,0.031092
6.290,75.7266,0.031092
6.316,75.6852,0.031092
6.348,75.6327,0.031092
6.378,75.5832,0.037604
6.409,75.5311,0.037604
6.440,75.4788,0.037604
6.471,75.4256,0.037604
6.502,75.3707,0.037604
6.533,75.3163,0.037604
6.565,75.2605,0.037604
6.595,75.2046,0.037604
6.627,75.1472,0.040747
6.657,75.0887,0.040747
6.689,75.0306,0.040747
6.720,74.9717,0.040747
6.750,74.9125,0.040747
6.782,74.8509,0.040747
6.813,74.7912,0.040747
6.845,74.7291,0.040747
6.876,74.6717,0.040747
6.909,74.6085,0.024768
6.937,74.5581,0.024768
6.968,74.5020,0.024768
6.999,74.4467,0.024768
7.031,74.3910,0.024768
7.063,74.3356,0.024768
7.093,74.2826,0.024768
7.124,74.2304,0.007895
7.155,74.1787,0.007895
7.187,74.1265,0.007895
7.219,74.0747,0.007895
7.249,74.0270,0.007895
7.280,73.9777,0.007895
7.311,73.9290,0.007895
7.341,73.8819,0.007895
7.372,73.8351,0.007895
7.403,73.7887,0.007095
7.434,73.7437,0.007095
7.465,73.7009,0.007095
7.496,73.6558,0.007095
7.528,73.6119,0.007095
7.558,73.5707,0.007095
7.589,73.5298,0.007095
7.620,73.4886,0.006870
7.652,73.4471,0.006870
7.683,73.4071,0.006870
7.715,73.3672,0.006870
7.745,73.3321,0.006870
7.777,73.2929,0.006870
7.807,73.2579,0.006870
7.838,73.2208,0.006870
7.869,73.1870,0.006747
7.899,73.1531,0.006747
7.932,73.1181,0.006747
7.962,73.0853,0.006747
7.992,73.0545,0.006747
8.024,73.0223,0.006747
8.054,72.9918,0.006747
8.086,72.9620,0.006747
8.117,72.9320,0.006747
8.148,72.9040,0.006681
8.180,72.8754,0.006681
8.210,72.8495,0.006681
8.241,72.8228,0.006681
8.272,72.7973,0.006681
8.303,72.7717,0.006681
8.334,72.7477,0.006681
8.365,72.7242,0.006681
8.396,72.7023,0.006606
8.428,72.6796,0.006606
8.458,72.6586,0.006606
8.490,72.6374,0.006606
8.521,72.6181,0.006606
8.552,72.5987,0.006606
8.582,72.5812,0.006606
8.616,72.5619,0.006606
8.644,72.5465,0.006503
8.675,72.5303,0.006503
8.706,72.5153,0.006503
8.737,72.5003,0.006503
8.768,72.4864,0.006503
8.799,72.4731,0.006503
8.830,72.4606,0.006503
8.861,72.4487,0.006503
8.892,72.4379,0.006474
8.923,72.4276,0.006474
8.954,72.4180,0.006474
8.985,72.4092,0.006474
9.016,72.4008,0.006474
9.046,72.3938,0.006474
9.077,72.3869,0.006474
9.108,72.3811,0.006474
9.139,72.3759,0.006437
9.171,72.3711,0.006437
9.201,72.3676,0.006437
9.232,72.3645,0.006437
9.263,72.3621,0.006437
9.295,72.3604,0.006437
9.326,72.3595,0.006437
9.358,72.3594,0.006437
9.390,72.3594,0.006371
9.421,72.3594,0.006371
9.452,72.3594,0.006371
9.490,72.3594,0.006371
9.529,72.3594,0.006371
9.561,72.3597,0.006371
9.591,72.3610,0.006371
9.623,72.3628,0.006371
9.651,72.3652,0.006371
9.685,72.3688,0.006371
9.720,72.3734,0.006371
9.747,72.3776,0.006371
9.778,72.3832,0.006371
9.810,72.3896,0.006371
9.841,72.3966,0.006371
9.872,72.4046,0.006239
9.903,72.4129,0.006239
9.934,72.4222,0.006239
9.965,72.4320,0.006239
9.996,72.4426,0.006239
10.026,72.4537,0.006239
10.058,72.4660,0.006239
10.089,72.4787,0.006239
10.120,72.4923,0.006164
10.150,72.5065,0.006164
10.180,72.5208,0.006164
10.211,72.5367,0.006164
10.242,72.5532,0.006164
10.274,72.5705,0.006164
10.304,72.5877,0.006164
10.334,72.6059,0.006164
10.364,72.6250,0.006145
10.395,72.6444,0.006145
10.426,72.6658,0.006145
10.458,72.6872,0.006145
10.489,72.7099,0.006145
10.520,72.7324,0.006145
10.551,72.7562,0.006145
10.581,72.7799,0.006145
10.613,72.8063,0.006070
10.644,72.8318,0.006070
10.675,72.8584,0.006070
10.706,72.8850,0.006070
10.737,72.9139,0.006070
10.767,72.9423,0.006070
10.799,72.9715,0.006070
10.830,73.0026,0.006070
10.862,73.0333,0.005994
10.893,73.0652,0.005994
10.924,73.0985,0.005994
10.955,73.1313,0.005994
10.986,73.1649,0.005994
11.017,73.1997,0.005994
11.048,73.2348,0.005994
11.079,73.2716,0.005994
11.109,73.3070,0.005994
11.141,73.3449,0.005825
11.172,73.3840,0.005825
11.202,73.4220,0.005825
11.230,73.4565,0.005825
11.264,73.5014,0.005825
11.295,73.5423,0.005825
11.326,73.5855,0.005825
11.357,73.6278,0.005684
11.388,73.6708,0.005684
11.420,73.7156,0.005684
11.451,73.7602,0.005684
11.482,73.8060,0.005684
11.512,73.8515,0.005684
11.543,73.8981,0.005684
11.574,73.9445,0.005684
11.605,73.9936,0.005684
11.636,74.0431,0.005430
11.668,74.0947,0.005430
11.699,74.1442,0.005430
11.730,74.1963,0.005430
11.760,74.2473,0.005430
11.792,74.3021,0.005430
11.823,74.3553,0.005430
11.854,74.4077,0.005006
11.885,74.4640,0.005006
11.917,74.5215,0.005006
11.947,74.5779,0.005006
11.979,74.6345,0.005006
12.010,74.6950,0.005006
12.041,74.7520,0.005006
12.072,74.8112,0.005006
12.103,74.8723,0.005006
12.134,74.9304,0.005006
12.165,74.9903,0.004602
12.195,75.0460,0.004602
12.226,75.1050,0.004602
12.258,75.1635,0.004602
12.289,75.2200,0.004602
12.320,75.2740,0.004602
12.351,75.3287,0.004602
12.382,75.3831,0.004602
12.413,75.4363,0.004206
12.444,75.4898,0.004206
12.475,75.5412,0.004206
12.506,75.5927,0.004206
12.538,75.6429,0.004206
12.569,75.6926,0.004206
12.600,75.7415,0.004206
12.630,75.7899,0.004206
12.661,75.8357,0.003651
12.693,75.8841,0.003651
12.724,75.9295,0.003651
12.755,75.9749,0.003651
12.785,76.0187,0.003651
12.816,76.0623,0.003651
12.847,76.1051,0.003651
12.878,76.1475,0.003651
12.908,76.1883,0.002738
12.941,76.2314,0.002738
12.970,76.2693,0.002738
13.002,76.3096,0.002738
13.032,76.3473,0.002738
13.064,76.3863,0.002738
13.094,76.4230,0.002738
13.125,76.4600,0.002738
13.155,76.4942,0.001045
13.187,76.5305,0.001045
13.218,76.5638,0.001045
13.249,76.5985,0.001045
13.280,76.6316,0.001045
13.310,76.6629,0.001045
13.341,76.6944,0.001045
13.373,76.7251,0.001045
13.404,76.7554,0.001045
13.436,76.7853,-0.002531
13.466,76.8132,-0.002531
13.498,76.8413,-0.002531
13.528,76.8681,-0.002531
13.559,76.8944,-0.002531
13.591,76.9207,-0.002531
13.622,76.9459,-0.002531
13.653,76.9703,-0.009448
13.685,76.9942,-0.009448
13.715,77.0166,-0.009448
13.746,77.0383,-0.009448
13.777,77.0595,-0.009448
13.808,77.0804,-0.009448
13.839,77.0999,-0.009448
13.870,77.1193,-0.009448
13.900,77.1370,-0.020082
13.932,77.1545,-0.020082
13.963,77.1717,-0.020082
13.996,77.1888,-0.020082
14.025,77.2036,-0.020082
14.056,77.2177,-0.020082
14.087,77.2322,-0.020082
14.118,77.2450,-0.020082
14.149,77.2582,-0.032428
14.181,77.2702,-0.032428
14.212,77.2812,-0.032428
14.244,77.2917,-0.032428
14.274,77.3010,-0.032428
14.305,77.3098,-0.032428
14.335,77.3176,-0.032428
14.367,77.3251,-0.032428
14.396,77.3316,-0.042874
14.428,77.3377,-0.042874
14.458,77.3428,-0.042874
14.489,77.3473,-0.042874
14.520,77.3512,-0.042874
14.551,77.3543,-0.042874
14.582,77.3566,-0.042874
14.613,77.3583,-0.042874
14.644,77.3591,-0.048501
14.676,77.3594,-0.048501
14.706,77.3594,-0.048501
14.737,77.3594,-0.048501
14.768,77.3594,-0.048501
14.800,77.3594,-0.048501
14.830,77.3594,-0.048501
14.861,77.3594,-0.048501
14.892,77.3594,-0.048068
14.923,77.3594,-0.048068
14.955,77.3594,-0.048068
14.986,77.3594,-0.048068
15.018,77.3594,-0.048068
15.048,77.3594,-0.048068
15.080,77.3594,-0.048068
15.112,77.3594,-0.048068
15.140,77.3594,-0.044558
15.171,77.3594,-0.044558
15.201,77.3594,-0.044558
15.236,77.3594,-0.044558
15.263,77.3594,-0.044558
15.293,77.3594,-0.044558
15.325,77.3594,-0.044558
15.362,77.3594,-0.044558
15.401,77.3594,-0.041735
15.432,77.3594,-0.041735
15.463,77.3594,-0.041735
15.494,77.3594,-0.041735
15.525,77.3594,-0.041735
15.556,77.3594,-0.041735
15.586,77.3594,-0.041735
15.618,77.3594,-0.039759
15.649,77.3594,-0.039759
15.681,77.3594,-0.039759
15.713,77.3594,-0.039759
15.744,77.3594,-0.039759
15.775,77.3594,-0.039759
15.807,77.3594,-0.039759
15.840,77.3594,-0.039759
15.869,77.3594,-0.039759
15.900,77.3594,-0.038159
15.932,77.3594,-0.038159
15.963,77.3594,-0.038159
15.995,77.3594,-0.038159
16.025,77.3594,-0.038159
16.057,77.3594,-0.038159
16.088,77.3594,-0.038159
16.119,77.3594,-0.038159
16.149,77.3594,-0.036870
16.181,77.3594,-0.036870
16.213,77.3594,-0.036870
16.244,77.3594,-0.036870
16.275,77.3594,-0.036870
16.306,77.3594,-0.036870
16.338,77.3594,-0.036870
16.368,77.3594,-0.035863
16.399,77.3594,-0.035863
16.431,77.3594,-0.035863
16.462,77.3594,-0.035863
16.492,77.3594,-0.035863
16.524,77.3594,-0.035863
16.554,77.3594,-0.035863
16.585,77.3594,-0.035863
16.615,77.3594,-0.035863
16.647,77.3594,-0.034960
16.678,77.3594,-0.034960
16.709,77.3594,-0.034960
16.740,77.3594,-0.034960
16.771,77.3594,-0.034960
16.802,77.3594,-0.034960
16.833,77.3594,-0.034960
16.864,77.3594,-0.034960
16.896,77.3594,-0.034169
16.927,77.3594,-0.034169
16.959,77.3594,-0.034169
16.989,77.3594,-0.034169
17.020,77.3594,-0.034169
17.051,77.3594,-0.034169
17.082,77.3594,-0.034169
17.114,77.3594,-0.033463
17.145,77.3594,-0.033463
17.176,77.3594,-0.033463
17.207,77.3594,-0.033463
17.238,77.3594,-0.033463
17.269,77.3594,-0.033463
17.300,77.3594,-0.033463
17.333,77.3594,-0.033463
17.362,77.3594,-0.032805
17.394,77.3594,-0.032805
17.424,77.3594,-0.032805
17.457,77.3594,-0.032805
17.487,77.3594,-0.032805
17.518,77.3594,-0.032805
17.549,77.3594,-0.032805
17.580,77.3594,-0.032805
17.610,77.3594,-0.032240
17.643,77.3594,-0.032240
17.672,77.3594,-0.032240
17.703,77.3594,-0.032240
17.734,77.3594,-0.032240
17.768,77.3594,-0.032240
17.796,77.3594,-0.032240
17.827,77.3594,-0.032240
17.859,77.3594,-0.032240
17.890,77.3594,-0.031751
17.920,77.3594,-0.031751
17.951,77.3594,-0.031751
17.983,77.3594,-0.031751
18.013,77.3594,-0.031751
18.044,77.3594,-0.031751
18.075,77.3594,-0.031751
18.106,77.3594,-0.031308
18.136,77.3594,-0.031308
18.167,77.3594,-0.031308
18.199,77.3594,-0.031308
18.229,77.3594,-0.031308
18.260,77.3594,-0.031308
18.292,77.3594,-0.031308
18.322,77.3594,-0.031308
18.353,77.3594,-0.031308
18.384,77.3594,-0.030857
18.415,77.3594,-0.030857
18.446,77.3594,-0.030857
18.477,77.3594,-0.030857
18.508,77.3594,-0.030857
18.538,77.3594,-0.030857
18.569,77.3594,-0.030857
18.600,77.3594,-0.030857
18.632,77.3594,-0.030396
18.663,77.3594,-0.030396
18.694,77.3594,-0.030396
18.724,77.3594,-0.030396
18.755,77.3594,-0.030396
18.787,77.3594,-0.030396
18.819,77.3594,-0.030396
18.850,77.3594,-0.030396
18.881,77.3594,-0.030396
18.912,77.3594,-0.029963
18.943,77.3590,-0.029963
18.974,77.3579,-0.029963
19.004,77.3560,-0.029963
19.035,77.3535,-0.029963
19.067,77.3501,-0.029963
19.097,77.3462,-0.029963
19.129,77.3413,-0.029963
19.160,77.3359,-0.029539
19.191,77.3296,-0.029539
19.222,77.3228,-0.029539
19.253,77.3148,-0.029539
19.284,77.3064,-0.029539
19.315,77.2976,-0.029539
19.346,77.2877,-0.029539
19.378,77.2768,-0.029539
19.408,77.2657,-0.024834
19.439,77.2538,-0.024834
19.470,77.2408,-0.024834
19.501,77.2274,-0.024834
19.533,77.2129,-0.024834
19.562,77.1990,-0.024834
19.593,77.1834,-0.024834
19.625,77.1664,-0.013118
19.656,77.1492,-0.013118
19.687,77.1315,-0.013118
19.717,77.1132,-0.013118
19.748,77.0935,-0.013118
19.780,77.0736,-0.013118
19.810,77.0533,-0.013118
19.841,77.0319,-0.013118
19.873,77.0094,-0.013118
19.903,76.9871,-0.013118
19.933,76.9634,0.001101
19.964,76.9400,0.001101
19.995,76.9140,0.001101
20.026,76.8888,0.001101
20.057,76.8622,0.001101
20.088,76.8351,0.001101
20.121,76.8050,0.001101
20.151,76.7773,0.013033
20.182,76.7472,0.013033
20.213,76.7171,0.013033
20.244,76.6859,0.013033
20.275,76.6543,0.013033
20.307,76.6217,0.013033
20.337,76.5893,0.013033
20.370,76.5543,0.013033
20.400,76.5202,0.020430
20.431,76.4841,0.020430
20.462,76.4490,0.020430
20.494,76.4111,0.020430
20.524,76.3743,0.020430
20.556,76.3352,0.020430
20.587,76.2965,0.020430
20.619,76.2552,0.020430
20.650,76.2146,0.025568
20.680,76.1746,0.025568
20.711,76.1333,0.025568
20.743,76.0896,0.025568
20.773,76.0466,0.025568
20.805,76.0004,0.025568
20.835,75.9580,0.025568
20.866,75.9120,0.025568
20.898,75.8655,0.031901
20.929,75.8169,0.031901
20.961,75.7678,0.031901
20.991,75.7210,0.031901
21.022,75.6720,0.031901
21.054,75.6213,0.031901
21.084,75.5714,0.031901
21.115,75.5204,0.031901
21.146,75.4685,0.038404
21.178,75.4149,0.038404
21.209,75.3617,0.038404
21.240,75.3073,0.038404
21.271,75.2516,0.038404
21.302,75.1957,0.038404
21.333,75.1385,0.038404
21.365,75.0798,0.040540
21.397,75.0205,0.040540
21.428,74.9609,0.040540
21.459,74.9015,0.040540
21.489,74.8417,0.040540
21.521,74.7813,0.040540
21.552,74.7218,0.040540
21.584,74.6622,0.040540
21.614,74.6046,0.024100
21.646,74.5447,0.024100
21.676,74.4901,0.024100
21.708,74.4335,0.024100
21.738,74.3793,0.024100
21.770,74.3228,0.024100
21.801,74.2701,0.024100
21.831,74.2180,0.024100
21.862,74.1655,0.024100
21.894,74.1131,0.007811
21.926,74.0605,0.007811
21.957,74.0105,0.007811
21.988,73.9603,0.007811
22.018,73.9126,0.007811
22.048,73.8670,0.007811
22.079,73.8200,0.007811
22.110,73.7721,0.007811
22.137,73.7333,0.007114
22.173,73.6810,0.007114
22.204,73.6357,0.007114
22.235,73.5932,0.007114
22.267,73.5492,0.007114
22.297,73.5084,0.007114
22.328,73.4670,0.007114
22.358,73.4278,0.006888
22.390,73.3862,0.006888
22.421,73.3462,0.006888
22.452,73.3085,0.006888
22.483,73.2697,0.006888
22.514,73.2331,0.006888
22.545,73.1965,0.006888
22.577,73.1607,0.006888
22.608,73.1245,0.006888
22.640,73.0906,0.006888
22.671,73.0565,0.006757
22.703,73.0243,0.006757
22.733,72.9928,0.006757
22.764,72.9616,0.006757
22.794,72.9319,0.006757
22.826,72.9013,0.006757
22.858,72.8718,0.006757
22.888,72.8433,0.006634
22.919,72.8158,0.006634
22.950,72.7894,0.006634
22.982,72.7627,0.006634
23.014,72.7366,0.006634
23.044,72.7126,0.006634
23.076,72.6886,0.006634
23.107,72.6653,0.006634
23.138,72.6431,0.006559
23.170,72.6207,0.006559
23.200,72.6002,0.006559
23.236,72.5773,0.006559
23.262,72.5600,0.006559
23.293,72.5414,0.006559
23.324,72.5236,0.006559
23.355,72.5061,0.006559
23.387,72.4896,0.006559
23.418,72.4732,0.006559
23.448,72.4588,0.006559
23.480,72.4438,0.006559
23.511,72.4303,0.006559
23.542,72.4175,0.006559
23.573,72.4056,0.006559
23.604,72.3937,0.006559
23.636,72.3826,0.006559
23.667,72.3726,0.006493
23.698,72.3635,0.006493
23.729,72.3550,0.006493
23.763,72.3466,0.006493
23.791,72.3403,0.006493
23.821,72.3341,0.006493
23.852,72.3284,0.006493
23.884,72.3234,0.006493
23.915,72.3192,0.006408
23.946,72.3157,0.006408
23.977,72.3131,0.006408
24.009,72.3111,0.006408
24.041,72.3099,0.006408
24.072,72.3094,0.006408
24.107,72.3094,0.006408
24.134,72.3094,0.006408
24.165,72.3094,0.006399
24.196,72.3094,0.006399
24.226,72.3096,0.006399
24.258,72.3105,0.006399
24.287,72.3120,0.006399
24.320,72.3145,0.006399
24.351,72.3174,0.006399
24.382,72.3214,0.006437
24.413,72.3259,0.006437
24.444,72.3312,0.006437
24.475,72.3370,0.006437
24.505,72.3436,0.006437
24.536,72.3511,0.006437
24.567,72.3592,0.006437
24.598,72.3682,0.006437
24.629,72.3778,0.006437
24.661,72.3883,0.006371
24.692,72.3997,0.006371
24.723,72.4113,0.006371
24.756,72.4250,0.006371
24.787,72.4377,0.006371
24.814,72.4499,0.006371
24.847,72.4662,0.006371
24.878,72.4814,0.006371
24.909,72.4975,0.006248
24.940,72.5143,0.006248
24.971,72.5319,0.006248
25.003,72.5509,0.006248
25.033,72.5697,0.006248
25.063,72.5891,0.006248
25.095,72.6099,0.006248
25.126,72.6311,0.006248
25.156,72.6524,0.006173
25.188,72.6755,0.006173
25.219,72.6993,0.006173
25.256,72.7281,0.006173
25.298,72.7619,0.006173
25.328,72.7880,0.006173
25.360,72.8153,0.006173
25.391,72.8422,0.006089
25.422,72.8706,0.006089
25.452,72.8987,0.006089
25.484,72.9300,0.006089
25.515,72.9599,0.006089
25.546,72.9916,0.006089
25.577,73.0225,0.006089
25.612,73.0597,0.006089
25.639,73.0881,0.006051
25.671,73.1246,0.006051
25.702,73.1584,0.006051
25.737,73.2010,0.006051
25.764,73.2294,0.006051
25.795,73.2676,0.006051
25.826,73.3058,0.006051
25.856,73.3419,0.006051
25.887,73.3809,0.006051
25.919,73.4220,0.005863
25.949,73.4608,0.005863
25.979,73.5019,0.005863
26.011,73.5447,0.005863
26.042,73.5878,0.005863
26.072,73.6300,0.005863
26.103,73.6733,0.005863
26.134,73.7189,0.005609
26.166,73.7662,0.005609
26.196,73.8113,0.005609
26.227,73.8579,0.005609
26.258,73.9054,0.005609
26.289,73.9558,0.005609
26.320,74.0033,0.005609
26.351,74.0543,0.005609
26.382,74.1043,0.005355
26.413,74.1563,0.005355
26.444,74.2072,0.005355
26.475,74.2610,0.005355
26.506,74.3146,0.005355
26.538,74.3716,0.005355
26.567,74.4225,0.005355
26.598,74.4783,0.005355
26.630,74.5356,0.005063
26.660,74.5936,0.005063
26.691,74.6501,0.005063
26.722,74.7092,0.005063
26.754,74.7706,0.005063
26.786,74.8329,0.005063
26.816,74.8898,0.005063
26.848,74.9503,0.005063
26.878,75.0066,0.004611
26.909,75.0642,0.004611
26.940,75.1214,0.004611
26.972,75.1790,0.004611
27.002,75.2327,0.004611
27.033,75.2878,0.004611
27.064,75.3419,0.004611
27.096,75.3962,0.004611
27.127,75.4487,0.004075
27.158,75.5006,0.004075
27.189,75.5504,0.004075
27.220,75.6008,0.004075
27.251,75.6503,0.004075
27.282,75.6993,0.004075
27.313,75.7478,0.004075
27.344,75.7956,0.004075
27.374,75.8402,0.003482
27.405,75.8867,0.003482
27.436,75.9311,0.003482
27.468,75.9776,0.003482
27.499,76.0200,0.003482
27.529,76.0628,0.003482
27.560,76.1049,0.003482
27.591,76.1462,0.003482
27.622,76.1870,0.002362
27.653,76.2273,0.002362
27.684,76.2666,0.002362
27.715,76.3055,0.002362
27.746,76.3428,0.002362
27.777,76.3800,0.002362
27.809,76.4168,0.002362
27.840,76.4540,0.002362
27.871,76.4879,0.000169
27.902,76.5221,0.000169
27.933,76.5557,0.000169
27.964,76.5886,0.000169
27.995,76.6203,0.000169
28.025,76.6503,0.000169
28.056,76.6810,0.000169
28.088,76.7115,0.000169
28.119,76.7410,0.000169
28.150,76.7698,-0.004197
28.181,76.7973,-0.004197
28.207,76.8199,-0.004197
28.242,76.8493,-0.004197
28.273,76.8751,-0.004197
28.304,76.8996,-0.004197
28.334,76.9231,-0.004197
28.365,76.9461,-0.012215
28.396,76.9694,-0.012215
28.427,76.9905,-0.012215
28.458,77.0125,-0.012215
28.489,77.0323,-0.012215
28.520,77.0524,-0.012215
28.551,77.0713,-0.012215
28.583,77.0901,-0.012215
28.614,77.1077,-0.023742
28.644,77.1240,-0.023742
28.675,77.1401,-0.023742
28.706,77.1554,-0.023742
28.737,77.1697,-0.023742
28.768,77.1835,-0.023742
28.799,77.1969,-0.023742
28.830,77.2091,-0.023742
28.861,77.2210,-0.023742
28.892,77.2321,-0.023742
28.924,77.2425,-0.036004
28.957,77.2528,-0.036004
28.986,77.2609,-0.036004
29.017,77.2690,-0.036004
29.051,77.2769,-0.036004
29.080,77.2828,-0.036004
29.110,77.2887,-0.036004
29.141,77.2936,-0.045349
29.173,77.2982,-0.045349
29.202,77.3017,-0.045349
29.233,77.3047,-0.045349
29.264,77.3069,-0.045349
29.297,77.3085,-0.045349
29.325,77.3093,-0.045349
29.357,77.3094,-0.045349
29.387,77.3094,-0.049094
29.419,77.3094,-0.049094
29.449,77.3094,-0.049094
29.481,77.3094,-0.049094
29.512,77.3094,-0.049094
29.542,77.3094,-0.049094
29.573,77.3094,-0.049094
29.604,77.3094,-0.047278
29.635,77.3094,-0.047278
29.666,77.3094,-0.047278
29.697,77.3094,-0.047278
29.729,77.3094,-0.047278
29.760,77.3094,-0.047278
29.791,77.3094,-0.047278
29.824,77.3094,-0.047278
29.854,77.3094,-0.047278
29.886,77.3094,-0.043730
29.916,77.3094,-0.043730
29.948,77.3094,-0.043730
29.981,77.3094,-0.043730
30.009,77.3094,-0.043730
30.041,77.3094,-0.043730
30.072,77.3094,-0.043730
30.103,77.3094,-0.043730
30.134,77.3094,-0.041199
30.165,77.3094,-0.041199
30.196,77.3094,-0.041199
30.226,77.3094,-0.041199
30.257,77.3094,-0.041199
30.288,77.3094,-0.041199
30.319,77.3094,-0.041199
30.350,77.3094,-0.041199
30.381,77.3094,-0.039307
30.413,77.3094,-0.039307
30.443,77.3094,-0.039307
30.475,77.3094,-0.039307
30.505,77.3094,-0.039307
30.535,77.3094,-0.039307
30.567,77.3094,-0.039307
30.597,77.3094,-0.039307
30.628,77.3094,-0.037858
30.659,77.3094,-0.037858
30.691,77.3094,-0.037858
30.721,77.3094,-0.037858
30.752,77.3094,-0.037858
30.782,77.3094,-0.037858
30.813,77.3094,-0.037858
30.845,77.3094,-0.037858
30.875,77.3094,-0.036710
30.906,77.3094,-0.036710
30.937,77.3094,-0.036710
30.968,77.3094,-0.036710
30.999,77.3094,-0.036710
31.030,77.3094,-0.036710
31.061,77.3094,-0.036710
31.093,77.3094,-0.036710
31.124,77.3094,-0.035741
31.154,77.3094,-0.035741
31.185,77.3094,-0.035741
31.216,77.3094,-0.035741
31.247,77.3094,-0.035741
31.280,77.3094,-0.035741
31.310,77.3094,-0.035741
31.341,77.3094,-0.035741
31.371,77.3094,-0.035741
31.402,77.3094,-0.034809
31.432,77.3094,-0.034809
31.464,77.3094,-0.034809
31.495,77.3094,-0.034809
31.526,77.3094,-0.034809
31.557,77.3094,-0.034809
31.588,77.3094,-0.034809
31.618,77.3094,-0.034009
31.650,77.3094,-0.034009
31.680,77.3094,-0.034009
31.712,77.3094,-0.034009
31.743,77.3094,-0.034009
31.775,77.3094,-0.034009
31.805,77.3094,-0.034009
31.837,77.3094,-0.034009
31.868,77.3094,-0.033379
31.899,77.3094,-0.033379
31.931,77.3094,-0.033379
31.961,77.3094,-0.033379
31.992,77.3094,-0.033379
32.023,77.3094,-0.033379
32.055,77.3094,-0.033379
32.086,77.3094,-0.033379
32.117,77.3094,-0.033379
32.148,77.3094,-0.032786
32.179,77.3094,-0.032786
32.210,77.3094,-0.032786
32.242,77.3094,-0.032786
32.274,77.3094,-0.032786
32.305,77.3094,-0.032786
32.337,77.3094,-0.032786
32.369,77.3094,-0.032786
32.399,77.3094,-0.032221
32.430,77.3094,-0.032221
32.461,77.3094,-0.032221
32.492,77.3094,-0.032221
32.522,77.3094,-0.032221
32.555,77.3094,-0.032221
32.584,77.3094,-0.032221
32.615,77.3094,-0.032221
32.646,77.3094,-0.031732
32.675,77.3094,-0.031732
32.705,77.3094,-0.031732
32.737,77.3094,-0.031732
32.768,77.3094,-0.031732
32.798,77.3094,-0.031732
32.829,77.3094,-0.031732
32.860,77.3094,-0.031732
32.890,77.3094,-0.031318
32.922,77.3094,-0.031318
32.952,77.3094,-0.031318
32.982,77.3094,-0.031318
33.013,77.3094,-0.031318
33.044,77.3094,-0.031318
33.075,77.3094,-0.031318
33.105,77.3094,-0.031318
33.136,77.3094,-0.030819
33.168,77.3094,-0.030819
33.199,77.3094,-0.030819
33.231,77.3094,-0.030819
33.262,77.3094,-0.030819
33.294,77.3094,-0.030819
33.324,77.3094,-0.030819
33.355,77.3094,-0.030819
33.387,77.3094,-0.030311
33.419,77.3094,-0.030311
33.449,77.3094,-0.030311
33.481,77.3094,-0.030311
33.511,77.3094,-0.030311
33.542,77.3094,-0.030311
33.573,77.3094,-0.030311
33.605,77.3094,-0.030311
33.635,77.3094,-0.029953
33.666,77.3090,-0.029953
33.697,77.3078,-0.029953
33.729,77.3059,-0.029953
33.759,77.3033,-0.029953
33.789,77.3001,-0.029953
33.821,77.2960,-0.029953
33.851,77.2913,-0.029953
33.882,77.2858,-0.029379
33.913,77.2797,-0.029379
33.944,77.2728,-0.029379
33.975,77.2651,-0.029379
34.005,77.2568,-0.029379
34.036,77.2477,-0.029379
34.069,77.2372,-0.029379
34.099,77.2269,-0.029379
34.131,77.2154,-0.023874
34.161,77.2033,-0.023874
34.192,77.1907,-0.023874
34.224,77.1772,-0.023874
34.254,77.1632,-0.023874
34.285,77.1479,-0.023874
34.316,77.1324,-0.023874
34.348,77.1159,-0.023874
34.378,77.0984,-0.011565
34.410,77.0808,-0.011565
34.448,77.0580,-0.011565
34.488,77.0326,-0.011565
34.519,77.0120,-0.011565
34.550,76.9904,-0.011565
34.581,76.9692,-0.011565
34.612,76.9461,-0.011565
34.643,76.9231,0.002531
34.675,76.8979,0.002531
34.705,76.8737,0.002531
34.741,76.8438,0.002531
34.769,76.8210,0.002531
34.800,76.7938,0.002531
34.830,76.7667,0.002531
34.861,76.7384,0.002531
34.891,76.7096,0.013965
34.923,76.6796,0.013965
34.954,76.6476,0.013965
34.985,76.6176,0.013965
35.016,76.5851,0.013965
35.048,76.5506,0.013965
35.079,76.5177,0.013965
35.109,76.4839,0.013965
35.141,76.4482,0.013965
35.171,76.4138,0.020788
35.202,76.3775,0.020788
35.232,76.3408,0.020788
35.264,76.3021,0.020788
35.295,76.2633,0.020788
35.326,76.2241,0.020788
35.356,76.1840,0.020788
35.387,76.1449,0.025775
35.418,76.1026,0.025775
35.448,76.0621,0.025775
35.479,76.0187,0.025775
35.510,75.9753,0.025775
35.541,75.9298,0.025775
35.572,75.8844,0.025775
35.604,75.8383,0.025775
35.635,75.7915,0.032193
35.665,75.7451,0.032193
35.696,75.6965,0.032193
35.728,75.6475,0.032193
35.758,75.5989,0.032193
35.790,75.5479,0.032193
35.820,75.4979,0.032193
35.852,75.4444,0.032193
35.881,75.3955,0.038526
35.913,75.3409,0.038526
35.943,75.2884,0.038526
35.975,75.2306,0.038526
36.007,75.1753,0.038526
36.037,75.1195,0.038526
36.069,75.0631,0.038526
36.100,75.0048,0.038526
36.131,74.9464,0.036973
36.162,74.8872,0.036973
36.193,74.8281,0.036973
36.224,74.7677,0.036973
36.254,74.7094,0.036973
36.285,74.6492,0.036973
36.316,74.5914,0.036973
36.348,74.5324,0.036973
36.379,74.4747,0.020383
36.411,74.4154,0.020383
36.442,74.3612,0.020383
36.472,74.3072,0.020383
36.504,74.2515,0.020383
36.536,74.1963,0.020383
36.566,74.1457,0.020383
36.597,74.0930,0.020383
36.629,74.0410,0.007557
36.659,73.9914,0.007557
36.690,73.9414,0.007557
36.721,73.8938,0.007557
36.752,73.8443,0.007557
36.784,73.7956,0.007557
36.814,73.7497,0.007557
36.845,73.7039,0.007557
36.876,73.6589,0.006983
36.906,73.6146,0.006983
36.938,73.5693,0.006983
36.969,73.5248,0.006983
37.000,73.4829,0.006983
37.030,73.4416,0.006983
37.061,73.4019,0.006983
37.092,73.3612,0.006983
37.123,73.3215,0.006785
37.154,73.2821,0.006785
37.185,73.2441,0.006785
37.215,73.2072,0.006785
37.247,73.1709,0.006785
37.277,73.1353,0.006785
37.308,73.1004,0.006785
37.338,73.0665,0.006785
37.369,73.0327,0.006785
37.400,72.9995,0.006738
37.431,72.9670,0.006738
37.462,72.9350,0.006738
37.492,72.9048,0.006738
37.524,72.8741,0.006738
37.555,72.8442,0.006738
37.586,72.8156,0.006738
37.616,72.7885,0.006681
37.646,72.7610,0.006681
37.677,72.7345,0.006681
37.707,72.7097,0.006681
37.739,72.6843,0.006681
37.770,72.6596,0.006681
37.800,72.6368,0.006681
37.832,72.6129,0.006681
37.862,72.5912,0.006681
37.894,72.5687,0.006550
37.924,72.5489,0.006550
37.955,72.5280,0.006550
37.989,72.5072,0.006550
38.017,72.4902,0.006550
38.050,72.4711,0.006550
38.079,72.4546,0.006550
38.110,72.4386,0.006550
38.142,72.4222,0.006550
38.173,72.4071,0.006503
38.205,72.3929,0.006503
38.236,72.3790,0.006503
38.266,72.3663,0.006503
38.298,72.3539,0.006503
38.329,72.3429,0.006503
38.367,72.3297,0.006503
38.406,72.3177,0.006521
38.437,72.3085,0.006521
38.468,72.3006,0.006521
38.499,72.2931,0.006521
38.530,72.2864,0.006521
38.561,72.2805,0.006521
38.593,72.2753,0.006521
38.624,72.2708,0.006361
38.655,72.2671,0.006361
38.686,72.2640,0.006361
38.717,72.2618,0.006361
38.748,72.2603,0.006361
38.780,72.2594,0.006361
38.811,72.2593,0.006361
38.843,72.2593,0.006361
38.874,72.2593,0.006296
38.904,72.2593,0.006296
38.936,72.2600,0.006296
38.967,72.2615,0.006296
38.997,72.2635,0.006296
39.030,72.2665,0.006296
39.059,72.2699,0.006296
39.089,72.2742,0.006296
39.121,72.2792,0.006352
39.152,72.2851,0.006352
39.184,72.2918,0.006352
39.215,72.2990,0.006352
39.246,72.3069,0.006352
39.278,72.3158,0.006352
39.309,72.3253,0.006352
39.339,72.3352,0.006352
39.371,72.3461,0.006286
39.401,72.3579,0.006286
39.432,72.3699,0.006286
39.463,72.3834,0.006286
39.495,72.3972,0.006286
39.526,72.4118,0.006286
39.556,72.4265,0.006286
39.587,72.4425,0.006286
39.617,72.4586,0.006192
39.648,72.4763,0.006192
39.679,72.4943,0.006192
39.709,72.5123,0.006192
39.740,72.5315,0.006192
39.772,72.5531,0.006192
39.801,72.5731,0.006192
39.834,72.5953,0.006192
39.864,72.6175,0.006126
39.892,72.6384,0.006126
39.927,72.6647,0.006126
39.957,72.6890,0.006126
39.988,72.7147,0.006126
40.019,72.7409,0.006126
40.049,72.7670,0.006126
40.074,72.7894,0.006126
40.111,72.8228,0.006070
40.142,72.8512,0.006070
40.174,72.8818,0.006070
40.204,72.9119,0.006070
40.236,72.9435,0.006070
40.266,72.9751,0.006070
40.298,73.0074,0.006070
40.331,73.0441,0.006070
40.359,73.0754,0.005966
40.390,73.1088,0.005966
40.420,73.1443,0.005966
40.453,73.1833,0.005966
40.482,73.2175,0.005966
40.512,73.2535,0.005966
40.543,73.2923,0.005966
40.574,73.3307,0.005966
40.601,73.3657,0.005966
40.636,73.4113,0.005966
40.667,73.4528,0.005797
40.698,73.4941,0.005797
40.729,73.5376,0.005797
40.759,73.5799,0.005797
40.790,73.6242,0.005797
40.820,73.6684,0.005797
40.852,73.7142,0.005797
40.883,73.7608,0.005618
40.914,73.8082,0.005618
40.945,73.8556,0.005618
40.977,73.9053,0.005618
41.008,73.9538,0.005618
41.038,74.0040,0.005618
41.069,74.0543,0.005618
41.101,74.1071,0.005618
41.132,74.1594,0.005618
41.164,74.2144,0.005289
41.195,74.2678,0.005289
41.227,74.3243,0.005289
41.257,74.3785,0.005289
41.289,74.4361,0.005289
41.321,74.4928,0.005289
41.353,74.5532,0.005289
41.384,74.6101,0.004865
41.415,74.6694,0.004865
41.446,74.7292,0.004865
41.477,74.7891,0.004865
41.508,74.8509,0.004865
41.540,74.9090,0.004865
41.571,74.9673,0.004865
41.602,75.0250,0.004865
41.633,75.0812,0.004498
41.664,75.1367,0.004498
41.694,75.1914,0.004498
41.725,75.2460,0.004498
41.756,75.2993,0.004498
41.787,75.3524,0.004498
41.819,75.4064,0.004498
41.850,75.4596,0.004498
41.882,75.5103,0.004009
41.913,75.5609,0.004009
41.943,75.6085,0.004009
41.975,75.6591,0.004009
42.005,75.7053,0.004009
42.036,75.7534,0.004009
42.067,75.7998,0.004009
42.098,75.8442,0.004009
42.128,75.8892,0.003275
42.161,75.9350,0.003275
42.192,75.9795,0.003275
42.223,76.0217,0.003275
42.254,76.0635,0.003275
42.286,76.1060,0.003275
42.316,76.1453,0.003275
42.348,76.1866,0.003275
42.379,76.2258,0.001986
42.409,76.2630,0.001986
42.440,76.2998,0.001986
42.471,76.3379,0.001986
42.501,76.3731,0.001986
42.533,76.4100,0.001986
42.564,76.4441,0.001986
42.600,76.4854,0.001986
42.627,76.5118,-0.000527
42.658,76.5450,-0.000527
42.689,76.5764,-0.000527
42.720,76.6085,-0.000527
42.751,76.6385,-0.000527
42.781,76.6681,-0.000527
42.813,76.6970,-0.000527
42.844,76.7250,-0.000527
42.875,76.7528,-0.005684
42.905,76.7792,-0.005684
42.936,76.8054,-0.005684
42.967,76.8304,-0.005684
42.997,76.8542,-0.005684
43.028,76.8787,-0.005684
43.060,76.9017,-0.005684
43.090,76.9240,-0.005684
43.122,76.9459,-0.014737
43.152,76.9670,-0.014737
43.184,76.9874,-0.014737
43.215,77.0068,-0.014737
43.246,77.0255,-0.014737
43.276,77.0434,-0.014737
43.308,77.0607,-0.014737
43.339,77.0777,-0.014737
43.370,77.0935,-0.026697
43.401,77.1083,-0.026697
43.431,77.1227,-0.026697
43.462,77.1365,-0.026697
43.492,77.1492,-0.026697
43.523,77.1614,-0.026697
43.554,77.1731,-0.026697
43.585,77.1838,-0.026697
43.617,77.1942,-0.038526
43.648,77.2036,-0.038526
43.679,77.2122,-0.038526
43.709,77.2201,-0.038526
43.740,77.2270,-0.038526
43.772,77.2337,-0.038526
43.802,77.2393,-0.038526
43.833,77.2443,-0.038526
43.863,77.2486,-0.038526
43.896,77.2522,-0.046723
43.926,77.2551,-0.046723
43.957,77.2572,-0.046723
43.987,77.2585,-0.046723
44.019,77.2593,-0.046723
44.050,77.2593,-0.046723
44.083,77.2593,-0.046723
44.112,77.2593,-0.048868
44.142,77.2593,-0.048868
44.173,77.2593,-0.048868
44.203,77.2593,-0.048868
44.234,77.2593,-0.048868
44.265,77.2593,-0.048868
44.296,77.2593,-0.048868
44.326,77.2593,-0.048868
44.356,77.2593,-0.048868
44.387,77.2593,-0.048868
44.419,77.2593,-0.046280
44.450,77.2593,-0.046280
44.479,77.2593,-0.046280
44.510,77.2593,-0.046280
44.541,77.2593,-0.046280
44.572,77.2593,-0.046280
44.603,77.2593,-0.046280
44.635,77.2593,-0.046280
44.669,77.2593,-0.042940
44.697,77.2593,-0.042940
44.736,77.2593,-0.042940
44.776,77.2593,-0.042940
44.807,77.2593,-0.042940
44.839,77.2593,-0.042940
44.874,77.2593,-0.042940
44.901,77.2593,-0.042940
44.931,77.2593,-0.042940
44.963,77.2593,-0.040596
44.993,77.2593,-0.040596
45.025,77.2593,-0.040596
45.055,77.2593,-0.040596
45.087,77.2593,-0.040596
45.118,77.2593,-0.038874
45.149,77.2593,-0.038874
45.180,77.2593,-0.038874
45.211,77.2593,-0.038874
45.241,77.2593,-0.038874
45.274,77.2593,-0.038874
45.304,77.2593,-0.038874
45.335,77.2593,-0.038874
45.366,77.2593,-0.038874
45.398,77.2593,-0.037519
45.429,77.2593,-0.037519
45.460,77.2593,-0.037519
45.492,77.2593,-0.037519
45.522,77.2593,-0.037519
45.553,77.2593,-0.037519
45.584,77.2593,-0.037519
45.616,77.2593,-0.037519
45.647,77.2593,-0.036381
45.678,77.2593,-0.036381
45.709,77.2593,-0.036381
45.740,77.2593,-0.036381
45.770,77.2593,-0.036381
45.800,77.2593,-0.036381
45.831,77.2593,-0.036381
45.870,77.2593,-0.036381
45.910,77.2593,-0.035392
45.941,77.2593,-0.035392
45.978,77.2593,-0.035392
46.018,77.2593,-0.035392
46.049,77.2593,-0.035392
46.080,77.2593,-0.035392
46.111,77.2593,-0.035392
46.142,77.2593,-0.034546
46.174,77.2593,-0.034546
46.203,77.2593,-0.034546
46.235,77.2593,-0.034546
46.266,77.2593,-0.034546
46.297,77.2593,-0.034546
46.328,77.2593,-0.034546
46.358,77.2593,-0.034546
46.389,77.2593,-0.033812
46.420,77.2593,-0.033812
46.451,77.2593,-0.033812
46.482,77.2593,-0.033812
46.512,77.2593,-0.033812
46.543,77.2593,-0.033812
46.574,77.2593,-0.033812
46.605,77.2593,-0.033812
46.636,77.2593,-0.033153
46.667,77.2593,-0.033153
46.699,77.2593,-0.033153
46.729,77.2593,-0.033153
46.760,77.2593,-0.033153
46.791,77.2593,-0.033153
46.823,77.2593,-0.033153
46.853,77.2593,-0.033153
46.884,77.2593,-0.032532
46.915,77.2593,-0.032532
46.946,77.2593,-0.032532
46.977,77.2593,-0.032532
47.008,77.2593,-0.032532
47.039,77.2593,-0.032532
47.070,77.2593,-0.032532
47.101,77.2593,-0.032532
47.132,77.2593,-0.032532
47.164,77.2593,-0.031958
47.194,77.2593,-0.031958
47.225,77.2593,-0.031958
47.256,77.2593,-0.031958
47.287,77.2593,-0.031958
47.319,77.2593,-0.031958
47.349,77.2593,-0.031958
47.381,77.2593,-0.031459
47.411,77.2593,-0.031459
47.443,77.2593,-0.031459
47.473,77.2593,-0.031459
47.504,77.2593,-0.031459
47.536,77.2593,-0.031459
47.567,77.2593,-0.031459
47.597,77.2593,-0.031459
47.633,77.2593,-0.031459
47.672,77.2593,-0.031073
47.703,77.2593,-0.031073
47.735,77.2593,-0.031073
47.767,77.2593,-0.031073
47.798,77.2593,-0.031073
47.829,77.2593,-0.031073
47.860,77.2593,-0.031073
47.891,77.2593,-0.030687
47.922,77.2593,-0.030687
47.954,77.2593,-0.030687
47.983,77.2593,-0.030687
48.016,77.2593,-0.030687
48.046,77.2593,-0.030687
48.077,77.2593,-0.030687
48.108,77.2593,-0.030198
48.139,77.2593,-0.030198
48.171,77.2593,-0.030198
48.203,77.2593,-0.030198
48.232,77.2593,-0.030198
48.264,77.2593,-0.030198
48.296,77.2593,-0.030198
48.326,77.2593,-0.030198
48.357,77.2592,-0.030198
48.387,77.2583,-0.029756
48.418,77.2567,-0.029756
48.449,77.2544,-0.029756
48.481,77.2513,-0.029756
48.512,77.2476,-0.029756
48.544,77.2429,-0.029756
48.575,77.2377,-0.029756
48.607,77.2315,-0.029756
48.638,77.2251,-0.028824
48.669,77.2174,-0.028824
48.699,77.2094,-0.028824
48.730,77.2004,-0.028824
48.761,77.1912,-0.028824
48.792,77.1807,-0.028824
48.823,77.1697,-0.028824
48.854,77.1581,-0.028824
48.885,77.1451,-0.022161
48.917,77.1317,-0.022161
48.948,77.1178,-0.022161
48.979,77.1030,-0.022161
49.009,77.0879,-0.022161
49.040,77.0720,-0.022161
49.071,77.0553,-0.022161
49.102,77.0373,-0.022161
49.133,77.0192,-0.008865
49.164,77.0002,-0.008865
49.194,76.9809,-0.008865
49.226,76.9595,-0.008865
49.258,76.9383,-0.008865
49.288,76.9161,-0.008865
49.319,76.8942,-0.008865
49.350,76.8706,-0.008865
49.381,76.8465,0.005166
49.412,76.8216,0.005166
49.443,76.7949,0.005166
49.474,76.7696,0.005166
49.505,76.7429,0.005166
49.536,76.7143,0.005166
49.566,76.6865,0.005166
49.597,76.6578,0.005166
49.628,76.6276,0.015960
49.658,76.5982,0.015960
49.690,76.5654,0.015960
49.721,76.5337,0.015960
49.752,76.5015,0.015960
49.782,76.4675,0.015960
49.814,76.4328,0.015960
49.844,76.3994,0.015960
49.876,76.3626,0.015960
49.906,76.3268,0.022359
49.937,76.2892,0.022359
49.968,76.2525,0.022359
50.000,76.2115,0.022359
50.031,76.1732,0.022359
50.062,76.1318,0.022359
50.092,76.0928,0.022359
50.123,76.0508,0.022359
50.154,76.0086,0.027902
50.187,75.9631,0.027902
50.218,75.9203,0.027902
50.249,75.8739,0.027902
50.280,75.8294,0.027902
50.312,75.7819,0.027902
50.342,75.7369,0.027902
50.373,75.6891,0.027902
50.404,75.6412,0.034960
50.434,75.5940,0.034960
50.466,75.5423,0.034960
50.496,75.4942,0.034960
50.527,75.4422,0.034960
50.557,75.3927,0.034960
50.588,75.3394,0.034960
50.619,75.2861,0.034960
50.651,75.2306,0.040935
50.682,75.1773,0.040935
50.713,75.1201,0.040935
50.745,75.0643,0.040935
50.776,75.0054,0.040935
50.808,74.9472,0.040935
50.841,74.8836,0.040935
50.876,74.8161,0.034734
50.902,74.7680,0.034734
50.933,74.7076,0.034734
50.964,74.6488,0.034734
50.995,74.5873,0.034734
51.026,74.5290,0.034734
51.057,74.4726,0.034734
51.088,74.4151,0.034734
51.119,74.3602,0.017117
51.150,74.3034,0.017117
51.181,74.2492,0.017117
51.217,74.1865,0.017117
51.243,74.1418,0.017117
51.274,74.0886,0.017117
51.305,74.0364,0.017117
51.338,73.9822,0.017117
51.368,73.9338,0.007491
51.399,73.8831,0.007491
51.430,73.8344,0.007491
51.462,73.7844,0.007491
51.492,73.7386,0.007491
51.524,73.6903,0.007491
51.555,73.6438,0.007491
51.586,73.5998,0.007491
51.617,73.5541,0.007491
51.648,73.5109,0.007020
51.682,73.4629,0.007020
51.709,73.4262,0.007020
51.740,73.3834,0.007020
51.770,73.3449,0.007020
51.801,73.3038,0.007020
51.832,73.2650,0.007020
51.862,73.2277,0.007020
51.893,73.1902,0.006870
51.924,73.1515,0.006870
51.956,73.1140,0.006870
51.987,73.0773,0.006870
52.018,73.0426,0.006870
52.049,73.0085,0.006870
52.079,72.9758,0.006870
52.110,72.9422,0.006728
52.140,72.9113,0.006728
52.173,72.8784,0.006728
52.202,72.8493,0.006728
52.234,72.8179,0.006728
52.266,72.7868,0.006728
52.295,72.7603,0.006728
52.329,72.7306,0.006728
52.356,72.7056,0.006728
52.388,72.6796,0.006663
52.418,72.6540,0.006663
52.450,72.6286,0.006663
52.481,72.6039,0.006663
52.510,72.5820,0.006663
52.543,72.5578,0.006663
52.574,72.5352,0.006663
52.604,72.5143,0.006559
52.635,72.4937,0.006559
52.665,72.4741,0.006559
52.696,72.4551,0.006559
52.727,72.4363,0.006559
52.759,72.4185,0.006559
52.790,72.4009,0.006559
52.821,72.3848,0.006559
52.854,72.3680,0.006559
52.883,72.3545,0.006493
52.915,72.3398,0.006493
52.946,72.3264,0.006493
52.978,72.3132,0.006493
53.009,72.3016,0.006493
53.040,72.2899,0.006493
53.071,72.2796,0.006493
53.102,72.2697,0.006493
53.133,72.2609,0.006474
53.164,72.2527,0.006474
53.194,72.2451,0.006474
53.224,72.2386,0.006474
53.255,72.2325,0.006474
53.286,72.2269,0.006474
53.317,72.2222,0.006474
53.348,72.2182,0.006474
53.379,72.2150,0.006418
53.411,72.2125,0.006418
53.441,72.2107,0.006418
53.472,72.2097,0.006418
53.503,72.2093,0.006418
53.534,72.2093,0.006418
53.565,72.2093,0.006418
53.594,72.2093,0.006418
53.628,72.2093,0.006352
53.655,72.2093,0.006352
53.687,72.2094,0.006352
53.718,72.2102,0.006352
53.749,72.2117,0.006352
53.781,72.2140,0.006352
53.812,72.2170,0.006352
53.844,72.2210,0.006352
53.876,72.2254,0.006371
53.908,72.2306,0.006371
53.938,72.2367,0.006371
53.970,72.2434,0.006371
54.000,72.2507,0.006371
54.030,72.2584,0.006371
54.062,72.2676,0.006371
54.092,72.2769,0.006371
54.126,72.2879,0.006371
54.154,72.2977,0.006324
54.186,72.3103,0.006324
54.216,72.3220,0.006324
54.247,72.3357,0.006324
54.279,72.3496,0.006324
54.309,72.3641,0.006324
54.341,72.3797,0.006324
54.371,72.3961,0.006324
54.401,72.4113,0.006211
54.432,72.4289,0.006211
54.463,72.4471,0.006211
54.493,72.4657,0.006211
54.524,72.4860,0.006211
54.556,72.5066,0.006211
54.587,72.5280,0.006211
54.618,72.5497,0.006211
54.649,72.5726,0.006211
54.680,72.5954,0.006173
54.710,72.6191,0.006173
54.741,72.6441,0.006173
54.772,72.6691,0.006173
54.803,72.6953,0.006173
54.834,72.7224,0.006173
54.866,72.7512,0.006173
54.897,72.7788,0.006070
54.927,72.8076,0.006070
54.959,72.8387,0.006070
54.991,72.8696,0.006070
55.019,72.8991,0.006070
55.051,72.9312,0.006070
55.082,72.9644,0.006070
55.113,72.9982,0.006070
55.144,73.0324,0.005976
55.175,73.0670,0.005976
55.206,73.1019,0.005976
55.237,73.1390,0.005976
55.267,73.1748,0.005976
55.298,73.2128,0.005976
55.329,73.2508,0.005976
55.361,73.2912,0.005976
55.391,73.3301,0.005825
55.423,73.3716,0.005825
55.453,73.4133,0.005825
55.484,73.4551,0.005825
55.515,73.4984,0.005825
55.546,73.5428,0.005825
55.577,73.5863,0.005825
55.608,73.6326,0.005825
55.639,73.6766,0.005627
55.670,73.7236,0.005627
55.701,73.7708,0.005627
55.732,73.8199,0.005627
55.763,73.8674,0.005627
55.794,73.9167,0.005627
55.825,73.9667,0.005627
55.856,74.0183,0.005627
55.887,74.0692,0.005364
55.918,74.1237,0.005364
55.949,74.1751,0.005364
55.980,74.2304,0.005364
56.011,74.2832,0.005364
56.042,74.3396,0.005364
56.073,74.3950,0.005364
56.104,74.4531,0.005364
56.135,74.5104,0.004997
56.167,74.5705,0.004997
56.198,74.6279,0.004997
56.228,74.6868,0.004997
56.260,74.7481,0.004997
56.292,74.8087,0.004997
56.322,74.8672,0.004997
56.354,74.9258,0.004997
56.384,74.9825,0.004611
56.416,75.0396,0.004611
56.446,75.0948,0.004611
56.477,75.1494,0.004611
56.508,75.2035,0.004611
56.539,75.2569,0.004611
56.570,75.3099,0.004611
56.601,75.3632,0.004611
56.632,75.4144,0.004103
56.664,75.4658,0.004103
56.695,75.5156,0.004103
56.726,75.5655,0.004103
56.756,75.6131,0.004103
56.791,75.6691,0.004103
56.818,75.7078,0.004103
56.851,75.7564,0.004103
56.881,75.8005,0.003407
56.912,75.8453,0.003407
56.942,75.8892,0.003407
56.973,75.9317,0.003407
57.004,75.9758,0.003407
57.035,76.0167,0.003407
57.065,76.0579,0.003407
57.097,76.0992,0.003407
57.129,76.1408,0.002202
57.160,76.1787,0.002202
57.192,76.2180,0.002202
57.222,76.2546,0.002202
57.253,76.2914,0.002202
57.283,76.3268,0.002202
57.314,76.3625,0.002202
57.345,76.3971,0.002202
57.375,76.4309,0.002202
57.406,76.4638,0.002202
57.439,76.4974,-0.000226
57.468,76.5279,-0.000226
57.502,76.5628,-0.000226
57.531,76.5902,-0.000226
57.562,76.6196,-0.000226
57.592,76.6477,-0.000226
57.623,76.6765,-0.000226
57.654,76.7037,-0.005119
57.686,76.7309,-0.005119
57.717,76.7575,-0.005119
57.748,76.7829,-0.005119
57.780,76.8077,-0.005119
57.811,76.8315,-0.005119
57.841,76.8540,-0.005119
57.872,76.8762,-0.005119
57.903,76.8983,-0.013730
57.934,76.9197,-0.013730
57.965,76.9393,-0.013730
57.997,76.9590,-0.013730
58.028,76.9780,-0.013730
58.058,76.9959,-0.013730
58.089,77.0127,-0.013730
58.121,77.0293,-0.013730
58.151,77.0452,-0.025606
58.187,77.0623,-0.025606
58.229,77.0817,-0.025606
58.259,77.0943,-0.025606
58.290,77.1069,-0.025606
58.321,77.1189,-0.025606
58.353,77.1303,-0.025606
58.384,77.1408,-0.037754
58.415,77.1501,-0.037754
58.445,77.1589,-0.037754
58.477,77.1671,-0.037754
58.508,77.1748,-0.037754
58.540,77.1818,-0.037754
58.571,77.1876,-0.037754
58.602,77.1929,-0.037754
58.632,77.1973,-0.046534
58.670,77.2019,-0.046534
58.695,77.2042,-0.046534
58.727,77.2067,-0.046534
58.756,77.2082,-0.046534
58.787,77.2091,-0.046534
58.818,77.2093,-0.046534
58.853,77.2093,-0.046534
58.882,77.2093,-0.049508
58.913,77.2093,-0.049508
58.945,77.2093,-0.049508
58.977,77.2093,-0.049508
59.007,77.2093,-0.049508
59.037,77.2093,-0.049508
59.068,77.2093,-0.049508
59.099,77.2093,-0.049508
59.130,77.2093,-0.047231
59.161,77.2093,-0.047231
59.193,77.2093,-0.047231
59.224,77.2093,-0.047231
59.255,77.2093,-0.047231
59.287,77.2093,-0.047231
59.318,77.2093,-0.047231
59.349,77.2093,-0.047231
59.381,77.2093,-0.043683
59.412,77.2093,-0.043683
59.451,77.2093,-0.043683
59.490,77.2093,-0.043683
59.522,77.2093,-0.043683
59.552,77.2093,-0.043683
59.583,77.2093,-0.043683
59.613,77.2093,-0.041246
59.643,77.2093,-0.041246
59.675,77.2093,-0.041246
59.706,77.2093,-0.041246
59.737,77.2093,-0.041246
59.768,77.2093,-0.041246
59.799,77.2093,-0.041246
59.830,77.2093,-0.041246
59.861,77.2093,-0.039514
59.893,77.2093,-0.039514
59.924,77.2093,-0.039514
59.957,77.2093,-0.039514
59.986,77.2093,-0.039514
60.017,77.2093,-0.039514
60.047,77.2093,-0.039514
60.078,77.2093,-0.039514
60.110,77.2093,-0.039514
60.141,77.2093,-0.038093
60.172,77.2093,-0.038093
60.202,77.2093,-0.038093
60.233,77.2093,-0.038093
60.265,77.2093,-0.038093
60.296,77.2093,-0.038093
60.329,77.2093,-0.038093
60.358,77.2093,-0.038093
60.389,77.2093,-0.036898
60.421,77.2093,-0.036898
60.452,77.2093,-0.036898
60.484,77.2093,-0.036898
60.514,77.2093,-0.036898
60.546,77.2093,-0.036898
60.576,77.2093,-0.036898
60.608,77.2093,-0.036898
60.638,77.2093,-0.036898
60.669,77.2093,-0.035891
60.700,77.2093,-0.035891
60.731,77.2093,-0.035891
60.762,77.2093,-0.035891
60.795,77.2093,-0.035891
60.824,77.2093,-0.035891
60.855,77.2093,-0.035891
60.886,77.2093,-0.035007
60.916,77.2093,-0.035007
60.946,77.2093,-0.035007
60.979,77.2093,-0.035007
61.009,77.2093,-0.035007
61.040,77.2093,-0.035007
61.071,77.2093,-0.035007
61.102,77.2093,-0.035007
61.132,77.2093,-0.034273
61.164,77.2093,-0.034273
61.195,77.2093,-0.034273
61.226,77.2093,-0.034273
61.257,77.2093,-0.034273
61.288,77.2093,-0.034273
61.319,77.2093,-0.034273
61.351,77.2093,-0.034273
61.381,77.2093,-0.033567
61.413,77.2093,-0.033567
61.444,77.2093,-0.033567
61.476,77.2093,-0.033567
61.507,77.2093,-0.033567
61.538,77.2093,-0.033567
61.569,77.2093,-0.033567
61.600,77.2093,-0.033567
61.631,77.2093,-0.032983
61.661,77.2093,-0.032983
61.692,77.2093,-0.032983
61.723,77.2093,-0.032983
61.754,77.2093,-0.032983
61.785,77.2093,-0.032983
61.816,77.2093,-0.032983
61.848,77.2093,-0.032983
61.879,77.2093,-0.032475
61.909,77.2093,-0.032475
61.941,77.2093,-0.032475
61.972,77.2093,-0.032475
62.003,77.2093,-0.032475
62.033,77.2093,-0.032475
62.064,77.2093,-0.032475
62.095,77.2093,-0.032475
62.126,77.2093,-0.032475
62.157,77.2093,-0.031976
62.187,77.2093,-0.031976
62.219,77.2093,-0.031976
62.249,77.2093,-0.031976
62.281,77.2093,-0.031976
62.311,77.2093,-0.031976
62.342,77.2093,-0.031976
62.374,77.2093,-0.031976
62.405,77.2093,-0.031515
62.436,77.2093,-0.031515
62.467,77.2093,-0.031515
62.498,77.2093,-0.031515
62.529,77.2093,-0.031515
62.558,77.2093,-0.031515
62.589,77.2093,-0.031515
62.620,77.2093,-0.031515
62.651,77.2093,-0.030998
62.682,77.2093,-0.030998
62.712,77.2093,-0.030998
62.744,77.2093,-0.030998
62.776,77.2093,-0.030998
62.807,77.2093,-0.030998
62.837,77.2093,-0.030998
62.869,77.2093,-0.030998
62.899,77.2093,-0.030556
62.930,77.2093,-0.030556
62.962,77.2093,-0.030556
62.994,77.2093,-0.030556
63.024,77.2093,-0.030556
63.062,77.2088,-0.030556
63.102,77.2069,-0.030556
63.134,77.2047,-0.030198
63.166,77.2016,-0.030198
63.198,77.1979,-0.030198
63.228,77.1934,-0.030198
63.260,77.1883,-0.030198
63.292,77.1820,-0.030198
63.321,77.1761,-0.030198
63.352,77.1686,-0.030198
63.382,77.1609,-0.030198
63.414,77.1516,-0.028071
63.444,77.1425,-0.028071
63.475,77.1324,-0.028071
63.507,77.1212,-0.028071
63.538,77.1092,-0.028071
63.568,77.0972,-0.028071
63.599,77.0842,-0.028071
63.630,77.0701,-0.019536
63.665,77.0543,-0.019536
63.693,77.0399,-0.019536
63.725,77.0230,-0.019536
63.756,77.0066,-0.019536
63.786,76.9895,-0.019536
63.817,76.9715,-0.019536
63.851,76.9506,-0.019536
63.880,76.9326,-0.005524
63.910,76.9120,-0.005524
63.942,76.8911,-0.005524
63.972,76.8694,-0.005524
64.003,76.8468,-0.005524
64.035,76.8230,-0.005524
64.065,76.7995,-0.005524
64.097,76.7739,-0.005524
64.127,76.7487,0.007942
64.158,76.7230,0.007942
64.189,76.6958,0.007942
64.220,76.6684,0.007942
64.252,76.6390,0.007942
64.282,76.6106,0.007942
64.313,76.5804,0.007942
64.345,76.5500,0.007942
64.376,76.5182,0.017306
64.407,76.4861,0.017306
64.441,76.4502,0.017306
64.468,76.4205,0.017306
64.499,76.3864,0.017306
64.530,76.3517,0.017306
64.560,76.3165,0.017306
64.591,76.2796,0.017306
64.623,76.2420,0.022745
64.654,76.2036,0.022745
64.685,76.1645,0.022745
64.717,76.1252,0.022745
64.748,76.0844,0.022745
64.779,76.0444,0.022745
64.810,76.0019,0.022745
64.841,75.9608,0.022745
64.873,75.9164,0.022745
64.903,75.8733,0.028194
64.935,75.8266,0.028194
64.966,75.7824,0.028194
64.999,75.7339,0.028194
65.030,75.6877,0.028194
65.060,75.6393,0.028194
65.092,75.5910,0.028194
65.123,75.5422,0.035082
65.154,75.4937,0.035082
65.185,75.4418,0.035082
65.217,75.3893,0.035082
65.250,75.3351,0.035082
65.279,75.2861,0.035082
65.310,75.2325,0.035082
65.341,75.1778,0.035082
65.372,75.1232,0.040465
65.404,75.0669,0.040465
65.435,75.0112,0.040465
65.465,74.9546,0.040465
65.497,74.8960,0.040465
65.528,74.8369,0.040465
65.558,74.7801,0.040465
65.590,74.7174,0.040465
65.620,74.6600,0.026725
65.651,74.5996,0.026725
65.682,74.5413,0.026725
65.713,74.4825,0.026725
65.743,74.4240,0.026725
65.774,74.3677,0.026725
65.805,74.3131,0.026725
65.836,74.2561,0.026725
65.867,74.2020,0.009326
65.898,74.1480,0.009326
65.929,74.0942,0.009326
65.960,74.0406,0.009326
65.991,73.9900,0.009326
66.023,73.9364,0.009326
66.053,73.8889,0.009326
66.084,73.8393,0.009326
66.114,73.7906,0.007246
66.145,73.7414,0.007246
66.176,73.6950,0.007246
66.208,73.6471,0.007246
66.239,73.6011,0.007246
66.269,73.5564,0.007246
66.300,73.5107,0.007246
66.331,73.4668,0.007246
66.362,73.4235,0.007246
66.393,73.3822,0.007246
66.424,73.3392,0.006973
66.455,73.2986,0.006973
66.486,73.2577,0.006973
66.517,73.2184,0.006973
66.548,73.1790,0.006973
66.580,73.1408,0.006973
66.611,73.1026,0.006973
66.643,73.0652,0.006823
66.673,73.0311,0.006823
66.704,72.9950,0.006823
66.735,72.9606,0.006823
66.768,72.9250,0.006823
66.796,72.8944,0.006823
66.828,72.8618,0.006823
66.861,72.8278,0.006823
66.889,72.8005,0.006823
66.920,72.7708,0.006728
66.951,72.7414,0.006728
66.982,72.7120,0.006728
67.014,72.6831,0.006728
67.045,72.6564,0.006728
67.076,72.6294,0.006728
67.108,72.6032,0.006728
67.139,72.5781,0.006634
67.170,72.5537,0.006634
67.201,72.5299,0.006634
67.232,72.5067,0.006634
67.264,72.4841,0.006634
67.296,72.4617,0.006634
67.326,72.4418,0.006634
67.357,72.4219,0.006634
67.387,72.4033,0.006587
67.418,72.3848,0.006587
67.448,72.3678,0.006587
67.480,72.3506,0.006587
67.510,72.3343,0.006587
67.541,72.3188,0.006587
67.572,72.3038,0.006587
67.603,72.2898,0.006587
67.635,72.2760,0.006587
67.666,72.2631,0.006587
67.696,72.2515,0.006587
67.728,72.2401,0.006587
67.758,72.2298,0.006587
67.789,72.2203,0.006587
67.820,72.2112,0.006587
67.851,72.2028,0.006587
67.882,72.1953,0.006465
67.913,72.1886,0.006465
67.944,72.1824,0.006465
67.975,72.1768,0.006465
68.005,72.1722,0.006465
68.036,72.1684,0.006465
68.067,72.1651,0.006465
68.098,72.1625,0.006465
68.129,72.1608,0.006408
68.159,72.1597,0.006408
68.190,72.1593,0.006408
68.222,72.1593,0.006408
68.252,72.1593,0.006408
68.283,72.1593,0.006408
68.314,72.1593,0.006408
68.347,72.1593,0.006408
68.377,72.1593,0.006474
68.408,72.1596,0.006474
68.438,72.1606,0.006474
68.470,72.1623,0.006474
68.501,72.1646,0.006474
68.532,72.1679,0.006474
68.562,72.1717,0.006474
68.593,72.1763,0.006474
68.627,72.1823,0.006418
68.655,72.1877,0.006418
68.686,72.1944,0.006418
68.718,72.2022,0.006418
68.745,72.2093,0.006418
68.780,72.2195,0.006418
68.811,72.2293,0.006418
68.842,72.2397,0.006418
68.873,72.2510,0.006418
68.904,72.2629,0.006314
68.936,72.2759,0.006314
68.968,72.2895,0.006314
68.999,72.3041,0.006314
69.030,72.3191,0.006314
69.062,72.3347,0.006314
69.093,72.3509,0.006314
69.125,72.3688,0.006314
69.155,72.3858,0.006267
69.185,72.4038,0.006267
69.216,72.4230,0.006267
69.247,72.4431,0.006267
69.278,72.4632,0.006267
69.309,72.4850,0.006267
69.340,72.5067,0.006267
69.372,72.5306,0.006267
69.402,72.5538,0.006173
69.434,72.5788,0.006173
69.465,72.6036,0.006173
69.496,72.6299,0.006173
69.527,72.6559,0.006173
69.558,72.6839,0.006173
69.590,72.7118,0.006173
69.620,72.7405,0.006173
69.652,72.7705,0.006098
69.683,72.8011,0.006098
69.714,72.8312,0.006098
69.745,72.8628,0.006098
69.776,72.8953,0.006098
69.807,72.9285,0.006098
69.838,72.9619,0.006098
69.869,72.9967,0.006098
69.900,73.0322,0.005929
69.932,73.0690,0.005929
69.962,73.1050,0.005929
69.994,73.1438,0.005929
70.025,73.1820,0.005929
70.058,73.2234,0.005929
70.088,73.2615,0.005929
70.119,73.3024,0.005929
70.150,73.3437,0.005769
70.181,73.3855,0.005769
70.212,73.4277,0.005769
70.243,73.4712,0.005769
70.274,73.5146,0.005769
70.306,73.5623,0.005769
70.337,73.6064,0.005769
70.369,73.6564,0.005769
70.399,73.7001,0.005590
70.431,73.7484,0.005590
70.461,73.7958,0.005590
70.492,73.8453,0.005590
70.523,73.8960,0.005590
70.555,73.9474,0.005590
70.586,73.9991,0.005590
70.618,74.0515,0.005590
70.648,74.1047,0.005260
70.679,74.1581,0.005260
70.710,74.2126,0.005260
70.741,74.2666,0.005260
70.772,74.3238,0.005260
70.804,74.3811,0.005260
70.835,74.4399,0.005260
70.868,74.5000,0.005260
70.897,74.5548,0.004912
70.928,74.6140,0.004912
70.958,74.6723,0.004912
70.989,74.7329,0.004912
71.019,74.7903,0.004912
71.050,74.8481,0.004912
71.081,74.9053,0.004912
71.113,74.9631,0.004912
71.143,75.0182,0.004912
71.174,75.0736,0.004555
71.205,75.1276,0.004555
71.237,75.1834,0.004555
71.268,75.2376,0.004555
71.300,75.2918,0.004555
71.330,75.3406,0.004555
71.360,75.3919,0.004555
71.391,75.4422,0.004555
71.422,75.4912,0.004084
71.454,75.5406,0.004084
71.481,75.5835,0.004084
71.516,75.6379,0.004084
71.548,75.6846,0.004084
71.579,75.7314,0.004084
71.611,75.7770,0.004084
71.642,75.8226,0.003275
71.673,75.8672,0.003275
71.704,75.9097,0.003275
71.736,75.9523,0.003275
71.766,75.9920,0.003275
71.796,76.0328,0.003275
71.827,76.0730,0.003275
71.858,76.1123,0.003275
71.888,76.1505,0.001939
71.920,76.1881,0.001939
71.951,76.2260,0.001939
71.981,76.2609,0.001939
72.012,76.2970,0.001939
72.043,76.3312,0.001939
72.074,76.3671,0.001939
72.105,76.4002,0.001939
72.136,76.4335,-0.000753
72.167,76.4647,-0.000753
72.198,76.4974,-0.000753
72.230,76.5287,-0.000753
72.261,76.5578,-0.000753
72.292,76.5873,-0.000753
72.323,76.6161,-0.000753
72.354,76.6440,-0.000753
72.385,76.6704,-0.006145
72.416,76.6962,-0.006145
72.447,76.7226,-0.006145
72.477,76.7468,-0.006145
72.508,76.7700,-0.006145
72.539,76.7933,-0.006145
72.569,76.8158,-0.006145
72.601,76.8383,-0.006145
72.631,76.8591,-0.015405
72.661,76.8792,-0.015405
72.693,76.8996,-0.015405
72.723,76.9181,-0.015405
72.754,76.9366,-0.015405
72.785,76.9539,-0.015405
72.815,76.9706,-0.015405
72.846,76.9869,-0.015405
72.876,77.0022,-0.015405
72.908,77.0168,-0.027619
72.938,77.0303,-0.027619
72.969,77.0441,-0.027619
72.999,77.0559,-0.027619
73.031,77.0684,-0.027619
73.062,77.0795,-0.027619
73.091,77.0890,-0.027619
73.124,77.0994,-0.039524
73.157,77.1090,-0.039524
73.186,77.1169,-0.039524
73.216,77.1240,-0.039524
73.246,77.1307,-0.039524
73.279,77.1371,-0.039524
73.307,77.1420,-0.039524
73.339,77.1467,-0.039524
73.369,77.1505,-0.039524
73.400,77.1537,-0.047617
73.431,77.1562,-0.047617
73.461,77.1580,-0.047617
73.493,77.1591,-0.047617
73.525,77.1593,-0.047617
73.556,77.1593,-0.047617
73.587,77.1593,-0.047617
73.618,77.1593,-0.047617
73.647,77.1593,-0.049489
73.680,77.1593,-0.049489
73.711,77.1593,-0.049489
73.744,77.1593,-0.049489
73.774,77.1593,-0.049489
73.804,77.1593,-0.049489
73.836,77.1593,-0.049489
73.867,77.1593,-0.046657
73.899,77.1593,-0.046657
73.930,77.1593,-0.046657
73.961,77.1593,-0.046657
73.992,77.1593,-0.046657
74.023,77.1593,-0.046657
74.054,77.1593,-0.046657
74.085,77.1593,-0.046657
74.116,77.1593,-0.043335
74.147,77.1593,-0.043335
74.178,77.1593,-0.043335
74.210,77.1593,-0.043335
74.241,77.1593,-0.043335
74.271,77.1593,-0.043335
74.301,77.1593,-0.043335
74.332,77.1593,-0.043335
74.363,77.1593,-0.041067
74.394,77.1593,-0.041067
74.425,77.1593,-0.041067
74.457,77.1593,-0.041067
74.487,77.1593,-0.041067
74.519,77.1593,-0.041067
74.550,77.1593,-0.041067
74.582,77.1593,-0.041067
74.612,77.1593,-0.041067
74.643,77.1593,-0.039373
74.674,77.1593,-0.039373
74.705,77.1593,-0.039373
74.733,77.1593,-0.039373
74.767,77.1593,-0.039373
74.798,77.1593,-0.039373
74.829,77.1593,-0.039373
74.859,77.1593,-0.039373
74.891,77.1593,-0.037961
74.921,77.1593,-0.037961
74.952,77.1593,-0.037961
74.983,77.1593,-0.037961
75.014,77.1593,-0.037961
75.045,77.1593,-0.037961
75.076,77.1593,-0.037961
75.108,77.1593,-0.037961
75.138,77.1593,-0.036795
75.169,77.1593,-0.036795
75.201,77.1593,-0.036795
75.232,77.1593,-0.036795
75.263,77.1593,-0.036795
75.294,77.1593,-0.036795
75.325,77.1593,-0.036795
75.356,77.1593,-0.036795
75.388,77.1593,-0.035816
75.420,77.1593,-0.035816
75.451,77.1593,-0.035816
75.482,77.1593,-0.035816
75.514,77.1593,-0.035816
75.545,77.1593,-0.035816
75.575,77.1593,-0.035816
75.605,77.1593,-0.035816
75.636,77.1593,-0.034988
75.668,77.1593,-0.034988
75.699,77.1593,-0.034988
75.730,77.1593,-0.034988
75.761,77.1593,-0.034988
75.792,77.1593,-0.034988
75.823,77.1593,-0.034988
75.854,77.1593,-0.034988
75.885,77.1593,-0.034301
75.916,77.1593,-0.034301
75.947,77.1593,-0.034301
75.979,77.1593,-0.034301
76.010,77.1593,-0.034301
76.041,77.1593,-0.034301
76.071,77.1593,-0.034301
76.102,77.1593,-0.034301
76.133,77.1593,-0.033614
76.165,77.1593,-0.033614
76.196,77.1593,-0.033614
76.227,77.1593,-0.033614
76.258,77.1593,-0.033614
76.289,77.1593,-0.033614
76.320,77.1593,-0.033614
76.351,77.1593,-0.033614
76.382,77.1593,-0.032974
76.414,77.1593,-0.032974
76.444,77.1593,-0.032974
76.477,77.1593,-0.032974
76.507,77.1593,-0.032974
76.538,77.1593,-0.032974
76.569,77.1593,-0.032974
76.600,77.1593,-0.032974
76.632,77.1593,-0.032456
76.663,77.1593,-0.032456
76.694,77.1593,-0.032456
76.724,77.1593,-0.032456
76.755,77.1593,-0.032456
76.785,77.1593,-0.032456
76.816,77.1593,-0.032456
76.846,77.1593,-0.032456
76.877,77.1593,-0.032456
76.908,77.1593,-0.031911
76.939,77.1593,-0.031911
76.970,77.1593,-0.031911
77.001,77.1593,-0.031911
77.032,77.1593,-0.031911
77.064,77.1593,-0.031911
77.094,77.1593,-0.031911
77.125,77.1593,-0.031478
77.157,77.1593,-0.031478
77.188,77.1593,-0.031478
77.220,77.1593,-0.031478
77.251,77.1593,-0.031478
77.281,77.1593,-0.031478
77.312,77.1593,-0.031478
77.344,77.1593,-0.031478
77.375,77.1593,-0.031045
77.406,77.1593,-0.031045
77.437,77.1593,-0.031045
77.468,77.1593,-0.031045
77.499,77.1593,-0.031045
77.530,77.1593,-0.031045
77.561,77.1593,-0.031045
77.592,77.1593,-0.031045
77.623,77.1593,-0.030621
77.655,77.1593,-0.030621
77.687,77.1593,-0.030621
77.717,77.1593,-0.030621
77.748,77.1593,-0.030621
77.779,77.1593,-0.030621
77.811,77.1593,-0.030621
77.842,77.1593,-0.030621
77.873,77.1587,-0.030236
77.904,77.1573,-0.030236
77.935,77.1554,-0.030236
77.966,77.1525,-0.030236
77.997,77.1489,-0.030236
78.028,77.1448,-0.030236
78.060,77.1397,-0.030236
78.090,77.1341,-0.030236
78.121,77.1276,-0.029059
78.152,77.1204,-0.029059
78.183,77.1124,-0.029059
78.215,77.1040,-0.029059
78.245,77.0946,-0.029059
78.276,77.0848,-0.029059
78.306,77.0742,-0.029059
78.337,77.0627,-0.029059
78.369,77.0502,-0.022096
78.401,77.0367,-0.022096
78.432,77.0231,-0.022096
78.463,77.0084,-0.022096
78.495,76.9929,-0.022096
78.525,76.9776,-0.022096
78.556,76.9608,-0.022096
78.588,76.9431,-0.022096
78.619,76.9249,-0.008705
78.649,76.9063,-0.008705
78.680,76.8871,-0.008705
78.711,76.8670,-0.008705
78.742,76.8459,-0.008705
78.774,76.8238,-0.008705
78.805,76.8014,-0.008705
78.835,76.7778,-0.008705
78.866,76.7549,-0.008705
78.898,76.7295,0.005242
78.929,76.7038,0.005242
78.958,76.6787,0.005242
78.990,76.6506,0.005242
79.023,76.6224,0.005242
79.052,76.5956,0.005242
79.083,76.5662,0.005242
79.114,76.5373,0.015819
79.145,76.5062,0.015819
79.176,76.4748,0.015819
79.208,76.4425,0.015819
79.238,76.4111,0.015819
79.268,76.3782,0.015819
79.301,76.3429,0.015819
79.331,76.3089,0.015819
79.362,76.2734,0.015819
79.392,76.2380,0.021954
79.423,76.2014,0.021954
79.453,76.1644,0.021954
79.484,76.1253,0.021954
79.515,76.0868,0.021954
79.546,76.0463,0.021954
79.577,76.0063,0.021954
79.608,75.9642,0.021954
79.640,75.9224,0.027111
79.671,75.8782,0.027111
79.702,75.8356,0.027111
79.734,75.7907,0.027111
79.764,75.7467,0.027111
79.795,75.7008,0.027111
79.826,75.6549,0.027111
79.856,75.6094,0.033746
79.887,75.5605,0.033746
79.918,75.5133,0.033746
79.949,75.4612,0.033746
79.981,75.4123,0.033746
80.011,75.3609,0.033746
80.042,75.3098,0.033746
80.073,75.2573,0.033746
80.104,75.2062,0.033746
80.135,75.1503,0.039552
80.167,75.0963,0.039552
80.198,75.0390,0.039552
80.230,74.9841,0.039552
80.261,74.9250,0.039552
80.292,74.8694,0.039552
80.324,74.8099,0.039552
80.355,74.7509,0.030574
80.385,74.6919,0.030574
80.417,74.6306,0.030574
80.448,74.5698,0.030574
80.479,74.5094,0.030574
80.510,74.4526,0.030574
80.540,74.3956,0.030574
80.571,74.3384,0.030574
80.602,74.2809,0.030574
80.633,74.2259,0.013579
80.663,74.1717,0.013579
80.695,74.1152,0.013579
80.726,74.0631,0.013579
80.757,74.0091,0.013579
80.788,73.9574,0.013579
80.818,73.9061,0.013579
80.850,73.8562,0.013579
80.880,73.8072,0.007444
80.912,73.7554,0.007444
80.943,73.7065,0.007444
80.974,73.6593,0.007444
81.005,73.6132,0.007444
81.036,73.5649,0.007444
81.067,73.5208,0.007444
81.097,73.4756,0.007444
81.128,73.4319,0.007048
81.159,73.3880,0.007048
81.191,73.3442,0.007048
81.223,73.3007,0.007048
81.253,73.2606,0.007048
81.284,73.2197,0.007048
81.315,73.1803,0.007048
81.346,73.1420,0.007048
81.378,73.1021,0.007048
81.408,73.0659,0.006841
81.439,73.0285,0.006841
81.469,72.9944,0.006841
81.500,72.9583,0.006841
81.530,72.9244,0.006841
81.561,72.8907,0.006841
81.592,72.8577,0.006841
81.623,72.8252,0.006841
81.654,72.7928,0.006841
81.686,72.7608,0.006757
81.717,72.7303,0.006757
81.748,72.7001,0.006757
81.780,72.6705,0.006757
81.811,72.6424,0.006757
81.842,72.6145,0.006757
81.872,72.5887,0.006757
81.904,72.5628,0.006719
81.934,72.5373,0.006719
81.966,72.5127,0.006719
81.996,72.4886,0.006719
82.028,72.4658,0.006719
82.059,72.4427,0.006719
82.089,72.4221,0.006719
82.120,72.4012,0.006719
82.150,72.3816,0.006616
82.181,72.3615,0.006616
82.212,72.3427,0.006616
82.244,72.3244,0.006616
82.275,72.3072,0.006616
82.305,72.2909,0.006616
82.336,72.2748,0.006616
82.368,72.2595,0.006616
82.399,72.2450,0.006540
82.430,72.2314,0.006540
82.461,72.2180,0.006540
82.493,72.2055,0.006540
82.523,72.1944,0.006540
82.555,72.1836,0.006540
82.586,72.1735,0.006540
82.617,72.1643,0.006540
82.649,72.1553,0.006465
82.681,72.1475,0.006465
82.711,72.1405,0.006465
82.740,72.1345,0.006465
82.775,72.1281,0.006465
82.807,72.1232,0.006465
82.836,72.1193,0.006465
82.867,72.1158,0.006427
82.897,72.1132,0.006427
82.929,72.1112,0.006427
82.959,72.1100,0.006427
82.990,72.1093,0.006427
83.021,72.1093,0.006427
83.052,72.1093,0.006427
83.084,72.1093,0.006427
83.115,72.1093,0.006427
83.146,72.1093,0.006427
83.177,72.1093,0.006427
83.208,72.1101,0.006427
83.239,72.1114,0.006427
83.270,72.1136,0.006427
83.302,72.1164,0.006427
83.333,72.1199,0.006427
83.364,72.1242,0.006427
83.395,72.1293,0.006427
83.426,72.1350,0.006427
83.458,72.1416,0.006427
83.488,72.1488,0.006427
83.520,72.1567,0.006427
83.550,72.1653,0.006427
83.581,72.1747,0.006427
83.614,72.1852,0.006427
83.643,72.1955,0.006286
83.674,72.2076,0.006286
83.705,72.2197,0.006286
83.737,72.2326,0.006286
83.767,72.2463,0.006286
83.798,72.2604,0.006286
83.828,72.2757,0.006286
83.859,72.2914,0.006286
83.891,72.3083,0.006183
83.922,72.3259,0.006183
83.953,72.3444,0.006183
83.984,72.3631,0.006183
84.015,72.3822,0.006183
84.045,72.4023,0.006183
84.076,72.4232,0.006183
84.106,72.4446,0.006183
84.137,72.4666,0.006173
84.170,72.4907,0.006173
84.201,72.5151,0.006173
84.232,72.5399,0.006173
84.263,72.5657,0.006173
84.294,72.5915,0.006173
84.326,72.6193,0.006173
84.357,72.6467,0.006173
84.388,72.6749,0.006126
84.419,72.7039,0.006126
84.450,72.7332,0.006126
84.480,72.7631,0.006126
84.512,72.7949,0.006126
84.543,72.8277,0.006126
84.573,72.8587,0.006126
84.604,72.8927,0.006126
84.635,72.9263,0.006126
84.666,72.9615,0.006004
84.698,72.9982,0.006004
84.729,73.0338,0.006004
84.760,73.0716,0.006004
84.791,73.1085,0.006004
84.822,73.1478,0.006004
84.853,73.1872,0.006004
84.884,73.2279,0.005787
84.917,73.2701,0.005787
84.947,73.3115,0.005787
84.978,73.3528,0.005787
85.010,73.3981,0.005787
85.040,73.4396,0.005787
85.071,73.4840,0.005787
85.101,73.5279,0.005787
85.132,73.5736,0.005571
85.164,73.6202,0.005571
85.194,73.6669,0.005571
85.226,73.7169,0.005571
85.256,73.7634,0.005571
85.287,73.8114,0.005571
85.317,73.8609,0.005571
85.348,73.9123,0.005571
85.379,73.9634,0.005571
85.411,74.0176,0.005326
85.441,74.0678,0.005326
85.472,74.1230,0.005326
85.502,74.1753,0.005326
85.536,74.2377,0.005326
85.565,74.2879,0.005326
85.596,74.3460,0.005326
85.627,74.4022,0.004988
85.662,74.4689,0.004988
85.690,74.5216,0.004988
85.722,74.5824,0.004988
85.752,74.6416,0.004988
85.786,74.7075,0.004988
85.815,74.7616,0.004988
85.845,74.8181,0.004988
85.876,74.8741,0.004620
85.907,74.9326,0.004620
85.938,74.9879,0.004620
85.970,75.0447,0.004620
86.000,75.0976,0.004620
86.033,75.1530,0.004620
86.062,75.2033,0.004620
86.095,75.2597,0.004620
86.125,75.3090,0.004178
86.158,75.3637,0.004178
86.186,75.4085,0.004178
86.217,75.4583,0.004178
86.248,75.5062,0.004178
86.283,75.5619,0.004178
86.309,75.6008,0.004178
86.341,75.6491,0.004178
86.371,75.6925,0.003454
86.408,75.7464,0.003454
86.449,75.8041,0.003454
86.480,75.8478,0.003454
86.512,75.8904,0.003454
86.543,75.9325,0.003454
86.573,75.9737,0.003454
86.605,76.0143,0.003454
86.635,76.0535,0.003454
86.667,76.0927,0.002183
86.698,76.1308,0.002183
86.729,76.1686,0.002183
86.760,76.2060,0.002183
86.791,76.2409,0.002183
86.823,76.2769,0.002183
86.853,76.3106,0.002183
86.884,76.3447,-0.000292
86.916,76.3781,-0.000292
86.947,76.4100,-0.000292
86.977,76.4416,-0.000292
87.008,76.4716,-0.000292
87.039,76.5027,-0.000292
87.071,76.5319,-0.000292
87.101,76.5608,-0.000292
87.132,76.5879,-0.005176
87.164,76.6161,-0.005176
87.194,76.6416,-0.005176
87.226,76.6681,-0.005176
87.255,76.6911,-0.005176
87.288,76.7182,-0.005176
87.317,76.7390,-0.005176
87.349,76.7626,-0.005176
87.379,76.7843,-0.013786
87.411,76.8061,-0.013786
87.442,76.8274,-0.013786
87.473,76.8469,-0.013786
87.504,76.8660,-0.013786
87.535,76.8850,-0.013786
87.566,76.9020,-0.013786
87.598,76.9197,-0.013786
87.629,76.9358,-0.025681
87.660,76.9517,-0.025681
87.691,76.9662,-0.025681
87.723,76.9807,-0.025681
87.754,76.9940,-0.025681
87.785,77.0065,-0.025681
87.816,77.0187,-0.025681
87.848,77.0301,-0.025681
87.878,77.0400,-0.037783
87.909,77.0497,-0.037783
87.941,77.0589,-0.037783
87.971,77.0670,-0.037783
88.002,77.0744,-0.037783
88.034,77.0813,-0.037783
88.065,77.0873,-0.037783
88.096,77.0926,-0.037783
88.127,77.0972,-0.037783
88.158,77.1010,-0.046544
88.190,77.1043,-0.046544
88.220,77.1066,-0.046544
88.251,77.1082,-0.046544
88.287,77.1092,-0.046544
88.313,77.1093,-0.046544
88.346,77.1093,-0.046544
88.375,77.1093,-0.049461
88.406,77.1093,-0.049461
88.437,77.1093,-0.049461
88.467,77.1093,-0.049461
