Elapsed Time (s),Position (mm),Force (N)
-0.017,75.4094,-0.069872
0.014,75.4094,-0.069872
0.045,75.4094,-0.069872
0.075,75.4094,-0.069872
0.108,75.4094,-0.069872
0.137,75.4094,-0.069872
0.168,75.4094,-0.069872
0.199,75.4094,-0.069872
0.230,75.4094,-0.069872
0.261,75.4094,-0.065901
0.292,75.4094,-0.065901
0.323,75.4094,-0.065901
0.355,75.4094,-0.065901
0.386,75.4094,-0.065901
0.417,75.4094,-0.065901
0.448,75.4094,-0.065901
0.478,75.4094,-0.065901
0.508,75.4094,-0.063181
0.539,75.4094,-0.063181
0.570,75.4094,-0.063181
0.602,75.4094,-0.063181
0.632,75.4094,-0.063181
0.662,75.4094,-0.063181
0.694,75.4094,-0.063181
0.724,75.4094,-0.063181
0.755,75.4094,-0.061092
0.786,75.4094,-0.061092
0.818,75.4094,-0.061092
0.848,75.4094,-0.061092
0.879,75.4094,-0.061092
0.910,75.4094,-0.061092
0.941,75.4094,-0.061092
0.972,75.4094,-0.061092
1.003,75.4094,-0.061092
1.034,75.4094,-0.059361
1.065,75.4094,-0.059361
1.096,75.4094,-0.059361
1.127,75.4094,-0.059361
1.158,75.4094,-0.059361
1.189,75.4094,-0.059361
1.221,75.4094,-0.059361
1.252,75.4094,-0.059361
1.283,75.4094,-0.057921
1.314,75.4094,-0.057921
1.345,75.4094,-0.057921
1.376,75.4094,-0.057921
1.407,75.4094,-0.057921
1.438,75.4094,-0.057921
1.469,75.4094,-0.057921
1.500,75.4094,-0.057921
1.530,75.4094,-0.056735
1.561,75.4094,-0.056735
1.592,75.4094,-0.056735
1.622,75.4094,-0.056735
1.654,75.4094,-0.056735
1.685,75.4094,-0.056735
1.716,75.4094,-0.056735
1.746,75.4094,-0.056735
1.777,75.4094,-0.055719
1.808,75.4094,-0.055719
1.839,75.4094,-0.055719
1.870,75.4094,-0.055719
1.900,75.4094,-0.055719
1.931,75.4094,-0.055719
1.962,75.4094,-0.055719
1.993,75.4094,-0.055719
2.024,75.4094,-0.054740
2.056,75.4094,-0.054740
2.087,75.4094,-0.054740
2.117,75.4094,-0.054740
2.148,75.4094,-0.054740
2.179,75.4094,-0.054740
2.211,75.4094,-0.054740
2.242,75.4094,-0.054740
2.273,75.4094,-0.053884
2.304,75.4094,-0.053884
2.336,75.4094,-0.053884
2.366,75.4094,-0.053884
2.397,75.4094,-0.053884
2.428,75.4094,-0.053884
2.459,75.4094,-0.053884
2.490,75.4094,-0.053884
2.521,75.4094,-0.053131
2.551,75.4094,-0.053131
2.583,75.4094,-0.053131
2.613,75.4094,-0.053131
2.644,75.4094,-0.053131
2.676,75.4094,-0.053131
2.705,75.4094,-0.053131
2.736,75.4094,-0.053131
2.767,75.4094,-0.052406
2.798,75.4094,-0.052406
2.828,75.4094,-0.052406
2.859,75.4094,-0.052406
2.890,75.4094,-0.052406
2.921,75.4094,-0.052406
2.953,75.4094,-0.052406
2.983,75.4094,-0.052406
3.015,75.4094,-0.051748
3.046,75.4094,-0.051748
3.078,75.4094,-0.051748
3.109,75.4094,-0.051748
3.140,75.4094,-0.051748
3.172,75.4094,-0.051748
3.201,75.4094,-0.051748
3.232,75.4094,-0.051211
3.263,75.4094,-0.051211
3.294,75.4094,-0.051211
3.325,75.4094,-0.051211
3.357,75.4094,-0.051211
3.388,75.4094,-0.051211
3.418,75.4094,-0.051211
3.450,75.4094,-0.051211
3.482,75.4094,-0.050694
3.514,75.4094,-0.050694
3.544,75.4094,-0.050694
3.575,75.4094,-0.050694
3.607,75.4094,-0.050694
3.637,75.4094,-0.050694
3.669,75.4094,-0.050694
3.703,75.4094,-0.050694
3.730,75.4094,-0.050101
3.761,75.4094,-0.050101
3.793,75.4094,-0.050101
3.824,75.4094,-0.050101
3.858,75.4094,-0.050101
3.887,75.4094,-0.050101
3.917,75.4094,-0.050101
3.949,75.4094,-0.050101
3.980,75.4094,-0.050101
4.011,75.4094,-0.049517
4.042,75.4094,-0.049517
4.073,75.4094,-0.049517
4.104,75.4090,-0.049517
4.135,75.4079,-0.049517
4.167,75.4060,-0.049517
4.198,75.4034,-0.049517
4.229,75.4002,-0.049517
4.261,75.3961,-0.048925
4.292,75.3912,-0.048925
4.323,75.3858,-0.048925
4.355,75.3793,-0.048925
4.386,75.3724,-0.048925
4.416,75.3647,-0.048925
4.447,75.3564,-0.048925
4.477,75.3477,-0.048925
4.508,75.3377,-0.048925
4.538,75.3275,-0.042121
4.569,75.3163,-0.042121
4.600,75.3042,-0.042121
4.632,75.2913,-0.042121
4.663,75.2778,-0.042121
4.694,75.2636,-0.042121
4.725,75.2485,-0.042121
4.756,75.2330,-0.026688
4.786,75.2171,-0.026688
4.817,75.1999,-0.026688
4.848,75.1821,-0.026688
4.879,75.1638,-0.026688
4.915,75.1405,-0.026688
4.956,75.1149,-0.026688
4.987,75.0936,-0.008639
5.017,75.0725,-0.008639
5.049,75.0486,-0.008639
5.081,75.0255,-0.008639
5.111,75.0011,-0.008639
5.144,74.9754,-0.008639
5.174,74.9506,-0.008639
5.205,74.9244,-0.008639
5.235,74.8981,0.008291
5.267,74.8701,0.008291
5.298,74.8411,0.008291
5.330,74.8113,0.008291
5.359,74.7834,0.008291
5.391,74.7526,0.008291
5.420,74.7225,0.008291
5.456,74.6855,0.008291
5.482,74.6581,0.020910
5.513,74.6245,0.020910
5.544,74.5910,0.020910
5.575,74.5554,0.020910
5.605,74.5215,0.020910
5.636,74.4853,0.020910
5.666,74.4497,0.020910
5.698,74.4108,0.020910
5.728,74.3730,0.020910
5.759,74.3332,0.028316
5.794,74.2884,0.028316
5.821,74.2535,0.028316
5.852,74.2119,0.028316
5.882,74.1717,0.028316
5.913,74.1282,0.028316
5.945,74.0833,0.028316
5.973,74.0432,0.028316
6.004,73.9978,0.033463
6.035,73.9527,0.033463
6.066,73.9076,0.033463
6.097,73.8600,0.033463
6.128,73.8140,0.033463
6.165,73.7576,0.033463
6.205,73.6976,0.033463
6.237,73.6503,0.038234
6.267,73.6046,0.038234
6.298,73.5579,0.038234
6.330,73.5108,0.038234
6.359,73.4670,0.038234
6.389,73.4220,0.038234
6.420,73.3745,0.038234
6.451,73.3280,0.038234
6.482,73.2820,0.041123
6.512,73.2368,0.041123
6.543,73.1903,0.041123
6.574,73.1434,0.041123
6.605,73.0979,0.041123
6.636,73.0510,0.041123
6.667,73.0057,0.041123
6.697,72.9595,0.041123
6.728,72.9136,0.038027
6.759,72.8674,0.038027
6.790,72.8201,0.038027
6.821,72.7743,0.038027
6.852,72.7264,0.038027
6.885,72.6787,0.038027
6.914,72.6340,0.038027
6.945,72.5882,0.038027
6.979,72.5375,0.038027
7.007,72.4957,0.021437
7.039,72.4472,0.021437
7.070,72.4004,0.021437
7.101,72.3548,0.021437
7.132,72.3078,0.021437
7.163,72.2604,0.021437
7.194,72.2154,0.021437
7.224,72.1695,0.021437
7.255,72.1231,0.008159
7.285,72.0775,0.008159
7.317,72.0305,0.008159
7.348,71.9827,0.008159
7.380,71.9358,0.008159
7.411,71.8882,0.008159
7.442,71.8428,0.008159
7.473,71.7951,0.007594
7.505,71.7494,0.007594
7.535,71.7050,0.007594
7.566,71.6629,0.007594
7.597,71.6187,0.007594
7.628,71.5775,0.007594
7.659,71.5349,0.007594
7.690,71.4948,0.007594
7.721,71.4536,0.007594
7.751,71.4154,0.007350
7.781,71.3776,0.007350
7.812,71.3389,0.007350
7.844,71.3017,0.007350
7.875,71.2649,0.007350
7.906,71.2283,0.007350
7.938,71.1926,0.007350
7.969,71.1576,0.007350
8.000,71.1245,0.007171
8.031,71.0916,0.007171
8.062,71.0591,0.007171
8.093,71.0280,0.007171
8.123,70.9971,0.007171
8.154,70.9675,0.007171
8.185,70.9383,0.007171
8.217,70.9089,0.007171
8.247,70.8808,0.007058
8.279,70.8533,0.007058
8.310,70.8268,0.007058
8.340,70.8018,0.007058
8.371,70.7768,0.007058
8.403,70.7524,0.007058
8.434,70.7288,0.007058
8.465,70.7058,0.007058
8.496,70.6836,0.007058
8.527,70.6622,0.006964
8.557,70.6421,0.006964
8.589,70.6213,0.006964
8.620,70.6029,0.006964
8.651,70.5836,0.006964
8.683,70.5659,0.006964
8.714,70.5485,0.006964
8.746,70.5323,0.006964
8.777,70.5161,0.006945
8.810,70.5009,0.006945
8.839,70.4876,0.006945
8.870,70.4746,0.006945
8.901,70.4618,0.006945
8.932,70.4500,0.006945
8.963,70.4391,0.006945
8.994,70.4283,0.006945
9.025,70.4189,0.006926
9.057,70.4096,0.006926
9.088,70.4015,0.006926
9.118,70.3943,0.006926
9.149,70.3875,0.006926
9.181,70.3813,0.006926
9.212,70.3761,0.006926
9.244,70.3714,0.006926
9.274,70.3675,0.006879
9.305,70.3644,0.006879
9.336,70.3621,0.006879
9.367,70.3605,0.006879
9.398,70.3596,0.006879
9.429,70.3594,0.006879
9.460,70.3594,0.006879
9.491,70.3594,0.006804
9.522,70.3594,0.006804
9.554,70.3594,0.006804
9.586,70.3594,0.006804
9.616,70.3599,0.006804
9.646,70.3610,0.006804
9.677,70.3628,0.006804
9.711,70.3658,0.006804
9.739,70.3689,0.006804
9.770,70.3729,0.006775
9.802,70.3778,0.006775
9.834,70.3835,0.006775
9.864,70.3896,0.006775
9.896,70.3969,0.006775
9.927,70.4046,0.006775
9.959,70.4133,0.006775
9.991,70.4227,0.006775
10.021,70.4325,0.006710
10.051,70.4433,0.006710
10.082,70.4544,0.006710
10.114,70.4668,0.006710
10.144,70.4793,0.006710
10.174,70.4926,0.006710
10.205,70.5072,0.006710
10.237,70.5220,0.006710
10.266,70.5375,0.006578
10.297,70.5536,0.006578
10.328,70.5711,0.006578
10.360,70.5894,0.006578
10.391,70.6078,0.006578
10.422,70.6273,0.006578
10.453,70.6477,0.006578
10.484,70.6683,0.006578
10.515,70.6891,0.006474
10.547,70.7125,0.006474
10.577,70.7349,0.006474
10.610,70.7607,0.006474
10.639,70.7828,0.006474
10.671,70.8091,0.006474
10.701,70.8339,0.006474
10.732,70.8614,0.006474
10.763,70.8884,0.006305
10.794,70.9168,0.006305
10.825,70.9454,0.006305
10.856,70.9749,0.006305
10.887,71.0050,0.006305
10.918,71.0360,0.006305
10.949,71.0684,0.006305
10.980,71.1004,0.006305
11.011,71.1330,0.006305
11.042,71.1676,0.006107
11.073,71.2020,0.006107
11.105,71.2389,0.006107
11.136,71.2743,0.006107
11.167,71.3114,0.006107
11.198,71.3494,0.006107
11.230,71.3888,0.006107
11.261,71.4273,0.005881
11.293,71.4685,0.005881
11.322,71.5068,0.005881
11.353,71.5474,0.005881
11.384,71.5899,0.005881
11.416,71.6341,0.005881
11.447,71.6775,0.005881
11.479,71.7229,0.005881
11.511,71.7685,0.005637
11.542,71.8158,0.005637
11.573,71.8608,0.005637
11.604,71.9073,0.005637
11.636,71.9552,0.005637
11.667,72.0018,0.005637
11.698,72.0503,0.005637
11.729,72.0948,0.005637
11.759,72.1406,0.005411
11.790,72.1871,0.005411
11.822,72.2344,0.005411
11.853,72.2820,0.005411
11.884,72.3277,0.005411
11.915,72.3746,0.005411
11.946,72.4205,0.005411
11.977,72.4670,0.005411
12.008,72.5140,0.005082
12.039,72.5600,0.005082
12.069,72.6057,0.005082
12.100,72.6528,0.005082
12.131,72.6981,0.005082
12.162,72.7453,0.005082
12.194,72.7931,0.005082
12.225,72.8387,0.005082
12.256,72.8862,0.004649
12.287,72.9315,0.004649
12.318,72.9790,0.004649
12.348,73.0243,0.004649
12.380,73.0718,0.004649
12.411,73.1179,0.004649
12.442,73.1654,0.004649
12.473,73.2107,0.004649
12.505,73.2598,0.004206
12.536,73.3058,0.004206
12.568,73.3538,0.004206
12.599,73.3998,0.004206
12.629,73.4456,0.004206
12.660,73.4913,0.004206
12.692,73.5394,0.004206
12.722,73.5863,0.004206
12.754,73.6325,0.003510
12.785,73.6786,0.003510
12.815,73.7252,0.003510
12.847,73.7717,0.003510
12.877,73.8183,0.003510
12.909,73.8645,0.003510
12.940,73.9108,0.003510
12.971,73.9567,0.003510
13.002,74.0009,0.003510
13.033,74.0461,0.002117
13.064,74.0887,0.002117
13.095,74.1319,0.002117
13.126,74.1740,0.002117
13.157,74.2145,0.002117
13.187,74.2552,0.002117
13.217,74.2919,0.002117
13.249,74.3333,-0.000630
13.280,74.3714,-0.000630
13.311,74.4086,-0.000630
13.342,74.4457,-0.000630
13.373,74.4813,-0.000630
13.403,74.5160,-0.000630
13.434,74.5517,-0.000630
13.470,74.5905,-0.000630
13.496,74.6181,-0.000630
13.527,74.6509,-0.006314
13.558,74.6827,-0.006314
13.589,74.7133,-0.006314
13.621,74.7447,-0.006314
13.651,74.7732,-0.006314
13.683,74.8026,-0.006314
13.713,74.8305,-0.006314
13.745,74.8576,-0.017061
13.776,74.8844,-0.017061
13.807,74.9104,-0.017061
13.837,74.9357,-0.017061
13.869,74.9603,-0.017061
13.901,74.9849,-0.017061
13.932,75.0074,-0.017061
13.963,75.0298,-0.017061
13.993,75.0509,-0.032955
14.024,75.0716,-0.032955
14.055,75.0914,-0.032955
14.086,75.1110,-0.032955
14.117,75.1296,-0.032955
14.147,75.1473,-0.032955
14.178,75.1644,-0.032955
14.210,75.1811,-0.032955
14.241,75.1973,-0.051089
14.272,75.2118,-0.051089
14.303,75.2263,-0.051089
14.334,75.2397,-0.051089
14.365,75.2526,-0.051089
14.398,75.2654,-0.051089
14.426,75.2758,-0.051089
14.457,75.2867,-0.051089
14.488,75.2965,-0.051089
14.518,75.3055,-0.067275
14.550,75.3142,-0.067275
14.581,75.3220,-0.067275
14.613,75.3291,-0.067275
14.644,75.3356,-0.067275
14.675,75.3409,-0.067275
14.706,75.3459,-0.067275
14.737,75.3498,-0.077758
14.767,75.3532,-0.077758
14.800,75.3559,-0.077758
14.830,75.3578,-0.077758
14.862,75.3590,-0.077758
14.892,75.3594,-0.077758
14.923,75.3594,-0.077758
14.955,75.3594,-0.077758
14.987,75.3594,-0.079480
15.017,75.3594,-0.079480
15.049,75.3594,-0.079480
15.081,75.3594,-0.079480
15.110,75.3594,-0.079480
15.142,75.3594,-0.079480
15.173,75.3594,-0.079480
15.204,75.3594,-0.079480
15.234,75.3594,-0.079480
15.265,75.3594,-0.074097
15.297,75.3594,-0.074097
15.328,75.3594,-0.074097
15.354,75.3594,-0.074097
15.390,75.3594,-0.074097
15.422,75.3594,-0.074097
15.452,75.3594,-0.074097
15.484,75.3594,-0.068357
15.518,75.3594,-0.068357
15.546,75.3594,-0.068357
15.576,75.3594,-0.068357
15.607,75.3594,-0.068357
15.638,75.3594,-0.068357
15.669,75.3594,-0.068357
15.702,75.3594,-0.068357
15.731,75.3594,-0.068357
15.762,75.3594,-0.064903
15.793,75.3594,-0.064903
15.824,75.3594,-0.064903
15.855,75.3594,-0.064903
15.886,75.3594,-0.064903
15.918,75.3594,-0.064903
15.949,75.3594,-0.064903
15.979,75.3594,-0.062438
16.009,75.3594,-0.062438
16.041,75.3594,-0.062438
16.072,75.3594,-0.062438
16.103,75.3594,-0.062438
16.134,75.3594,-0.062438
16.165,75.3594,-0.062438
16.195,75.3594,-0.062438
16.226,75.3594,-0.062438
16.257,75.3594,-0.060490
16.288,75.3594,-0.060490
16.318,75.3594,-0.060490
16.348,75.3594,-0.060490
16.378,75.3594,-0.060490
16.409,75.3594,-0.060490
16.439,75.3594,-0.060490
16.471,75.3594,-0.060490
16.502,75.3594,-0.060490
16.533,75.3594,-0.058881
16.563,75.3594,-0.058881
16.594,75.3594,-0.058881
16.626,75.3594,-0.058881
16.657,75.3594,-0.058881
16.688,75.3594,-0.058881
16.719,75.3594,-0.058881
16.751,75.3594,-0.058881
16.782,75.3594,-0.057554
16.813,75.3594,-0.057554
16.843,75.3594,-0.057554
16.874,75.3594,-0.057554
16.905,75.3594,-0.057554
16.936,75.3594,-0.057554
16.968,75.3594,-0.057554
16.999,75.3594,-0.056396
17.030,75.3594,-0.056396
17.061,75.3594,-0.056396
17.093,75.3594,-0.056396
17.124,75.3594,-0.056396
17.155,75.3594,-0.056396
17.186,75.3594,-0.056396
17.217,75.3594,-0.056396
17.248,75.3594,-0.056396
17.279,75.3594,-0.056396
17.310,75.3594,-0.055427
17.341,75.3594,-0.055427
17.372,75.3594,-0.055427
17.403,75.3594,-0.055427
17.433,75.3594,-0.055427
17.465,75.3594,-0.055427
17.495,75.3594,-0.055427
17.525,75.3594,-0.054496
17.560,75.3594,-0.054496
17.588,75.3594,-0.054496
17.618,75.3594,-0.054496
17.649,75.3594,-0.054496
17.680,75.3594,-0.054496
17.711,75.3594,-0.054496
17.744,75.3594,-0.054496
17.772,75.3594,-0.053630
17.804,75.3594,-0.053630
17.835,75.3594,-0.053630
17.866,75.3594,-0.053630
17.899,75.3594,-0.053630
17.928,75.3594,-0.053630
17.959,75.3594,-0.053630
17.990,75.3594,-0.053630
18.021,75.3594,-0.052905
18.051,75.3594,-0.052905
18.082,75.3594,-0.052905
18.113,75.3594,-0.052905
18.144,75.3594,-0.052905
18.175,75.3594,-0.052905
18.206,75.3594,-0.052905
18.237,75.3594,-0.052218
18.268,75.3594,-0.052218
18.298,75.3594,-0.052218
18.329,75.3594,-0.052218
18.359,75.3594,-0.052218
18.390,75.3594,-0.052218
18.421,75.3594,-0.052218
18.452,75.3594,-0.052218
18.483,75.3594,-0.052218
18.515,75.3594,-0.051597
18.547,75.3594,-0.051597
18.579,75.3594,-0.051597
18.609,75.3594,-0.051597
18.640,75.3594,-0.051597
18.670,75.3594,-0.051597
18.701,75.3594,-0.051597
18.732,75.3594,-0.051597
18.763,75.3594,-0.050957
18.793,75.3594,-0.050957
18.824,75.3594,-0.050957
18.856,75.3594,-0.050957
18.886,75.3594,-0.050957
18.917,75.3594,-0.050957
18.947,75.3594,-0.050957
18.978,75.3594,-0.050957
19.009,75.3594,-0.050957
19.042,75.3594,-0.050364
19.072,75.3594,-0.050364
19.104,75.3594,-0.050364
19.134,75.3594,-0.050364
19.167,75.3592,-0.050364
19.196,75.3586,-0.050364
19.227,75.3573,-0.050364
19.259,75.3552,-0.049894
19.291,75.3521,-0.049894
19.322,75.3486,-0.049894
19.353,75.3442,-0.049894
19.384,75.3392,-0.049894
19.415,75.3334,-0.049894
19.446,75.3268,-0.049894
19.477,75.3194,-0.049894
19.508,75.3115,-0.046167
19.539,75.3031,-0.046167
19.570,75.2935,-0.046167
19.601,75.2832,-0.046167
19.632,75.2727,-0.046167
19.663,75.2609,-0.046167
19.693,75.2486,-0.046167
19.725,75.2353,-0.046167
19.757,75.2212,-0.033435
19.788,75.2068,-0.033435
19.818,75.1918,-0.033435
19.849,75.1757,-0.033435
19.880,75.1593,-0.033435
19.911,75.1420,-0.033435
19.942,75.1237,-0.033435
19.974,75.1036,-0.033435
20.005,75.0843,-0.014953
20.035,75.0646,-0.014953
20.066,75.0440,-0.014953
20.097,75.0218,-0.014953
20.128,74.9992,-0.014953
20.159,74.9760,-0.014953
20.189,74.9526,-0.014953
20.221,74.9274,-0.014953
20.253,74.9012,-0.014953
20.283,74.8759,0.002823
20.314,74.8486,0.002823
20.345,74.8209,0.002823
20.376,74.7933,0.002823
20.407,74.7637,0.002823
20.438,74.7339,0.002823
20.470,74.7023,0.002823
20.501,74.6714,0.017183
20.532,74.6400,0.017183
20.564,74.6057,0.017183
20.595,74.5714,0.017183
20.626,74.5370,0.017183
20.658,74.5017,0.017183
20.688,74.4668,0.017183
20.720,74.4303,0.026048
20.750,74.3941,0.026048
20.781,74.3566,0.026048
20.814,74.3141,0.026048
20.843,74.2781,0.026048
20.876,74.2346,0.026048
20.905,74.1975,0.026048
20.936,74.1562,0.026048
20.966,74.1148,0.026048
20.997,74.0710,0.031572
21.029,74.0275,0.031572
21.059,73.9832,0.031572
21.091,73.9379,0.031572
21.122,73.8923,0.031572
21.153,73.8457,0.031572
21.184,73.7984,0.031572
21.215,73.7529,0.031572
21.247,73.7046,0.031572
21.277,73.6596,0.036748
21.307,73.6126,0.036748
21.339,73.5657,0.036748
21.369,73.5203,0.036748
21.400,73.4752,0.036748
21.432,73.4271,0.036748
21.463,73.3806,0.036748
21.494,73.3323,0.036748
21.525,73.2871,0.040512
21.558,73.2379,0.040512
21.588,73.1921,0.040512
21.620,73.1437,0.040512
21.651,73.0984,0.040512
21.682,73.0513,0.040512
21.713,73.0060,0.040512
21.744,72.9593,0.040512
21.775,72.9123,0.040512
21.806,72.8650,0.041114
21.838,72.8176,0.041114
21.870,72.7698,0.041114
21.901,72.7231,0.041114
21.933,72.6756,0.041114
21.963,72.6306,0.041114
21.994,72.5832,0.041114
22.024,72.5388,0.025182
22.055,72.4916,0.025182
22.086,72.4462,0.025182
22.116,72.3992,0.025182
22.147,72.3538,0.025182
22.180,72.3050,0.025182
22.210,72.2605,0.025182
22.240,72.2139,0.025182
22.272,72.1674,0.008846
22.303,72.1199,0.008846
22.334,72.0744,0.008846
22.365,72.0275,0.008846
22.396,71.9807,0.008846
22.427,71.9335,0.008846
22.458,71.8873,0.008846
22.489,71.8400,0.008846
22.520,71.7954,0.007745
22.550,71.7490,0.007745
22.581,71.7045,0.007745
22.613,71.6584,0.007745
22.644,71.6146,0.007745
22.675,71.5707,0.007745
22.706,71.5287,0.007745
22.738,71.4857,0.007745
22.769,71.4456,0.007387
22.803,71.3986,0.007387
22.830,71.3659,0.007387
22.862,71.3265,0.007387
22.892,71.2888,0.007387
22.924,71.2502,0.007387
22.955,71.2135,0.007387
22.989,71.1741,0.007387
23.016,71.1438,0.007387
23.046,71.1100,0.007199
23.077,71.0761,0.007199
23.108,71.0435,0.007199
23.139,71.0106,0.007199
23.171,70.9790,0.007199
23.202,70.9476,0.007199
23.233,70.9170,0.007199
23.264,70.8883,0.007142
23.296,70.8592,0.007142
23.326,70.8320,0.007142
23.357,70.8041,0.007142
23.388,70.7781,0.007142
23.421,70.7512,0.007142
23.451,70.7270,0.007142
23.482,70.7024,0.007142
23.511,70.6802,0.007058
23.542,70.6573,0.007058
23.573,70.6353,0.007058
23.605,70.6127,0.007058
23.637,70.5922,0.007058
23.667,70.5723,0.007058
23.698,70.5536,0.007058
23.730,70.5342,0.007058
23.761,70.5166,0.006983
23.792,70.4993,0.006983
23.823,70.4833,0.006983
23.853,70.4681,0.006983
23.884,70.4534,0.006983
23.915,70.4391,0.006983
23.947,70.4255,0.006983
23.977,70.4129,0.006983
24.008,70.4012,0.006983
24.039,70.3897,0.006964
24.071,70.3795,0.006964
24.102,70.3695,0.006964
24.135,70.3600,0.006964
24.164,70.3523,0.006964
24.196,70.3446,0.006964
24.229,70.3373,0.006964
24.260,70.3315,0.006964
24.293,70.3256,0.006917
24.321,70.3217,0.006917
24.352,70.3178,0.006917
24.383,70.3146,0.006917
24.414,70.3122,0.006917
24.444,70.3106,0.006917
24.475,70.3096,0.006917
24.506,70.3094,0.006917
24.537,70.3094,0.006926
24.570,70.3094,0.006926
24.598,70.3094,0.006926
24.629,70.3095,0.006926
24.662,70.3105,0.006926
24.692,70.3121,0.006926
24.724,70.3145,0.006926
24.755,70.3177,0.006926
24.786,70.3214,0.006907
24.817,70.3261,0.006907
24.847,70.3312,0.006907
24.878,70.3373,0.006907
24.912,70.3445,0.006907
24.940,70.3513,0.006907
24.971,70.3596,0.006907
25.002,70.3684,0.006907
25.033,70.3780,0.006766
25.064,70.3881,0.006766
25.096,70.3994,0.006766
25.126,70.4108,0.006766
25.156,70.4237,0.006766
25.188,70.4368,0.006766
25.219,70.4510,0.006766
25.251,70.4659,0.006634
25.281,70.4810,0.006634
25.312,70.4972,0.006634
25.344,70.5145,0.006634
25.375,70.5324,0.006634
25.405,70.5499,0.006634
25.436,70.5692,0.006634
25.468,70.5893,0.006634
25.497,70.6089,0.006493
25.529,70.6307,0.006493
25.559,70.6521,0.006493
25.590,70.6751,0.006493
25.621,70.6981,0.006493
25.652,70.7226,0.006493
25.683,70.7472,0.006493
25.716,70.7745,0.006493
25.746,70.7998,0.006333
25.778,70.8279,0.006333
25.808,70.8552,0.006333
25.840,70.8853,0.006333
25.871,70.9133,0.006333
25.901,70.9430,0.006333
25.933,70.9741,0.006333
25.964,71.0052,0.006333
25.995,71.0385,0.006154
26.025,71.0705,0.006154
26.056,71.1033,0.006154
26.087,71.1380,0.006154
26.119,71.1736,0.006154
26.149,71.2079,0.006154
26.180,71.2446,0.006154
26.211,71.2837,0.006154
26.242,71.3207,0.005957
26.273,71.3589,0.005957
26.304,71.3984,0.005957
26.335,71.4392,0.005957
26.366,71.4797,0.005957
26.396,71.5207,0.005957
26.427,71.5626,0.005957
26.459,71.6070,0.005957
26.490,71.6506,0.005759
26.522,71.6960,0.005759
26.553,71.7423,0.005759
26.585,71.7894,0.005759
26.616,71.8362,0.005759
26.647,71.8827,0.005759
26.677,71.9274,0.005759
26.708,71.9740,0.005759
26.740,72.0210,0.005449
26.770,72.0678,0.005449
26.801,72.1134,0.005449
26.832,72.1604,0.005449
26.863,72.2066,0.005449
26.894,72.2533,0.005449
26.925,72.2998,0.005449
26.957,72.3482,0.005449
26.989,72.3951,0.005166
27.020,72.4427,0.005166
27.051,72.4884,0.005166
27.081,72.5347,0.005166
27.113,72.5817,0.005166
27.145,72.6290,0.005166
27.175,72.6744,0.005166
27.207,72.7218,0.005166
27.237,72.7668,0.005166
27.268,72.8147,0.004799
27.299,72.8592,0.004799
27.329,72.9057,0.004799
27.360,72.9517,0.004799
27.391,72.9988,0.004799
27.422,73.0451,0.004799
27.453,73.0917,0.004799
27.484,73.1374,0.004253
27.515,73.1839,0.004253
27.546,73.2300,0.004253
27.577,73.2778,0.004253
27.608,73.3236,0.004253
27.639,73.3705,0.004253
27.671,73.4185,0.004253
27.700,73.4613,0.004253
27.734,73.5124,0.004253
27.763,73.5558,0.004253
27.794,73.6038,0.003557
27.820,73.6411,0.003557
27.856,73.6968,0.003557
27.887,73.7428,0.003557
27.918,73.7901,0.003557
27.949,73.8347,0.003557
27.981,73.8832,0.003557
28.012,73.9278,0.003557
28.043,73.9732,0.002324
28.074,74.0161,0.002324
28.104,74.0579,0.002324
28.134,74.0983,0.002324
28.165,74.1403,0.002324
28.196,74.1815,0.002324
28.226,74.2213,0.002324
28.258,74.2599,0.002324
28.288,74.2990,-0.000179
28.326,74.3441,-0.000179
28.366,74.3920,-0.000179
28.398,74.4306,-0.000179
28.429,74.4652,-0.000179
28.459,74.4999,-0.000179
28.490,74.5331,-0.000179
28.520,74.5650,-0.005533
28.551,74.5975,-0.005533
28.583,74.6299,-0.005533
28.613,74.6607,-0.005533
28.643,74.6898,-0.005533
28.675,74.7205,-0.005533
28.706,74.7495,-0.005533
28.738,74.7782,-0.005533
28.769,74.8059,-0.015791
28.800,74.8321,-0.015791
28.831,74.8583,-0.015791
28.861,74.8836,-0.015791
28.892,74.9074,-0.015791
28.923,74.9316,-0.015791
28.954,74.9541,-0.015791
28.985,74.9764,-0.015791
29.015,74.9976,-0.031327
29.047,75.0197,-0.031327
29.078,75.0391,-0.031327
29.108,75.0586,-0.031327
29.139,75.0777,-0.031327
29.170,75.0953,-0.031327
29.201,75.1121,-0.031327
29.232,75.1288,-0.031327
29.263,75.1448,-0.049452
29.294,75.1602,-0.049452
29.325,75.1742,-0.049452
29.357,75.1882,-0.049452
29.387,75.2007,-0.049452
29.418,75.2130,-0.049452
29.449,75.2247,-0.049452
29.481,75.2355,-0.049452
29.511,75.2451,-0.066023
29.541,75.2547,-0.066023
29.573,75.2630,-0.066023
29.605,75.2712,-0.066023
29.635,75.2780,-0.066023
29.665,75.2843,-0.066023
29.697,75.2903,-0.066023
29.727,75.2950,-0.066023
29.757,75.2990,-0.077240
29.788,75.3024,-0.077240
29.819,75.3053,-0.077240
29.850,75.3074,-0.077240
29.881,75.3088,-0.077240
29.913,75.3094,-0.077240
29.943,75.3094,-0.077240
29.974,75.3094,-0.077240
30.005,75.3094,-0.080073
30.036,75.3094,-0.080073
30.067,75.3094,-0.080073
30.103,75.3094,-0.080073
30.130,75.3094,-0.080073
30.161,75.3094,-0.080073
30.192,75.3094,-0.080073
30.225,75.3094,-0.080073
30.253,75.3094,-0.075067
30.286,75.3094,-0.075067
30.315,75.3094,-0.075067
30.346,75.3094,-0.075067
30.380,75.3094,-0.075067
30.409,75.3094,-0.075067
30.439,75.3094,-0.075067
30.469,75.3094,-0.075067
30.501,75.3094,-0.069035
30.531,75.3094,-0.069035
30.562,75.3094,-0.069035
30.593,75.3094,-0.069035
30.624,75.3094,-0.069035
30.655,75.3094,-0.069035
30.685,75.3094,-0.069035
30.716,75.3094,-0.069035
30.751,75.3094,-0.069035
30.778,75.3094,-0.065487
30.809,75.3094,-0.065487
30.839,75.3094,-0.065487
30.870,75.3094,-0.065487
30.901,75.3094,-0.065487
30.932,75.3094,-0.065487
30.963,75.3094,-0.065487
30.994,75.3094,-0.065487
31.026,75.3094,-0.065487
31.056,75.3094,-0.062908
31.087,75.3094,-0.062908
31.117,75.3094,-0.062908
31.148,75.3094,-0.062908
31.181,75.3094,-0.062908
31.211,75.3094,-0.062908
31.243,75.3094,-0.060932
31.274,75.3094,-0.060932
31.305,75.3094,-0.060932
31.337,75.3094,-0.060932
31.368,75.3094,-0.060932
31.399,75.3094,-0.060932
31.431,75.3094,-0.060932
31.461,75.3094,-0.060932
31.492,75.3094,-0.060932
31.523,75.3094,-0.059248
31.555,75.3094,-0.059248
31.585,75.3094,-0.059248
31.616,75.3094,-0.059248
31.647,75.3094,-0.059248
31.679,75.3094,-0.059248
31.710,75.3094,-0.059248
31.741,75.3094,-0.057827
31.772,75.3094,-0.057827
31.806,75.3094,-0.057827
31.834,75.3094,-0.057827
31.868,75.3094,-0.057827
31.896,75.3094,-0.057827
31.927,75.3094,-0.057827
31.959,75.3094,-0.057827
31.996,75.3094,-0.056698
32.037,75.3094,-0.056698
32.067,75.3094,-0.056698
32.099,75.3094,-0.056698
32.129,75.3094,-0.056698
32.161,75.3094,-0.056698
32.191,75.3094,-0.056698
32.222,75.3094,-0.056698
32.253,75.3094,-0.056698
32.283,75.3094,-0.055719
32.314,75.3094,-0.055719
32.346,75.3094,-0.055719
32.377,75.3094,-0.055719
32.408,75.3094,-0.055719
32.441,75.3094,-0.055719
32.471,75.3094,-0.055719
32.503,75.3094,-0.055719
32.533,75.3094,-0.054787
32.567,75.3094,-0.054787
32.595,75.3094,-0.054787
32.626,75.3094,-0.054787
32.657,75.3094,-0.054787
32.688,75.3094,-0.054787
32.722,75.3094,-0.054787
32.750,75.3094,-0.054787
32.781,75.3094,-0.053940
32.812,75.3094,-0.053940
32.842,75.3094,-0.053940
32.873,75.3094,-0.053940
32.904,75.3094,-0.053940
32.936,75.3094,-0.053940
32.967,75.3094,-0.053940
32.999,75.3094,-0.053188
33.030,75.3094,-0.053188
33.060,75.3094,-0.053188
33.092,75.3094,-0.053188
33.122,75.3094,-0.053188
33.153,75.3094,-0.053188
33.184,75.3094,-0.053188
33.215,75.3094,-0.053188
33.246,75.3094,-0.052501
33.277,75.3094,-0.052501
33.308,75.3094,-0.052501
33.338,75.3094,-0.052501
33.371,75.3094,-0.052501
33.404,75.3094,-0.052501
33.432,75.3094,-0.052501
33.466,75.3094,-0.052501
33.495,75.3094,-0.052501
33.526,75.3094,-0.051842
33.556,75.3094,-0.051842
33.588,75.3094,-0.051842
33.618,75.3094,-0.051842
33.649,75.3094,-0.051842
33.681,75.3094,-0.051842
33.712,75.3094,-0.051842
33.743,75.3094,-0.051842
33.774,75.3094,-0.051268
33.806,75.3094,-0.051268
33.836,75.3094,-0.051268
33.868,75.3094,-0.051268
33.899,75.3094,-0.051268
33.930,75.3094,-0.051268
33.961,75.3094,-0.051268
33.991,75.3094,-0.050713
34.023,75.3094,-0.050713
34.054,75.3094,-0.050713
34.085,75.3094,-0.050713
34.116,75.3094,-0.050713
34.147,75.3093,-0.050713
34.177,75.3088,-0.050713
34.208,75.3074,-0.050713
34.239,75.3052,-0.050713
34.270,75.3024,-0.050120
34.301,75.2988,-0.050120
34.331,75.2946,-0.050120
34.363,75.2897,-0.050120
34.393,75.2840,-0.050120
34.424,75.2775,-0.050120
34.460,75.2691,-0.050120
34.486,75.2624,-0.045697
34.518,75.2537,-0.045697
34.548,75.2445,-0.045697
34.579,75.2341,-0.045697
34.610,75.2238,-0.045697
34.641,75.2122,-0.045697
34.671,75.2002,-0.045697
34.702,75.1871,-0.045697
34.733,75.1737,-0.045697
34.763,75.1593,-0.032296
34.794,75.1443,-0.032296
34.825,75.1291,-0.032296
34.855,75.1124,-0.032296
34.887,75.0945,-0.032296
34.919,75.0763,-0.032296
34.949,75.0577,-0.032296
34.980,75.0388,-0.032296
35.010,75.0188,-0.013702
35.041,74.9976,-0.013702
35.072,74.9761,-0.013702
35.104,74.9534,-0.013702
35.140,74.9264,-0.013702
35.166,74.9061,-0.013702
35.198,74.8806,-0.013702
35.229,74.8561,-0.013702
35.260,74.8293,0.003952
35.291,74.8030,0.003952
35.322,74.7751,0.003952
35.352,74.7477,0.003952
35.383,74.7183,0.003952
35.414,74.6884,0.003952
35.446,74.6575,0.003952
35.477,74.6271,0.003952
35.508,74.5953,0.017964
35.538,74.5628,0.017964
35.569,74.5305,0.017964
35.600,74.4962,0.017964
35.632,74.4602,0.017964
35.663,74.4236,0.017964
35.694,74.3886,0.017964
35.725,74.3512,0.017964
35.756,74.3143,0.026631
35.787,74.2753,0.026631
35.817,74.2373,0.026631
35.848,74.1979,0.026631
35.878,74.1567,0.026631
35.910,74.1149,0.026631
35.940,74.0746,0.026631
35.971,74.0322,0.026631
36.003,73.9879,0.032099
36.032,73.9445,0.032099
36.063,73.9006,0.032099
36.095,73.8546,0.032099
36.125,73.8076,0.032099
36.157,73.7602,0.032099
36.187,73.7163,0.032099
36.218,73.6699,0.032099
36.249,73.6234,0.037162
36.280,73.5759,0.037162
36.311,73.5308,0.037162
36.342,73.4836,0.037162
36.373,73.4376,0.037162
36.404,73.3898,0.037162
36.434,73.3462,0.037162
36.465,73.2980,0.037162
36.496,73.2525,0.040709
36.528,73.2050,0.040709
36.558,73.1593,0.040709
36.589,73.1118,0.040709
36.621,73.0651,0.040709
36.652,73.0177,0.040709
36.683,72.9722,0.040709
36.715,72.9244,0.040709
36.745,72.8793,0.040992
36.775,72.8330,0.040992
36.806,72.7879,0.040992
36.838,72.7399,0.040992
36.869,72.6937,0.040992
36.901,72.6460,0.040992
36.932,72.5979,0.040992
36.963,72.5527,0.040992
36.993,72.5068,0.024843
37.024,72.4602,0.024843
37.055,72.4132,0.024843
37.086,72.3673,0.024843
37.117,72.3215,0.024843
37.148,72.2740,0.024843
37.180,72.2274,0.024843
37.210,72.1813,0.024843
37.242,72.1330,0.008611
37.271,72.0892,0.008611
37.303,72.0424,0.008611
37.333,71.9957,0.008611
37.364,71.9506,0.008611
37.394,71.9049,0.008611
37.426,71.8581,0.008611
37.456,71.8128,0.008611
37.487,71.7660,0.007660
37.518,71.7200,0.007660
37.549,71.6741,0.007660
37.580,71.6296,0.007660
37.611,71.5837,0.007660
37.641,71.5423,0.007660
37.674,71.4967,0.007660
37.703,71.4565,0.007660
37.735,71.4152,0.007660
37.765,71.3755,0.007387
37.797,71.3348,0.007387
37.827,71.2960,0.007387
37.857,71.2588,0.007387
37.888,71.2202,0.007387
37.919,71.1841,0.007387
37.951,71.1463,0.007387
37.982,71.1106,0.007387
38.013,71.0760,0.007199
38.045,71.0412,0.007199
38.074,71.0095,0.007199
38.106,70.9765,0.007199
38.136,70.9453,0.007199
38.168,70.9133,0.007199
38.198,70.8835,0.007199
38.228,70.8546,0.007199
38.259,70.8256,0.007095
38.290,70.7970,0.007095
38.321,70.7700,0.007095
38.352,70.7428,0.007095
38.383,70.7172,0.007095
38.413,70.6922,0.007095
38.443,70.6672,0.007095
38.479,70.6402,0.007095
38.506,70.6202,0.007095
38.537,70.5976,0.007086
38.566,70.5764,0.007086
38.597,70.5558,0.007086
38.628,70.5354,0.007086
38.660,70.5158,0.007086
38.690,70.4973,0.007086
38.721,70.4788,0.007086
38.752,70.4614,0.007124
38.783,70.4446,0.007124
38.814,70.4286,0.007124
38.845,70.4128,0.007124
38.876,70.3984,0.007124
38.909,70.3837,0.007124
38.938,70.3711,0.007124
38.969,70.3592,0.007124
38.999,70.3477,0.007030
39.035,70.3351,0.007030
39.061,70.3265,0.007030
39.092,70.3171,0.007030
39.123,70.3084,0.007030
39.154,70.3003,0.007030
39.184,70.2930,0.007030
39.214,70.2867,0.007030
39.245,70.2807,0.006907
39.276,70.2754,0.006907
39.307,70.2711,0.006907
39.337,70.2673,0.006907
39.368,70.2642,0.006907
39.399,70.2620,0.006907
39.431,70.2604,0.006907
39.461,70.2595,0.006907
39.493,70.2594,0.006879
39.523,70.2594,0.006879
39.554,70.2594,0.006879
39.585,70.2594,0.006879
39.616,70.2594,0.006879
39.647,70.2598,0.006879
39.678,70.2609,0.006879
39.709,70.2626,0.006879
39.739,70.2651,0.006879
39.771,70.2685,0.006898
39.802,70.2725,0.006898
39.834,70.2775,0.006898
39.864,70.2828,0.006898
39.895,70.2890,0.006898
39.926,70.2957,0.006898
39.957,70.3036,0.006898
39.988,70.3119,0.006813
40.020,70.3213,0.006813
40.050,70.3308,0.006813
40.082,70.3419,0.006813
40.114,70.3533,0.006813
40.146,70.3659,0.006813
40.176,70.3782,0.006813
40.206,70.3912,0.006813
40.237,70.4055,0.006644
40.268,70.4205,0.006644
40.298,70.4361,0.006644
40.330,70.4525,0.006644
40.361,70.4697,0.006644
40.392,70.4875,0.006644
40.423,70.5067,0.006644
40.455,70.5262,0.006644
40.487,70.5470,0.006644
40.518,70.5680,0.006531
40.549,70.5896,0.006531
40.580,70.6115,0.006531
40.611,70.6346,0.006531
40.641,70.6575,0.006531
40.673,70.6826,0.006531
40.703,70.7068,0.006531
40.735,70.7334,0.006343
40.769,70.7628,0.006343
40.797,70.7871,0.006343
40.827,70.8156,0.006343
40.858,70.8434,0.006343
40.889,70.8729,0.006343
40.919,70.9027,0.006343
40.950,70.9337,0.006343
40.981,70.9647,0.006343
41.012,70.9980,0.006192
41.044,71.0318,0.006192
41.075,71.0665,0.006192
41.106,71.0994,0.006192
41.136,71.1348,0.006192
41.166,71.1692,0.006192
41.198,71.2067,0.006192
41.229,71.2448,0.006089
41.262,71.2862,0.006089
41.292,71.3239,0.006089
41.321,71.3599,0.006089
41.352,71.4009,0.006089
41.382,71.4401,0.006089
41.413,71.4820,0.006089
41.444,71.5248,0.006089
41.475,71.5688,0.006089
41.509,71.6160,0.005778
41.537,71.6569,0.005778
41.569,71.7032,0.005778
41.599,71.7492,0.005778
41.631,71.7959,0.005778
41.662,71.8426,0.005778
41.696,71.8938,0.005778
41.724,71.9368,0.005778
41.755,71.9826,0.005467
41.786,72.0300,0.005467
41.818,72.0763,0.005467
41.849,72.1226,0.005467
41.880,72.1695,0.005467
41.911,72.2160,0.005467
41.942,72.2623,0.005467
41.972,72.3080,0.005467
42.003,72.3545,0.005185
42.035,72.4018,0.005185
42.065,72.4473,0.005185
42.097,72.4942,0.005185
42.127,72.5403,0.005185
42.158,72.5871,0.005185
42.189,72.6338,0.005185
42.220,72.6789,0.005185
42.251,72.7255,0.005185
42.282,72.7735,0.004771
42.312,72.8181,0.004771
42.344,72.8664,0.004771
42.375,72.9128,0.004771
42.406,72.9583,0.004771
42.437,73.0059,0.004771
42.468,73.0524,0.004771
42.499,73.0983,0.004301
42.530,73.1451,0.004301
42.561,73.1917,0.004301
42.593,73.2382,0.004301
42.622,73.2843,0.004301
42.653,73.3297,0.004301
42.685,73.3771,0.004301
42.716,73.4235,0.004301
42.747,73.4717,0.004301
42.778,73.5170,0.003632
42.811,73.5660,0.003632
42.841,73.6104,0.003632
42.872,73.6583,0.003632
42.903,73.7042,0.003632
42.933,73.7498,0.003632
42.964,73.7968,0.003632
42.995,73.8411,0.003632
43.025,73.8852,0.003632
43.057,73.9306,0.002343
43.086,73.9715,0.002343
43.117,74.0143,0.002343
43.148,74.0574,0.002343
43.179,74.0989,0.002343
43.210,74.1385,0.002343
43.241,74.1784,0.002343
43.271,74.2171,-0.000160
43.306,74.2603,-0.000160
43.334,74.2943,-0.000160
43.364,74.3316,-0.000160
43.396,74.3672,-0.000160
43.428,74.4043,-0.000160
43.457,74.4375,-0.000160
43.489,74.4721,-0.000160
43.518,74.5037,-0.005317
43.549,74.5370,-0.005317
43.579,74.5681,-0.005317
43.611,74.6003,-0.005317
43.642,74.6302,-0.005317
43.673,74.6610,-0.005317
43.704,74.6903,-0.005317
43.739,74.7229,-0.005317
43.766,74.7464,-0.005317
43.797,74.7734,-0.015405
43.828,74.7994,-0.015405
43.859,74.8248,-0.015405
43.891,74.8501,-0.015405
43.922,74.8744,-0.015405
43.953,74.8973,-0.015405
43.984,74.9202,-0.015405
44.014,74.9410,-0.030866
44.044,74.9621,-0.030866
44.076,74.9828,-0.030866
44.107,75.0029,-0.030866
44.138,75.0215,-0.030866
44.169,75.0395,-0.030866
44.201,75.0577,-0.030866
44.233,75.0751,-0.030866
44.263,75.0909,-0.049009
44.295,75.1064,-0.049009
44.325,75.1206,-0.049009
44.356,75.1345,-0.049009
44.387,75.1474,-0.049009
44.418,75.1601,-0.049009
44.449,75.1715,-0.049009
44.480,75.1825,-0.049009
44.512,75.1928,-0.065797
44.542,75.2022,-0.065797
44.573,75.2108,-0.065797
44.608,75.2200,-0.065797
44.635,75.2264,-0.065797
44.667,75.2331,-0.065797
44.698,75.2388,-0.065797
44.729,75.2438,-0.077391
44.763,75.2487,-0.077391
44.791,75.2520,-0.077391
44.824,75.2551,-0.077391
44.853,75.2569,-0.077391
44.884,75.2585,-0.077391
44.915,75.2592,-0.077391
44.946,75.2593,-0.077391
44.977,75.2593,-0.077391
45.008,75.2593,-0.080459
45.039,75.2593,-0.080459
45.071,75.2593,-0.080459
45.101,75.2593,-0.080459
45.132,75.2593,-0.080459
45.162,75.2593,-0.080459
45.193,75.2593,-0.080459
45.224,75.2593,-0.080459
45.255,75.2593,-0.075537
45.286,75.2593,-0.075537
45.317,75.2593,-0.075537
45.348,75.2593,-0.075537
45.379,75.2593,-0.075537
45.410,75.2593,-0.075537
45.440,75.2593,-0.075537
45.471,75.2593,-0.075537
45.501,75.2593,-0.075537
45.533,75.2593,-0.069392
45.567,75.2593,-0.069392
45.594,75.2593,-0.069392
45.626,75.2593,-0.069392
45.657,75.2593,-0.069392
45.688,75.2593,-0.069392
45.718,75.2593,-0.069392
45.749,75.2593,-0.069392
45.781,75.2593,-0.069392
45.812,75.2593,-0.065750
45.843,75.2593,-0.065750
45.874,75.2593,-0.065750
45.904,75.2593,-0.065750
45.935,75.2593,-0.065750
45.966,75.2593,-0.065750
45.997,75.2593,-0.065750
46.028,75.2593,-0.063153
46.059,75.2593,-0.063153
46.090,75.2593,-0.063153
46.121,75.2593,-0.063153
46.152,75.2593,-0.063153
46.183,75.2593,-0.063153
46.215,75.2593,-0.063153
46.245,75.2593,-0.063153
46.276,75.2593,-0.061130
46.307,75.2593,-0.061130
46.338,75.2593,-0.061130
46.369,75.2593,-0.061130
46.400,75.2593,-0.061130
46.431,75.2593,-0.061130
46.462,75.2593,-0.061130
46.493,75.2593,-0.061130
46.524,75.2593,-0.059464
46.555,75.2593,-0.059464
46.586,75.2593,-0.059464
46.616,75.2593,-0.059464
46.647,75.2593,-0.059464
46.678,75.2593,-0.059464
46.710,75.2593,-0.059464
46.741,75.2593,-0.059464
46.771,75.2593,-0.058015
46.801,75.2593,-0.058015
46.833,75.2593,-0.058015
46.864,75.2593,-0.058015
46.894,75.2593,-0.058015
46.925,75.2593,-0.058015
46.956,75.2593,-0.058015
46.990,75.2593,-0.058015
47.018,75.2593,-0.056839
47.049,75.2593,-0.056839
47.079,75.2593,-0.056839
47.110,75.2593,-0.056839
47.144,75.2593,-0.056839
47.173,75.2593,-0.056839
47.204,75.2593,-0.056839
47.235,75.2593,-0.055832
47.270,75.2593,-0.055832
47.299,75.2593,-0.055832
47.330,75.2593,-0.055832
47.360,75.2593,-0.055832
47.395,75.2593,-0.055832
47.423,75.2593,-0.055832
47.455,75.2593,-0.055832
47.484,75.2593,-0.055832
47.516,75.2593,-0.054919
47.547,75.2593,-0.054919
47.578,75.2593,-0.054919
47.610,75.2593,-0.054919
47.641,75.2593,-0.054919
47.673,75.2593,-0.054919
47.704,75.2593,-0.054919
47.735,75.2593,-0.054100
47.766,75.2593,-0.054100
47.797,75.2593,-0.054100
47.828,75.2593,-0.054100
47.860,75.2593,-0.054100
47.891,75.2593,-0.054100
47.921,75.2593,-0.054100
47.953,75.2593,-0.054100
47.983,75.2593,-0.054100
48.014,75.2593,-0.053366
48.044,75.2593,-0.053366
48.075,75.2593,-0.053366
48.106,75.2593,-0.053366
48.137,75.2593,-0.053366
48.169,75.2593,-0.053366
48.200,75.2593,-0.053366
48.231,75.2593,-0.052651
48.262,75.2593,-0.052651
48.293,75.2593,-0.052651
48.324,75.2593,-0.052651
48.356,75.2593,-0.052651
48.387,75.2593,-0.052651
48.418,75.2593,-0.052651
48.449,75.2593,-0.052651
48.480,75.2593,-0.052651
48.511,75.2593,-0.052039
48.542,75.2593,-0.052039
48.572,75.2593,-0.052039
48.603,75.2593,-0.052039
48.635,75.2593,-0.052039
48.666,75.2593,-0.052039
48.696,75.2593,-0.052039
48.727,75.2593,-0.052039
48.758,75.2593,-0.051456
48.789,75.2593,-0.051456
48.819,75.2593,-0.051456
48.851,75.2593,-0.051456
48.882,75.2593,-0.051456
48.913,75.2593,-0.051456
48.944,75.2593,-0.051456
48.975,75.2593,-0.051456
49.006,75.2593,-0.050835
49.036,75.2593,-0.050835
49.067,75.2593,-0.050835
49.099,75.2593,-0.050835
49.129,75.2593,-0.050835
49.160,75.2593,-0.050835
49.191,75.2590,-0.050835
49.222,75.2580,-0.050835
49.253,75.2562,-0.050835
49.284,75.2538,-0.050299
49.316,75.2505,-0.050299
49.345,75.2468,-0.050299
49.377,75.2420,-0.050299
49.408,75.2367,-0.050299
49.439,75.2305,-0.050299
49.470,75.2236,-0.050299
49.500,75.2162,-0.050299
49.531,75.2082,-0.046958
49.562,75.1990,-0.046958
49.593,75.1893,-0.046958
49.624,75.1785,-0.046958
49.655,75.1678,-0.046958
49.686,75.1557,-0.046958
49.717,75.1433,-0.046958
49.748,75.1300,-0.046958
49.779,75.1159,-0.034442
49.810,75.1012,-0.034442
49.841,75.0855,-0.034442
49.871,75.0690,-0.034442
49.902,75.0527,-0.034442
49.938,75.0318,-0.034442
49.980,75.0068,-0.034442
50.010,74.9875,-0.015875
50.041,74.9677,-0.015875
50.072,74.9462,-0.015875
50.103,74.9250,-0.015875
50.134,74.9022,-0.015875
50.165,74.8796,-0.015875
50.196,74.8550,-0.015875
50.227,74.8308,-0.015875
50.258,74.8047,0.001826
50.289,74.7791,0.001826
50.322,74.7510,0.001826
50.353,74.7234,0.001826
50.385,74.6940,0.001826
50.416,74.6653,0.001826
50.447,74.6356,0.001826
50.482,74.6005,0.001826
50.509,74.5739,0.016393
50.540,74.5412,0.016393
50.571,74.5094,0.016393
50.602,74.4752,0.016393
50.633,74.4420,0.016393
50.664,74.4069,0.016393
50.695,74.3718,0.016393
50.726,74.3347,0.016393
50.756,74.2995,0.025512
50.786,74.2626,0.025512
50.817,74.2244,0.025512
50.849,74.1829,0.025512
50.880,74.1444,0.025512
50.910,74.1047,0.025512
50.941,74.0625,0.025512
50.974,74.0187,0.025512
51.003,73.9780,0.031017
51.035,73.9340,0.031017
51.065,73.8903,0.031017
51.096,73.8439,0.031017
51.127,73.7994,0.031017
51.158,73.7533,0.031017
51.189,73.7065,0.031017
51.221,73.6585,0.031017
51.252,73.6127,0.031017
51.283,73.5646,0.035985
51.314,73.5194,0.035985
51.346,73.4706,0.035985
51.376,73.4250,0.035985
51.408,73.3772,0.035985
51.438,73.3331,0.035985
51.469,73.2861,0.035985
51.501,73.2391,0.039759
51.533,73.1907,0.039759
51.564,73.1449,0.039759
51.599,73.0918,0.039759
51.625,73.0520,0.039759
51.656,73.0060,0.039759
51.687,72.9595,0.039759
51.718,72.9130,0.039759
51.749,72.8671,0.040540
51.780,72.8199,0.040540
51.810,72.7750,0.040540
51.842,72.7273,0.040540
51.873,72.6817,0.040540
51.903,72.6340,0.040540
51.934,72.5891,0.040540
51.966,72.5413,0.040540
51.996,72.4967,0.025003
52.027,72.4487,0.025003
52.058,72.4029,0.025003
52.090,72.3543,0.025003
52.120,72.3094,0.025003
52.151,72.2641,0.025003
52.182,72.2172,0.025003
52.213,72.1690,0.025003
52.244,72.1233,0.008874
52.276,72.0760,0.008874
52.306,72.0312,0.008874
52.337,71.9832,0.008874
52.368,71.9378,0.008874
52.399,71.8899,0.008874
52.430,71.8452,0.008874
52.461,71.7978,0.008874
52.493,71.7510,0.007717
52.528,71.6976,0.007717
52.554,71.6593,0.007717
52.585,71.6132,0.007717
52.617,71.5664,0.007717
52.649,71.5222,0.007717
52.680,71.4795,0.007717
52.711,71.4350,0.007717
52.741,71.3950,0.007717
52.772,71.3539,0.007453
52.804,71.3130,0.007453
52.835,71.2735,0.007453
52.866,71.2331,0.007453
52.897,71.1950,0.007453
52.928,71.1575,0.007453
52.959,71.1210,0.007453
52.991,71.0848,0.007302
53.022,71.0492,0.007302
53.053,71.0146,0.007302
53.085,70.9796,0.007302
53.115,70.9477,0.007302
53.145,70.9154,0.007302
53.176,70.8841,0.007302
53.207,70.8535,0.007302
53.239,70.8225,0.007199
53.269,70.7925,0.007199
53.300,70.7650,0.007199
53.331,70.7368,0.007199
53.363,70.7086,0.007199
53.394,70.6819,0.007199
53.425,70.6552,0.007199
53.456,70.6310,0.007199
53.488,70.6062,0.007133
53.518,70.5830,0.007133
53.549,70.5598,0.007133
53.581,70.5371,0.007133
53.611,70.5164,0.007133
53.642,70.4957,0.007133
53.673,70.4752,0.007133
53.704,70.4560,0.007133
53.736,70.4369,0.007105
53.768,70.4185,0.007105
53.798,70.4018,0.007105
53.829,70.3854,0.007105
53.859,70.3702,0.007105
53.890,70.3555,0.007105
53.921,70.3413,0.007105
53.951,70.3277,0.007105
53.983,70.3148,0.007105
54.014,70.3029,0.007030
54.045,70.2913,0.007030
54.079,70.2797,0.007030
54.108,70.2708,0.007030
54.139,70.2619,0.007030
54.171,70.2531,0.007030
54.204,70.2448,0.007030
54.233,70.2386,0.007030
54.264,70.2325,0.006992
54.295,70.2269,0.006992
54.328,70.2219,0.006992
54.357,70.2183,0.006992
54.388,70.2150,0.006992
54.419,70.2125,0.006992
54.450,70.2107,0.006992
54.482,70.2097,0.006945
54.513,70.2093,0.006945
54.544,70.2093,0.006945
54.575,70.2093,0.006945
54.610,70.2093,0.006945
54.638,70.2093,0.006945
54.668,70.2093,0.006945
54.699,70.2093,0.006945
54.730,70.2094,0.006945
54.761,70.2100,0.006945
54.791,70.2115,0.006907
54.822,70.2136,0.006907
54.853,70.2165,0.006907
54.884,70.2200,0.006907
54.915,70.2244,0.006907
54.947,70.2296,0.006907
54.977,70.2352,0.006907
55.009,70.2420,0.006841
55.040,70.2491,0.006841
55.071,70.2573,0.006841
55.102,70.2661,0.006841
55.133,70.2752,0.006841
55.164,70.2857,0.006841
55.195,70.2964,0.006841
55.229,70.3096,0.006841
55.257,70.3203,0.006841
55.288,70.3337,0.006710
55.318,70.3471,0.006710
55.349,70.3611,0.006710
55.379,70.3760,0.006710
55.411,70.3927,0.006710
55.442,70.4098,0.006710
55.473,70.4268,0.006578
55.504,70.4452,0.006578
55.535,70.4639,0.006578
55.566,70.4833,0.006578
55.597,70.5042,0.006578
55.628,70.5249,0.006578
55.660,70.5470,0.006578
55.690,70.5690,0.006578
55.721,70.5925,0.006578
55.752,70.6165,0.006578
55.783,70.6408,0.006427
55.813,70.6661,0.006427
55.844,70.6917,0.006427
55.879,70.7220,0.006427
55.906,70.7454,0.006427
55.937,70.7746,0.006427
55.968,70.8034,0.006427
56.002,70.8359,0.006427
56.030,70.8634,0.006427
56.061,70.8950,0.006314
56.092,70.9273,0.006314
56.126,70.9627,0.006314
56.160,71.0004,0.006314
56.201,71.0450,0.006314
56.232,71.0802,0.006126
56.266,71.1200,0.006126
56.294,71.1527,0.006126
56.325,71.1899,0.006126
56.356,71.2275,0.006126
56.388,71.2694,0.006126
56.417,71.3057,0.006126
56.448,71.3472,0.006126
56.480,71.3874,0.005863
56.511,71.4297,0.005863
56.542,71.4730,0.005863
56.573,71.5154,0.005863
56.605,71.5609,0.005863
56.638,71.6095,0.005863
56.666,71.6509,0.005863
56.698,71.6970,0.005863
56.728,71.7436,0.005863
56.761,71.7920,0.005627
56.791,71.8375,0.005627
56.821,71.8816,0.005627
56.853,71.9304,0.005627
56.886,71.9804,0.005627
56.914,72.0226,0.005627
56.945,72.0679,0.005627
56.977,72.1159,0.005364
57.007,72.1625,0.005364
57.039,72.2082,0.005364
57.070,72.2558,0.005364
57.101,72.3021,0.005364
57.132,72.3481,0.005364
57.163,72.3938,0.005364
57.193,72.4402,0.005364
57.231,72.4969,0.005364
57.271,72.5578,0.004997
57.301,72.6023,0.004997
57.333,72.6503,0.004997
57.362,72.6936,0.004997
57.393,72.7401,0.004997
57.425,72.7877,0.004997
57.456,72.8341,0.004997
57.487,72.8811,0.004545
57.518,72.9280,0.004545
57.549,72.9754,0.004545
57.581,73.0219,0.004545
57.612,73.0677,0.004545
57.643,73.1143,0.004545
57.673,73.1597,0.004545
57.706,73.2103,0.004545
57.734,73.2511,0.004545
57.765,73.2985,0.003971
57.796,73.3442,0.003971
57.828,73.3925,0.003971
57.859,73.4387,0.003971
57.891,73.4877,0.003971
57.923,73.5342,0.003971
57.954,73.5815,0.003971
57.984,73.6263,0.003049
58.015,73.6729,0.003049
58.046,73.7198,0.003049
58.076,73.7649,0.003049
58.107,73.8099,0.003049
58.138,73.8540,0.003049
58.169,73.8989,0.003049
58.200,73.9412,0.003049
58.231,73.9841,0.003049
58.261,74.0245,0.001176
58.294,74.0689,0.001176
58.323,74.1062,0.001176
58.353,74.1453,0.001176
58.385,74.1850,0.001176
58.416,74.2239,0.001176
58.447,74.2609,0.001176
58.479,74.2980,0.001176
58.509,74.3342,-0.002729
58.541,74.3704,-0.002729
58.571,74.4040,-0.002729
58.602,74.4384,-0.002729
58.634,74.4715,-0.002729
58.664,74.5037,-0.002729
58.695,74.5342,-0.002729
58.733,74.5723,-0.002729
58.773,74.6109,-0.010558
58.804,74.6408,-0.010558
58.831,74.6648,-0.010558
58.866,74.6963,-0.010558
58.897,74.7233,-0.010558
58.928,74.7498,-0.010558
58.959,74.7757,-0.010558
58.990,74.8000,-0.024100
59.022,74.8247,-0.024100
59.052,74.8476,-0.024100
59.084,74.8706,-0.024100
59.115,74.8928,-0.024100
59.146,74.9135,-0.024100
59.177,74.9336,-0.024100
59.207,74.9528,-0.024100
59.242,74.9742,-0.024100
59.269,74.9902,-0.041773
59.301,75.0080,-0.041773
59.331,75.0241,-0.041773
59.363,75.0406,-0.041773
59.393,75.0556,-0.041773
59.423,75.0699,-0.041773
59.456,75.0848,-0.041773
59.485,75.0968,-0.041773
59.516,75.1093,-0.059521
59.547,75.1210,-0.059521
59.579,75.1323,-0.059521
59.608,75.1420,-0.059521
59.639,75.1514,-0.059521
59.670,75.1604,-0.059521
59.701,75.1682,-0.059521
59.732,75.1757,-0.059521
59.762,75.1821,-0.073552
59.793,75.1881,-0.073552
59.824,75.1933,-0.073552
59.855,75.1976,-0.073552
59.885,75.2014,-0.073552
59.916,75.2045,-0.073552
59.947,75.2067,-0.073552
59.978,75.2083,-0.073552
60.010,75.2092,-0.080440
60.041,75.2093,-0.080440
60.071,75.2093,-0.080440
60.102,75.2093,-0.080440
60.133,75.2093,-0.080440
60.164,75.2093,-0.080440
60.196,75.2093,-0.080440
60.226,75.2093,-0.080440
60.257,75.2093,-0.077965
60.287,75.2093,-0.077965
60.319,75.2093,-0.077965
60.349,75.2093,-0.077965
60.380,75.2093,-0.077965
60.411,75.2093,-0.077965
60.443,75.2093,-0.077965
60.474,75.2093,-0.071472
60.505,75.2093,-0.071472
60.536,75.2093,-0.071472
60.567,75.2093,-0.071472
60.597,75.2093,-0.071472
60.628,75.2093,-0.071472
60.659,75.2093,-0.071472
60.690,75.2093,-0.071472
60.721,75.2093,-0.071472
60.752,75.2093,-0.071472
60.784,75.2093,-0.067021
60.815,75.2093,-0.067021
60.846,75.2093,-0.067021
60.878,75.2093,-0.067021
60.909,75.2093,-0.067021
60.939,75.2093,-0.067021
60.970,75.2093,-0.067021
61.001,75.2093,-0.064038
61.032,75.2093,-0.064038
61.063,75.2093,-0.064038
61.094,75.2093,-0.064038
61.125,75.2093,-0.064038
61.156,75.2093,-0.064038
61.187,75.2093,-0.064038
61.219,75.2093,-0.064038
61.250,75.2093,-0.061770
61.280,75.2093,-0.061770
61.311,75.2093,-0.061770
61.341,75.2093,-0.061770
61.372,75.2093,-0.061770
61.403,75.2093,-0.061770
61.434,75.2093,-0.061770
61.465,75.2093,-0.061770
61.492,75.2093,-0.061770
61.527,75.2093,-0.060104
61.557,75.2093,-0.060104
61.589,75.2093,-0.060104
61.619,75.2093,-0.060104
61.649,75.2093,-0.060104
61.680,75.2093,-0.060104
61.711,75.2093,-0.060104
61.742,75.2093,-0.058646
61.773,75.2093,-0.058646
61.802,75.2093,-0.058646
61.834,75.2093,-0.058646
61.864,75.2093,-0.058646
61.897,75.2093,-0.058646
61.928,75.2093,-0.058646
61.958,75.2093,-0.058646
61.989,75.2093,-0.058646
62.021,75.2093,-0.057366
62.051,75.2093,-0.057366
62.082,75.2093,-0.057366
62.114,75.2093,-0.057366
62.145,75.2093,-0.057366
62.175,75.2093,-0.057366
62.206,75.2093,-0.057366
62.237,75.2093,-0.056265
62.273,75.2093,-0.056265
62.299,75.2093,-0.056265
62.331,75.2093,-0.056265
62.362,75.2093,-0.056265
62.393,75.2093,-0.056265
62.424,75.2093,-0.056265
62.455,75.2093,-0.056265
62.485,75.2093,-0.055267
62.517,75.2093,-0.055267
62.548,75.2093,-0.055267
62.579,75.2093,-0.055267
62.609,75.2093,-0.055267
62.640,75.2093,-0.055267
62.671,75.2093,-0.055267
62.702,75.2093,-0.055267
62.733,75.2093,-0.054383
62.764,75.2093,-0.054383
62.795,75.2093,-0.054383
62.825,75.2093,-0.054383
62.856,75.2093,-0.054383
62.886,75.2093,-0.054383
62.918,75.2093,-0.054383
62.950,75.2093,-0.054383
62.980,75.2093,-0.054383
63.011,75.2093,-0.053620
63.042,75.2093,-0.053620
63.073,75.2093,-0.053620
63.104,75.2093,-0.053620
63.135,75.2093,-0.053620
63.166,75.2093,-0.053620
63.197,75.2093,-0.053620
63.229,75.2093,-0.053620
63.261,75.2093,-0.052924
63.292,75.2093,-0.052924
63.323,75.2093,-0.052924
63.354,75.2093,-0.052924
63.384,75.2093,-0.052924
63.415,75.2093,-0.052924
63.447,75.2093,-0.052924
63.477,75.2093,-0.052924
63.508,75.2093,-0.052275
63.540,75.2093,-0.052275
63.571,75.2093,-0.052275
63.601,75.2093,-0.052275
63.632,75.2093,-0.052275
63.664,75.2093,-0.052275
63.695,75.2093,-0.052275
63.725,75.2093,-0.052275
63.756,75.2093,-0.051654
63.787,75.2093,-0.051654
63.817,75.2093,-0.051654
63.847,75.2093,-0.051654
63.879,75.2093,-0.051654
63.910,75.2093,-0.051654
63.941,75.2093,-0.051654
63.971,75.2093,-0.051654
64.002,75.2093,-0.051098
64.034,75.2093,-0.051098
64.064,75.2093,-0.051098
64.095,75.2093,-0.051098
64.126,75.2093,-0.051098
64.157,75.2093,-0.051098
64.188,75.2093,-0.051098
64.219,75.2093,-0.051098
64.250,75.2093,-0.050581
64.281,75.2093,-0.050581
64.313,75.2093,-0.050581
64.345,75.2093,-0.050581
64.376,75.2093,-0.050581
64.406,75.2093,-0.050581
64.438,75.2093,-0.050581
64.468,75.2093,-0.050581
64.500,75.2093,-0.050016
64.531,75.2093,-0.050016
64.561,75.2093,-0.050016
64.593,75.2093,-0.050016
64.624,75.2093,-0.050016
64.655,75.2093,-0.050016
64.686,75.2093,-0.050016
64.717,75.2093,-0.050016
64.748,75.2093,-0.049527
64.780,75.2088,-0.049527
64.811,75.2076,-0.049527
64.842,75.2057,-0.049527
64.873,75.2031,-0.049527
64.904,75.1996,-0.049527
64.935,75.1955,-0.049527
64.966,75.1906,-0.049527
64.997,75.1851,-0.049527
65.029,75.1785,-0.048294
65.059,75.1718,-0.048294
65.092,75.1633,-0.048294
65.121,75.1555,-0.048294
65.154,75.1454,-0.048294
65.184,75.1361,-0.048294
65.214,75.1258,-0.048294
65.245,75.1143,-0.038545
65.276,75.1021,-0.038545
65.306,75.0897,-0.038545
65.337,75.0763,-0.038545
65.367,75.0623,-0.038545
65.398,75.0472,-0.038545
65.430,75.0316,-0.038545
65.460,75.0152,-0.038545
65.491,74.9978,-0.020693
65.527,74.9773,-0.020693
65.554,74.9606,-0.020693
65.585,74.9419,-0.020693
65.616,74.9218,-0.020693
65.647,74.9010,-0.020693
65.677,74.8794,-0.020693
65.709,74.8568,-0.020693
65.740,74.8333,-0.002682
65.771,74.8106,-0.002682
65.804,74.7843,-0.002682
65.832,74.7610,-0.002682
65.863,74.7347,-0.002682
65.894,74.7081,-0.002682
65.926,74.6803,-0.002682
65.956,74.6537,-0.002682
65.987,74.6240,-0.002682
66.019,74.5939,-0.002682
66.051,74.5633,0.013165
66.081,74.5332,0.013165
66.112,74.5015,0.013165
66.142,74.4695,0.013165
66.173,74.4361,0.013165
66.204,74.4024,0.013165
66.236,74.3674,0.013165
66.266,74.3320,0.024175
66.297,74.2959,0.024175
66.328,74.2599,0.024175
66.359,74.2216,0.024175
66.390,74.1844,0.024175
66.421,74.1451,0.024175
66.450,74.1075,0.024175
66.482,74.0659,0.024175
66.513,74.0255,0.030791
66.543,73.9837,0.030791
66.574,73.9420,0.030791
66.605,73.8982,0.030791
66.636,73.8540,0.030791
66.668,73.8081,0.030791
66.698,73.7637,0.030791
66.730,73.7166,0.030791
66.765,73.6648,0.036155
66.792,73.6240,0.036155
66.824,73.5760,0.036155
66.855,73.5295,0.036155
66.886,73.4824,0.036155
66.916,73.4375,0.036155
66.948,73.3901,0.036155
66.978,73.3441,0.036155
67.010,73.2960,0.040653
67.041,73.2500,0.040653
67.073,73.2026,0.040653
67.101,73.1592,0.040653
67.135,73.1091,0.040653
67.164,73.0644,0.040653
67.196,73.0171,0.040653
67.226,72.9725,0.040653
67.257,72.9245,0.042384
67.289,72.8783,0.042384
67.319,72.8330,0.042384
67.351,72.7850,0.042384
67.381,72.7392,0.042384
67.412,72.6927,0.042384
67.445,72.6439,0.042384
67.474,72.6002,0.042384
67.505,72.5531,0.042384
67.537,72.5063,0.031148
67.568,72.4592,0.031148
67.600,72.4121,0.031148
67.631,72.3651,0.031148
67.662,72.3186,0.031148
67.695,72.2678,0.031148
67.725,72.2247,0.031148
67.756,72.1783,0.014087
67.786,72.1320,0.014087
67.817,72.0861,0.014087
67.849,72.0390,0.014087
67.880,71.9909,0.014087
67.911,71.9445,0.014087
67.942,71.8984,0.014087
67.973,71.8520,0.007952
68.004,71.8055,0.007952
68.035,71.7590,0.007952
68.066,71.7121,0.007952
68.097,71.6660,0.007952
68.129,71.6180,0.007952
68.159,71.5736,0.007952
68.191,71.5273,0.007952
68.222,71.4840,0.007952
68.252,71.4411,0.007952
68.283,71.3991,0.007566
68.313,71.3574,0.007566
68.344,71.3167,0.007566
68.374,71.2756,0.007566
68.406,71.2358,0.007566
68.437,71.1965,0.007566
68.468,71.1580,0.007566
68.499,71.1201,0.007566
68.529,71.0828,0.007387
68.560,71.0477,0.007387
68.591,71.0097,0.007387
68.622,70.9772,0.007387
68.653,70.9434,0.007387
68.684,70.9097,0.007387
68.715,70.8780,0.007387
68.746,70.8457,0.007387
68.776,70.8148,0.007255
68.808,70.7833,0.007255
68.840,70.7534,0.007255
68.871,70.7237,0.007255
68.902,70.6955,0.007255
68.933,70.6684,0.007255
68.964,70.6416,0.007255
68.994,70.6157,0.007255
69.026,70.5896,0.007190
69.057,70.5654,0.007190
69.088,70.5414,0.007190
69.118,70.5184,0.007190
69.149,70.4964,0.007190
69.181,70.4736,0.007190
69.212,70.4530,0.007190
69.243,70.4323,0.007190
69.274,70.4129,0.007086
69.305,70.3938,0.007086
69.336,70.3761,0.007086
69.369,70.3575,0.007086
69.399,70.3415,0.007086
69.428,70.3261,0.007086
69.459,70.3110,0.007086
69.491,70.2960,0.007086
69.522,70.2825,0.006992
69.553,70.2694,0.006992
69.583,70.2574,0.006992
69.615,70.2456,0.006992
69.646,70.2348,0.006992
69.677,70.2246,0.006992
69.707,70.2154,0.006992
69.738,70.2067,0.006992
69.769,70.1990,0.006964
69.800,70.1916,0.006964
69.831,70.1851,0.006964
69.862,70.1794,0.006964
69.893,70.1744,0.006964
69.923,70.1702,0.006964
69.954,70.1666,0.006964
69.985,70.1637,0.006964
70.017,70.1615,0.006954
70.047,70.1601,0.006954
70.078,70.1594,0.006954
70.110,70.1593,0.006954
70.141,70.1593,0.006954
70.172,70.1593,0.006954
70.204,70.1593,0.006954
70.235,70.1596,0.006954
70.266,70.1606,0.006945
70.297,70.1624,0.006945
70.327,70.1648,0.006945
70.359,70.1680,0.006945
70.390,70.1718,0.006945
70.421,70.1766,0.006945
70.452,70.1819,0.006945
70.482,70.1880,0.006945
70.514,70.1948,0.006785
70.544,70.2024,0.006785
70.576,70.2105,0.006785
70.607,70.2198,0.006785
70.638,70.2294,0.006785
70.669,70.2397,0.006785
70.701,70.2513,0.006785
70.732,70.2636,0.006672
70.763,70.2763,0.006672
70.794,70.2895,0.006672
70.825,70.3038,0.006672
70.856,70.3181,0.006672
70.887,70.3338,0.006672
70.918,70.3499,0.006672
70.948,70.3671,0.006672
70.979,70.3845,0.006672
71.011,70.4036,0.006653
71.042,70.4224,0.006653
71.073,70.4428,0.006653
71.105,70.4639,0.006653
71.137,70.4861,0.006653
71.167,70.5078,0.006653
71.197,70.5301,0.006653
71.228,70.5535,0.006484
71.261,70.5793,0.006484
71.290,70.6026,0.006484
71.321,70.6285,0.006484
71.352,70.6547,0.006484
71.383,70.6829,0.006484
71.417,70.7126,0.006484
71.445,70.7389,0.006484
71.476,70.7688,0.006484
71.508,70.7992,0.006314
71.539,70.8299,0.006314
71.570,70.8620,0.006314
71.603,70.8963,0.006314
71.632,70.9274,0.006314
71.663,70.9611,0.006314
71.693,70.9939,0.006314
71.724,71.0295,0.006314
71.754,71.0644,0.006117
71.785,71.1015,0.006117
71.817,71.1397,0.006117
71.848,71.1785,0.006117
71.879,71.2170,0.006117
71.910,71.2570,0.006117
71.941,71.2957,0.006117
71.972,71.3379,0.006117
72.003,71.3786,0.005872
72.034,71.4222,0.005872
72.064,71.4640,0.005872
72.096,71.5091,0.005872
72.126,71.5521,0.005872
72.158,71.5997,0.005872
72.187,71.6423,0.005872
72.218,71.6888,0.005872
72.249,71.7355,0.005580
72.281,71.7830,0.005580
72.312,71.8300,0.005580
72.343,71.8760,0.005580
72.373,71.9212,0.005580
72.404,71.9676,0.005580
72.434,72.0135,0.005580
72.464,72.0579,0.005580
72.495,72.1049,0.005580
72.525,72.1496,0.005279
72.557,72.1968,0.005279
72.587,72.2425,0.005279
72.617,72.2873,0.005279
72.649,72.3358,0.005279
72.678,72.3793,0.005279
72.709,72.4252,0.005279
72.740,72.4720,0.005279
72.772,72.5191,0.004940
72.802,72.5651,0.004940
72.833,72.6110,0.004940
72.865,72.6589,0.004940
72.896,72.7059,0.004940
72.929,72.7549,0.004940
72.958,72.7977,0.004940
72.985,72.8407,0.004940
73.020,72.8917,0.004470
73.051,72.9383,0.004470
73.082,72.9844,0.004470
73.113,73.0310,0.004470
73.144,73.0776,0.004470
73.175,73.1246,0.004470
73.206,73.1707,0.004470
73.237,73.2167,0.004470
73.268,73.2639,0.003877
73.298,73.3093,0.003877
73.329,73.3563,0.003877
73.361,73.4028,0.003877
73.393,73.4504,0.003877
73.423,73.4958,0.003877
73.454,73.5432,0.003877
73.485,73.5896,0.003877
73.516,73.6361,0.003877
73.547,73.6829,0.002917
73.578,73.7293,0.002917
73.609,73.7734,0.002917
73.641,73.8197,0.002917
73.672,73.8632,0.002917
73.703,73.9068,0.002917
73.733,73.9471,0.002917
73.764,73.9890,0.002917
73.795,74.0292,0.001035
73.826,74.0706,0.001035
73.857,74.1102,0.001035
73.888,74.1487,0.001035
73.919,74.1871,0.001035
73.951,74.2236,0.001035
73.982,74.2615,0.001035
74.014,74.2975,0.001035
74.045,74.3332,-0.002889
74.076,74.3678,-0.002889
74.108,74.4022,-0.002889
74.139,74.4344,-0.002889
74.170,74.4679,-0.002889
74.202,74.4989,-0.002889
74.232,74.5293,-0.002889
74.263,74.5582,-0.011020
74.294,74.5881,-0.011020
74.325,74.6163,-0.011020
74.357,74.6455,-0.011020
74.388,74.6725,-0.011020
74.419,74.6980,-0.011020
74.450,74.7236,-0.011020
74.481,74.7484,-0.011020
74.512,74.7726,-0.024778
74.543,74.7968,-0.024778
74.574,74.8185,-0.024778
74.606,74.8411,-0.024778
74.636,74.8619,-0.024778
74.667,74.8827,-0.024778
74.698,74.9021,-0.024778
74.730,74.9217,-0.024778
74.760,74.9393,-0.042497
74.793,74.9578,-0.042497
74.822,74.9734,-0.042497
74.854,74.9899,-0.042497
74.885,75.0055,-0.042497
74.916,75.0198,-0.042497
74.946,75.0332,-0.042497
74.976,75.0466,-0.042497
75.007,75.0591,-0.060095
75.039,75.0708,-0.060095
75.069,75.0816,-0.060095
75.100,75.0917,-0.060095
75.131,75.1012,-0.060095
75.161,75.1100,-0.060095
75.193,75.1181,-0.060095
75.224,75.1256,-0.060095
75.255,75.1322,-0.073872
75.286,75.1381,-0.073872
75.316,75.1432,-0.073872
75.349,75.1478,-0.073872
75.379,75.1514,-0.073872
75.410,75.1545,-0.073872
75.441,75.1568,-0.073872
75.472,75.1583,-0.073872
75.503,75.1592,-0.080487
75.534,75.1593,-0.080487
75.565,75.1593,-0.080487
75.596,75.1593,-0.080487
75.627,75.1593,-0.080487
75.658,75.1593,-0.080487
75.689,75.1593,-0.080487
75.721,75.1593,-0.080487
75.752,75.1593,-0.077702
75.783,75.1593,-0.077702
75.814,75.1593,-0.077702
75.846,75.1593,-0.077702
75.876,75.1593,-0.077702
75.907,75.1593,-0.077702
75.939,75.1593,-0.077702
75.970,75.1593,-0.077702
76.001,75.1593,-0.071180
76.032,75.1593,-0.071180
76.064,75.1593,-0.071180
76.095,75.1593,-0.071180
76.126,75.1593,-0.071180
76.158,75.1593,-0.071180
76.189,75.1593,-0.071180
76.219,75.1593,-0.071180
76.250,75.1593,-0.066804
76.281,75.1593,-0.066804
76.312,75.1593,-0.066804
76.343,75.1593,-0.066804
76.374,75.1593,-0.066804
76.405,75.1593,-0.066804
76.436,75.1593,-0.066804
76.466,75.1593,-0.066804
76.499,75.1593,-0.066804
76.529,75.1593,-0.063925
76.560,75.1593,-0.063925
76.591,75.1593,-0.063925
76.622,75.1593,-0.063925
76.652,75.1593,-0.063925
76.687,75.1593,-0.063925
76.713,75.1593,-0.063925
76.744,75.1593,-0.063925
76.776,75.1593,-0.063925
76.806,75.1593,-0.061723
76.837,75.1593,-0.061723
76.868,75.1593,-0.061723
76.899,75.1593,-0.061723
76.930,75.1593,-0.061723
76.961,75.1593,-0.061723
76.992,75.1593,-0.061723
77.024,75.1593,-0.059925
77.056,75.1593,-0.059925
77.086,75.1593,-0.059925
77.117,75.1593,-0.059925
77.148,75.1593,-0.059925
77.178,75.1593,-0.059925
77.209,75.1593,-0.059925
77.240,75.1593,-0.059925
77.271,75.1593,-0.058467
77.301,75.1593,-0.058467
77.333,75.1593,-0.058467
77.364,75.1593,-0.058467
77.395,75.1593,-0.058467
77.426,75.1593,-0.058467
77.457,75.1593,-0.058467
77.489,75.1593,-0.058467
77.519,75.1593,-0.057243
77.550,75.1593,-0.057243
77.582,75.1593,-0.057243
77.613,75.1593,-0.057243
77.645,75.1593,-0.057243
77.679,75.1593,-0.057243
77.707,75.1593,-0.057243
77.737,75.1593,-0.057243
77.768,75.1593,-0.056142
77.799,75.1593,-0.056142
77.830,75.1593,-0.056142
77.861,75.1593,-0.056142
77.891,75.1593,-0.056142
77.921,75.1593,-0.056142
77.953,75.1593,-0.056142
77.985,75.1593,-0.056142
78.015,75.1593,-0.055220
78.048,75.1593,-0.055220
78.077,75.1593,-0.055220
78.109,75.1593,-0.055220
78.138,75.1593,-0.055220
78.169,75.1593,-0.055220
78.201,75.1593,-0.055220
78.232,75.1593,-0.055220
78.263,75.1593,-0.054411
78.294,75.1593,-0.054411
78.324,75.1593,-0.054411
78.362,75.1593,-0.054411
78.387,75.1593,-0.054411
78.418,75.1593,-0.054411
78.449,75.1593,-0.054411
78.482,75.1593,-0.054411
78.511,75.1593,-0.053611
78.543,75.1593,-0.053611
78.573,75.1593,-0.053611
78.605,75.1593,-0.053611
78.635,75.1593,-0.053611
78.667,75.1593,-0.053611
78.697,75.1593,-0.053611
78.728,75.1593,-0.053611
78.759,75.1593,-0.052905
78.791,75.1593,-0.052905
78.822,75.1593,-0.052905
78.853,75.1593,-0.052905
78.883,75.1593,-0.052905
78.916,75.1593,-0.052905
78.945,75.1593,-0.052905
78.977,75.1593,-0.052905
79.008,75.1593,-0.052228
79.038,75.1593,-0.052228
79.069,75.1593,-0.052228
79.099,75.1593,-0.052228
79.130,75.1593,-0.052228
79.162,75.1593,-0.052228
79.191,75.1593,-0.052228
79.223,75.1593,-0.052228
79.255,75.1593,-0.051560
79.285,75.1593,-0.051560
79.316,75.1593,-0.051560
79.348,75.1593,-0.051560
79.379,75.1593,-0.051560
79.410,75.1593,-0.051560
79.441,75.1593,-0.051560
79.472,75.1593,-0.051560
79.503,75.1593,-0.051560
79.534,75.1593,-0.051004
79.564,75.1593,-0.051004
79.596,75.1593,-0.051004
79.626,75.1593,-0.051004
79.657,75.1593,-0.051004
79.688,75.1593,-0.051004
79.720,75.1593,-0.051004
79.750,75.1593,-0.050524
79.784,75.1593,-0.050524
79.813,75.1593,-0.050524
79.845,75.1593,-0.050524
79.875,75.1593,-0.050524
79.906,75.1589,-0.050524
79.937,75.1577,-0.050524
79.968,75.1558,-0.050524
79.998,75.1532,-0.050016
80.029,75.1500,-0.050016
80.060,75.1459,-0.050016
80.091,75.1411,-0.050016
80.122,75.1358,-0.050016
80.153,75.1293,-0.050016
80.184,75.1225,-0.050016
80.216,75.1145,-0.050016
80.246,75.1064,-0.045189
80.278,75.0968,-0.045189
80.308,75.0871,-0.045189
80.342,75.0757,-0.045189
80.371,75.0648,-0.045189
80.405,75.0517,-0.045189
80.434,75.0398,-0.045189
80.466,75.0256,-0.045189
80.496,75.0115,-0.031120
80.527,74.9965,-0.031120
80.558,74.9811,-0.031120
80.589,74.9646,-0.031120
80.620,74.9476,-0.031120
80.651,74.9295,-0.031120
80.682,74.9109,-0.031120
80.713,74.8911,-0.031120
80.743,74.8712,-0.012365
80.774,74.8507,-0.012365
80.805,74.8294,-0.012365
80.836,74.8076,-0.012365
80.867,74.7845,-0.012365
80.897,74.7612,-0.012365
80.928,74.7373,-0.012365
80.958,74.7130,-0.012365
80.990,74.6862,0.005147
81.020,74.6601,0.005147
81.051,74.6326,0.005147
81.082,74.6056,0.005147
81.112,74.5763,0.005147
81.144,74.5470,0.005147
81.174,74.5168,0.005147
81.205,74.4871,0.005147
81.236,74.4547,0.005147
81.267,74.4226,0.005147
81.301,74.3857,0.019065
81.328,74.3559,0.019065
81.360,74.3214,0.019065
81.391,74.2861,0.019065
81.422,74.2499,0.019065
81.454,74.2112,0.019065
81.485,74.1746,0.019065
81.516,74.1365,0.019065
81.547,74.0968,0.027619
81.578,74.0574,0.027619
81.609,74.0176,0.027619
81.640,73.9754,0.027619
81.670,73.9351,0.027619
81.701,73.8923,0.027619
81.732,73.8495,0.033285
81.763,73.8052,0.033285
81.795,73.7600,0.033285
81.824,73.7156,0.033285
81.856,73.6683,0.033285
81.891,73.6158,0.033285
81.918,73.5749,0.033285
81.949,73.5292,0.033285
81.981,73.4817,0.038761
82.009,73.4401,0.038761
82.042,73.3902,0.038761
82.073,73.3439,0.038761
82.104,73.2981,0.038761
82.134,73.2511,0.038761
82.165,73.2050,0.038761
82.196,73.1581,0.038761
82.227,73.1132,0.038761
82.258,73.0661,0.042290
82.289,73.0207,0.042290
82.319,72.9734,0.042290
82.351,72.9275,0.042290
82.382,72.8804,0.042290
82.413,72.8340,0.042290
82.443,72.7870,0.042290
82.475,72.7416,0.042290
82.505,72.6951,0.042384
82.535,72.6493,0.042384
82.567,72.6025,0.042384
82.598,72.5569,0.042384
82.629,72.5093,0.042384
82.660,72.4635,0.042384
82.691,72.4164,0.042384
82.722,72.3704,0.042384
82.752,72.3238,0.042384
82.783,72.2783,0.025634
82.816,72.2295,0.025634
82.845,72.1856,0.025634
82.876,72.1385,0.025634
82.907,72.0928,0.025634
82.941,72.0411,0.025634
82.969,71.9986,0.025634
83.001,71.9515,0.025634
83.032,71.9057,0.008742
83.063,71.8578,0.008742
83.094,71.8127,0.008742
83.124,71.7670,0.008742
83.156,71.7198,0.008742
83.187,71.6725,0.008742
83.218,71.6253,0.008742
83.254,71.5722,0.008742
83.279,71.5352,0.008742
83.310,71.4907,0.007745
83.341,71.4453,0.007745
83.372,71.4025,0.007745
83.402,71.3596,0.007745
83.435,71.3152,0.007745
83.464,71.2769,0.007745
83.497,71.2325,0.007444
83.526,71.1947,0.007444
83.557,71.1555,0.007444
83.588,71.1176,0.007444
83.622,71.0754,0.007444
83.650,71.0427,0.007444
83.681,71.0061,0.007444
83.712,70.9696,0.007444
83.746,70.9306,0.007293
83.774,70.9006,0.007293
83.805,70.8667,0.007293
83.836,70.8342,0.007293
83.867,70.8023,0.007293
83.898,70.7701,0.007293
83.928,70.7407,0.007293
83.959,70.7106,0.007293
83.994,70.6782,0.007293
84.021,70.6532,0.007274
84.052,70.6256,0.007274
84.083,70.5990,0.007274
84.113,70.5727,0.007274
84.144,70.5480,0.007274
84.175,70.5223,0.007274
84.206,70.4988,0.007274
84.237,70.4751,0.007274
84.267,70.4530,0.007199
84.299,70.4303,0.007199
84.330,70.4095,0.007199
84.361,70.3885,0.007199
84.391,70.3694,0.007199
84.423,70.3498,0.007199
84.454,70.3312,0.007199
84.485,70.3138,0.007199
84.515,70.2976,0.007095
84.546,70.2809,0.007095
84.577,70.2656,0.007095
84.608,70.2508,0.007095
84.639,70.2371,0.007095
84.671,70.2236,0.007095
84.701,70.2114,0.007095
84.732,70.1994,0.007095
84.763,70.1883,0.007011
84.795,70.1778,0.007011
84.826,70.1682,0.007011
84.856,70.1593,0.007011
84.887,70.1513,0.007011
84.922,70.1429,0.007011
84.949,70.1372,0.007011
84.981,70.1309,0.007011
85.011,70.1258,0.006973
85.042,70.1214,0.006973
85.073,70.1175,0.006973
85.104,70.1144,0.006973
85.135,70.1121,0.006973
85.166,70.1104,0.006973
85.196,70.1096,0.006973
85.228,70.1093,0.006973
85.259,70.1093,0.006954
85.290,70.1093,0.006954
85.320,70.1093,0.006954
85.351,70.1093,0.006954
85.382,70.1093,0.006954
85.412,70.1096,0.006954
85.443,70.1106,0.006954
85.475,70.1124,0.006964
85.504,70.1147,0.006964
85.535,70.1179,0.006964
85.566,70.1219,0.006964
85.599,70.1266,0.006964
85.628,70.1318,0.006964
85.659,70.1377,0.006964
85.690,70.1446,0.006964
85.720,70.1520,0.006964
85.751,70.1601,0.006832
85.783,70.1692,0.006832
85.814,70.1789,0.006832
85.844,70.1893,0.006832
85.875,70.2006,0.006832
85.907,70.2124,0.006832
85.939,70.2253,0.006832
85.970,70.2391,0.006832
86.000,70.2526,0.006681
86.032,70.2678,0.006681
86.062,70.2828,0.006681
86.093,70.2992,0.006681
86.125,70.3165,0.006681
86.155,70.3342,0.006681
86.186,70.3529,0.006681
86.218,70.3721,0.006681
86.249,70.3924,0.006606
86.279,70.4120,0.006606
86.310,70.4340,0.006606
86.342,70.4559,0.006606
86.374,70.4799,0.006606
86.403,70.5015,0.006606
86.434,70.5263,0.006606
86.463,70.5497,0.006606
86.495,70.5754,0.006606
86.526,70.6020,0.006418
86.556,70.6284,0.006418
86.587,70.6565,0.006418
86.618,70.6850,0.006418
86.648,70.7142,0.006418
86.680,70.7441,0.006418
86.711,70.7753,0.006418
86.742,70.8066,0.006418
86.773,70.8396,0.006248
86.804,70.8713,0.006248
86.835,70.9057,0.006248
86.866,70.9392,0.006248
86.897,70.9745,0.006248
86.927,71.0101,0.006248
86.958,71.0463,0.006248
86.990,71.0847,0.006248
87.021,71.1226,0.006032
87.053,71.1620,0.006032
87.084,71.2024,0.006032
87.114,71.2412,0.006032
87.146,71.2846,0.006032
87.176,71.3234,0.006032
87.208,71.3679,0.006032
87.240,71.4123,0.006032
87.271,71.4566,0.005787
87.302,71.5014,0.005787
87.334,71.5481,0.005787
87.366,71.5944,0.005787
87.397,71.6424,0.005787
87.428,71.6882,0.005787
87.460,71.7364,0.005787
87.491,71.7828,0.005524
87.522,71.8299,0.005524
87.554,71.8764,0.005524
87.584,71.9227,0.005524
87.616,71.9703,0.005524
87.647,72.0169,0.005524
87.679,72.0641,0.005524
87.709,72.1092,0.005524
87.740,72.1568,0.005195
87.771,72.2026,0.005195
87.801,72.2480,0.005195
87.833,72.2947,0.005195
87.863,72.3404,0.005195
87.894,72.3870,0.005195
87.925,72.4332,0.005195
87.956,72.4799,0.005195
87.987,72.5270,0.004846
88.018,72.5736,0.004846
88.050,72.6211,0.004846
88.082,72.6688,0.004846
88.112,72.7148,0.004846
88.143,72.7612,0.004846
88.174,72.8070,0.004846
88.205,72.8543,0.004846
88.236,72.9004,0.004338
88.267,72.9479,0.004338
88.299,72.9935,0.004338
88.329,73.0400,0.004338
88.360,73.0856,0.004338
88.391,73.1325,0.004338
88.422,73.1789,0.004338
88.453,73.2257,0.004338
88.484,73.2734,0.003632
88.515,73.3194,0.003632
88.546,73.3664,0.003632
88.577,73.4111,0.003632
88.610,73.4611,0.003632
88.640,73.5062,0.003632
88.671,73.5519,0.003632
88.701,73.5972,0.003632
88.733,73.6445,0.003632
88.763,73.6894,0.002494
88.794,73.7352,0.002494
88.826,73.7802,0.002494
88.858,73.8252,0.002494
88.888,73.8670,0.002494
88.918,73.9084,0.002494
88.950,73.9507,0.002494
88.981,73.9918,0.002494
89.013,74.0316,0.000085
89.044,74.0719,0.000085
89.074,74.1092,0.000085
89.105,74.1474,0.000085
89.137,74.1842,0.000085
89.166,74.2188,0.000085
89.196,74.2538,0.000085
89.228,74.2887,0.000085
89.258,74.3234,-0.004931
89.289,74.3559,-0.004931
89.319,74.3884,-0.004931
89.353,74.4224,-0.004931
89.382,74.4519,-0.004931
89.415,74.4848,-0.004931
89.444,74.5129,-0.004931
89.478,74.5448,-0.004931
89.506,74.5703,-0.004931
89.540,74.6002,-0.014765
89.568,74.6243,-0.014765
89.599,74.6507,-0.014765
89.630,74.6767,-0.014765
89.662,74.7019,-0.014765
89.693,74.7256,-0.014765
89.723,74.7484,-0.014765
89.754,74.7708,-0.030217
89.784,74.7926,-0.030217
89.816,74.8134,-0.030217
89.848,74.8345,-0.030217
89.877,74.8535,-0.030217
89.909,74.8727,-0.030217
89.938,74.8897,-0.030217
89.970,74.9076,-0.030217
90.001,74.9247,-0.048379
90.036,74.9427,-0.048379
90.063,74.9559,-0.048379
90.094,74.9708,-0.048379
90.125,74.9844,-0.048379
90.157,74.9976,-0.048379
90.187,75.0097,-0.048379
90.218,75.0217,-0.048379
90.248,75.0322,-0.048379
90.280,75.0426,-0.065176
90.310,75.0522,-0.065176
90.341,75.0606,-0.065176
90.371,75.0684,-0.065176
90.401,75.0757,-0.065176
90.432,75.0821,-0.065176
90.463,75.0883,-0.065176
90.494,75.0932,-0.077193
90.525,75.0979,-0.077193
90.555,75.1014,-0.077193
90.586,75.1044,-0.077193
90.617,75.1069,-0.077193
90.648,75.1083,-0.077193
90.680,75.1092,-0.077193
90.711,75.1093,-0.077193
90.741,75.1093,-0.077193
90.772,75.1093,-0.081099
90.804,75.1093,-0.081099
90.835,75.1093,-0.081099
90.866,75.1093,-0.081099
