Elapsed Time (s),Position (mm),Force (N)
-0.027,79.4094,-0.026885
0.001,79.4094,-0.026885
0.035,79.4094,-0.026885
0.066,79.4094,-0.024618
0.098,79.4094,-0.024618
0.129,79.4094,-0.024618
0.159,79.4094,-0.024618
0.190,79.4094,-0.024618
0.221,79.4094,-0.024618
0.252,79.4094,-0.024618
0.283,79.4094,-0.024618
0.318,79.4094,-0.024618
0.353,79.4094,-0.023074
0.393,79.4094,-0.023074
0.423,79.4094,-0.023074
0.455,79.4094,-0.023074
0.486,79.4094,-0.023074
0.517,79.4094,-0.023074
0.550,79.4094,-0.023074
0.581,79.4094,-0.023074
0.611,79.4094,-0.021954
0.642,79.4094,-0.021954
0.673,79.4094,-0.021954
0.704,79.4094,-0.021954
0.735,79.4094,-0.021954
0.766,79.4094,-0.021954
0.797,79.4094,-0.021954
0.828,79.4094,-0.021954
0.858,79.4094,-0.021954
0.891,79.4094,-0.021060
0.924,79.4094,-0.021060
0.951,79.4094,-0.021060
0.982,79.4094,-0.021060
1.014,79.4094,-0.021060
1.044,79.4094,-0.021060
1.074,79.4094,-0.020279
1.106,79.4094,-0.020279
1.138,79.4094,-0.020279
1.168,79.4094,-0.020279
1.198,79.4094,-0.020279
1.230,79.4094,-0.020279
1.261,79.4094,-0.020279
1.292,79.4094,-0.020279
1.328,79.4094,-0.019583
1.369,79.4094,-0.019583
1.400,79.4094,-0.019583
1.432,79.4094,-0.019583
1.463,79.4094,-0.019583
1.494,79.4094,-0.019583
1.526,79.4094,-0.019583
1.557,79.4094,-0.019583
1.589,79.4094,-0.019084
1.620,79.4094,-0.019084
1.651,79.4094,-0.019084
1.682,79.4094,-0.019084
1.712,79.4094,-0.019084
1.743,79.4094,-0.019084
1.778,79.4094,-0.019084
1.804,79.4094,-0.019084
1.836,79.4094,-0.018661
1.866,79.4094,-0.018661
1.900,79.4094,-0.018661
1.928,79.4094,-0.018661
1.959,79.4094,-0.018661
1.989,79.4094,-0.018661
2.021,79.4094,-0.018661
2.051,79.4094,-0.018661
2.083,79.4094,-0.018190
2.114,79.4094,-0.018190
2.148,79.4094,-0.018190
2.177,79.4094,-0.018190
2.211,79.4094,-0.018190
2.240,79.4094,-0.018190
2.273,79.4094,-0.018190
2.302,79.4094,-0.018190
2.333,79.4094,-0.017767
2.364,79.4094,-0.017767
2.398,79.4094,-0.017767
2.426,79.4094,-0.017767
2.458,79.4094,-0.017767
2.488,79.4094,-0.017767
2.520,79.4094,-0.017767
2.551,79.4094,-0.017767
2.582,79.4094,-0.017767
2.614,79.4094,-0.017767
2.645,79.4094,-0.017419
2.676,79.4094,-0.017419
2.709,79.4094,-0.017419
2.737,79.4094,-0.017419
2.768,79.4094,-0.017419
2.799,79.4094,-0.017419
2.834,79.4094,-0.017419
2.861,79.4094,-0.017419
2.892,79.4094,-0.017070
2.922,79.4094,-0.017070
2.953,79.4094,-0.017070
2.984,79.4094,-0.017070
3.014,79.4094,-0.017070
3.045,79.4094,-0.017070
3.076,79.4094,-0.017070
3.106,79.4094,-0.016750
3.137,79.4094,-0.016750
3.169,79.4094,-0.016750
3.199,79.4094,-0.016750
3.230,79.4094,-0.016750
3.262,79.4094,-0.016750
3.292,79.4094,-0.016750
3.323,79.4094,-0.016750
3.354,79.4094,-0.016515
3.384,79.4094,-0.016515
3.415,79.4094,-0.016515
3.450,79.4094,-0.016515
3.491,79.4094,-0.016515
3.523,79.4094,-0.016515
3.556,79.4094,-0.016515
3.585,79.4094,-0.016515
3.616,79.4094,-0.016261
3.647,79.4094,-0.016261
3.678,79.4094,-0.016261
3.708,79.4094,-0.016261
3.739,79.4094,-0.016261
3.771,79.4094,-0.016261
3.800,79.4094,-0.016261
3.831,79.4094,-0.015960
3.862,79.4094,-0.015960
3.893,79.4094,-0.015960
3.923,79.4094,-0.015960
3.955,79.4094,-0.015960
3.985,79.4094,-0.015960
4.016,79.4094,-0.015960
4.047,79.4094,-0.015960
4.078,79.4094,-0.015706
4.110,79.4094,-0.015706
4.141,79.4094,-0.015706
4.172,79.4091,-0.015706
4.203,79.4081,-0.015706
4.234,79.4064,-0.015706
4.264,79.4041,-0.015706
4.295,79.4009,-0.015706
4.326,79.3972,-0.015358
4.358,79.3925,-0.015358
4.388,79.3873,-0.015358
4.419,79.3813,-0.015358
4.450,79.3745,-0.015358
4.481,79.3669,-0.015358
4.512,79.3586,-0.015358
4.545,79.3493,-0.015358
4.575,79.3399,-0.012252
4.605,79.3296,-0.012252
4.636,79.3187,-0.012252
4.667,79.3068,-0.012252
4.697,79.2946,-0.012252
4.728,79.2810,-0.012252
4.759,79.2675,-0.012252
4.790,79.2527,-0.012252
4.821,79.2373,-0.004272
4.852,79.2206,-0.004272
4.883,79.2042,-0.004272
4.914,79.1860,-0.004272
4.945,79.1683,-0.004272
4.976,79.1485,-0.004272
5.007,79.1291,-0.004272
5.038,79.1086,-0.004272
5.069,79.0869,0.006248
5.098,79.0661,0.006248
5.130,79.0426,0.006248
5.161,79.0194,0.006248
5.193,78.9946,0.006248
5.225,78.9693,0.006248
5.255,78.9436,0.006248
5.286,78.9177,0.006248
5.316,78.8908,0.006248
5.347,78.8637,0.015386
5.378,78.8346,0.015386
5.408,78.8066,0.015386
5.439,78.7768,0.015386
5.470,78.7458,0.015386
5.502,78.7142,0.015386
5.533,78.6807,0.015386
5.565,78.6474,0.015386
5.597,78.6137,0.021173
5.627,78.5795,0.021173
5.659,78.5438,0.021173
5.691,78.5067,0.021173
5.721,78.4706,0.021173
5.753,78.4329,0.021173
5.783,78.3958,0.021173
5.813,78.3575,0.021173
5.844,78.3188,0.025888
5.876,78.2770,0.025888
5.906,78.2380,0.025888
5.937,78.1957,0.025888
5.967,78.1546,0.025888
5.998,78.1110,0.025888
6.029,78.0680,0.025888
6.060,78.0231,0.025888
6.091,77.9778,0.032456
6.122,77.9327,0.032456
6.153,77.8850,0.032456
6.184,77.8396,0.032456
6.215,77.7920,0.032456
6.247,77.7446,0.032456
6.278,77.6992,0.032456
6.309,77.6514,0.032456
6.340,77.6059,0.039317
6.370,77.5602,0.039317
6.401,77.5137,0.039317
6.433,77.4657,0.039317
6.464,77.4192,0.039317
6.496,77.3709,0.039317
6.528,77.3238,0.039317
6.559,77.2764,0.039317
6.590,77.2299,0.038761
6.621,77.1834,0.038761
6.651,77.1390,0.038761
6.681,77.0932,0.038761
6.711,77.0479,0.038761
6.742,77.0027,0.038761
6.774,76.9547,0.038761
6.805,76.9082,0.038761
6.837,76.8597,0.023121
6.867,76.8153,0.023121
6.898,76.7679,0.023121
6.930,76.7205,0.023121
6.961,76.6736,0.023121
6.993,76.6248,0.023121
7.022,76.5819,0.023121
7.054,76.5333,0.023121
7.085,76.4874,0.010493
7.115,76.4425,0.010493
7.146,76.3963,0.010493
7.181,76.3435,0.010493
7.207,76.3041,0.010493
7.238,76.2574,0.010493
7.269,76.2124,0.010493
7.299,76.1663,0.010493
7.329,76.1205,0.010493
7.360,76.0742,0.009759
7.392,76.0264,0.009759
7.423,75.9811,0.009759
7.454,75.9332,0.009759
7.485,75.8871,0.009759
7.515,75.8412,0.009759
7.547,75.7942,0.009759
7.576,75.7523,0.009354
7.607,75.7076,0.009354
7.638,75.6638,0.009354
7.669,75.6207,0.009354
7.699,75.5795,0.009354
7.735,75.5310,0.009354
7.761,75.4974,0.009354
7.791,75.4575,0.009354
7.823,75.4175,0.008893
7.854,75.3790,0.008893
7.885,75.3404,0.008893
7.916,75.3027,0.008893
7.946,75.2668,0.008893
7.977,75.2305,0.008893
8.009,75.1949,0.008893
8.039,75.1611,0.008893
8.069,75.1281,0.008893
8.100,75.0962,0.008488
8.131,75.0627,0.008488
8.163,75.0308,0.008488
8.195,74.9988,0.008488
8.226,74.9689,0.008488
8.257,74.9395,0.008488
8.288,74.9099,0.008488
8.319,74.8826,0.008253
8.350,74.8557,0.008253
8.381,74.8283,0.008253
8.412,74.8031,0.008253
8.443,74.7778,0.008253
8.475,74.7526,0.008253
8.506,74.7296,0.008253
8.537,74.7064,0.008253
8.567,74.6851,0.008253
8.598,74.6638,0.007989
8.629,74.6431,0.007989
8.659,74.6235,0.007989
8.689,74.6047,0.007989
8.721,74.5858,0.007989
8.751,74.5688,0.007989
8.785,74.5499,0.007989
8.813,74.5352,0.007839
8.845,74.5186,0.007839
8.875,74.5048,0.007839
8.906,74.4903,0.007839
8.937,74.4769,0.007839
8.968,74.4642,0.007839
9.000,74.4521,0.007839
9.030,74.4410,0.007839
9.061,74.4304,0.007839
9.093,74.4205,0.007735
9.123,74.4115,0.007735
9.154,74.4034,0.007735
9.185,74.3957,0.007735
9.215,74.3889,0.007735
9.247,74.3826,0.007735
9.277,74.3772,0.007735
9.309,74.3724,0.007735
9.340,74.3684,0.007547
9.374,74.3648,0.007547
9.402,74.3626,0.007547
9.433,74.3609,0.007547
9.464,74.3597,0.007547
9.496,74.3594,0.007547
9.526,74.3594,0.007547
9.556,74.3594,0.007547
9.587,74.3594,0.007387
9.618,74.3594,0.007387
9.649,74.3594,0.007387
9.680,74.3594,0.007387
9.711,74.3594,0.007387
9.741,74.3594,0.007387
9.773,74.3594,0.007387
9.808,74.3594,0.007387
9.834,74.3594,0.007387
9.866,74.3594,0.007387
9.896,74.3594,0.007387
9.927,74.3594,0.007387
9.958,74.3594,0.007387
9.989,74.3594,0.007387
10.020,74.3594,0.007387
10.053,74.3594,0.007387
10.082,74.3594,0.007387
10.113,74.3594,0.007321
10.143,74.3594,0.007321
10.175,74.3595,0.007321
10.206,74.3604,0.007321
10.236,74.3620,0.007321
10.267,74.3642,0.007321
10.298,74.3672,0.007321
10.329,74.3712,0.007199
10.360,74.3755,0.007199
10.393,74.3809,0.007199
10.424,74.3870,0.007199
10.455,74.3936,0.007199
10.485,74.4010,0.007199
10.516,74.4090,0.007199
10.548,74.4184,0.007199
10.578,74.4277,0.007142
10.609,74.4380,0.007142
10.641,74.4489,0.007142
10.672,74.4612,0.007142
10.703,74.4733,0.007142
10.736,74.4877,0.007142
10.765,74.5009,0.007142
10.798,74.5168,0.007142
10.826,74.5303,0.007142
10.860,74.5481,0.007030
10.889,74.5636,0.007030
10.919,74.5807,0.007030
10.949,74.5986,0.007030
10.981,74.6183,0.007030
11.012,74.6382,0.007030
11.043,74.6586,0.007030
11.073,74.6792,0.006888
11.105,74.7017,0.006888
11.136,74.7244,0.006888
11.167,74.7481,0.006888
11.198,74.7719,0.006888
11.230,74.7977,0.006888
11.260,74.8226,0.006888
11.291,74.8491,0.006888
11.321,74.8756,0.006888
11.352,74.9033,0.006766
11.384,74.9317,0.006766
11.415,74.9611,0.006766
11.446,74.9908,0.006766
11.477,75.0218,0.006766
11.509,75.0539,0.006766
11.539,75.0856,0.006766
11.570,75.1190,0.006681
11.601,75.1516,0.006681
11.631,75.1849,0.006681
11.662,75.2201,0.006681
11.694,75.2569,0.006681
11.727,75.2969,0.006681
11.757,75.3317,0.006681
11.788,75.3700,0.006681
11.819,75.4084,0.006531
11.855,75.4541,0.006531
11.896,75.5087,0.006531
11.926,75.5483,0.006531
11.957,75.5894,0.006531
11.988,75.6321,0.006531
12.019,75.6754,0.006531
12.050,75.7202,0.006531
12.080,75.7643,0.006305
12.112,75.8107,0.006305
12.142,75.8562,0.006305
12.174,75.9032,0.006305
12.206,75.9502,0.006305
12.236,75.9962,0.006305
12.267,76.0417,0.006305
12.296,76.0868,0.006305
12.328,76.1344,0.006154
12.359,76.1802,0.006154
12.390,76.2283,0.006154
12.422,76.2753,0.006154
12.453,76.3220,0.006154
12.484,76.3683,0.006154
12.514,76.4134,0.006154
12.545,76.4596,0.006154
12.576,76.5063,0.006154
12.607,76.5543,0.006023
12.639,76.6002,0.006023
12.671,76.6490,0.006023
12.701,76.6942,0.006023
12.733,76.7424,0.006023
12.764,76.7880,0.006023
12.794,76.8334,0.006023
12.826,76.8818,0.006023
12.857,76.9270,0.005834
12.889,76.9758,0.005834
12.920,77.0215,0.005834
12.951,77.0697,0.005834
12.982,77.1145,0.005834
13.013,77.1619,0.005834
13.044,77.2082,0.005834
13.075,77.2548,0.005834
13.106,77.3013,0.005609
13.137,77.3488,0.005609
13.169,77.3953,0.005609
13.199,77.4399,0.005609
13.230,77.4864,0.005609
13.261,77.5342,0.005609
13.292,77.5798,0.005609
13.322,77.6263,0.005609
13.353,77.6717,0.005355
13.385,77.7187,0.005355
13.415,77.7662,0.005355
13.446,77.8114,0.005355
13.477,77.8594,0.005355
13.508,77.9046,0.005355
13.540,77.9517,0.005355
13.571,77.9956,0.005355
13.602,78.0408,0.005016
13.633,78.0835,0.005016
13.663,78.1258,0.005016
13.694,78.1669,0.005016
13.725,78.2081,0.005016
13.757,78.2499,0.005016
13.786,78.2882,0.005016
13.818,78.3282,0.004423
13.849,78.3667,0.004423
13.881,78.4051,0.004423
13.911,78.4405,0.004423
13.942,78.4765,0.004423
13.972,78.5113,0.004423
14.003,78.5460,0.004423
14.034,78.5798,0.004423
14.065,78.6134,0.004423
14.096,78.6459,0.004423
14.127,78.6776,0.003181
14.158,78.7097,0.003181
14.188,78.7389,0.003181
14.220,78.7691,0.003181
14.251,78.7977,0.003181
14.282,78.8264,0.003181
14.313,78.8536,0.003181
14.345,78.8808,0.000442
14.376,78.9074,0.000442
14.406,78.9316,0.000442
14.438,78.9569,0.000442
14.468,78.9800,0.000442
14.499,79.0034,0.000442
14.529,79.0251,0.000442
14.560,79.0470,0.000442
14.590,79.0672,-0.004790
14.623,79.0883,-0.004790
14.651,79.1064,-0.004790
14.682,79.1252,-0.004790
14.713,79.1431,-0.004790
14.743,79.1601,-0.004790
14.775,79.1773,-0.004790
14.806,79.1929,-0.012535
14.837,79.2082,-0.012535
14.868,79.2223,-0.012535
14.899,79.2366,-0.012535
14.929,79.2491,-0.012535
14.960,79.2616,-0.012535
14.991,79.2729,-0.012535
15.023,79.2841,-0.012535
15.054,79.2941,-0.012535
15.086,79.3042,-0.012535
15.117,79.3125,-0.020966
15.149,79.3206,-0.020966
15.179,79.3277,-0.020966
15.210,79.3341,-0.020966
15.241,79.3398,-0.020966
15.272,79.3447,-0.020966
15.305,79.3493,-0.020966
15.335,79.3526,-0.027205
15.366,79.3553,-0.027205
15.396,79.3574,-0.027205
15.426,79.3588,-0.027205
15.457,79.3594,-0.027205
15.490,79.3594,-0.027205
15.519,79.3594,-0.027205
15.550,79.3594,-0.027205
15.581,79.3594,-0.029040
15.613,79.3594,-0.029040
15.644,79.3594,-0.029040
15.674,79.3594,-0.029040
15.706,79.3594,-0.029040
15.737,79.3594,-0.029040
15.769,79.3594,-0.029040
15.803,79.3594,-0.029040
15.830,79.3594,-0.027290
15.860,79.3594,-0.027290
15.891,79.3594,-0.027290
15.922,79.3594,-0.027290
15.954,79.3594,-0.027290
15.985,79.3594,-0.027290
16.016,79.3594,-0.027290
16.047,79.3594,-0.027290
16.078,79.3594,-0.024900
16.110,79.3594,-0.024900
16.141,79.3594,-0.024900
16.171,79.3594,-0.024900
16.203,79.3594,-0.024900
16.235,79.3594,-0.024900
16.266,79.3594,-0.024900
16.296,79.3594,-0.024900
16.327,79.3594,-0.023244
16.359,79.3594,-0.023244
16.390,79.3594,-0.023244
16.421,79.3594,-0.023244
16.458,79.3594,-0.023244
16.484,79.3594,-0.023244
16.515,79.3594,-0.023244
16.546,79.3594,-0.023244
16.576,79.3594,-0.023244
16.608,79.3594,-0.022077
16.638,79.3594,-0.022077
16.669,79.3594,-0.022077
16.700,79.3594,-0.022077
16.734,79.3594,-0.022077
16.764,79.3594,-0.022077
16.797,79.3594,-0.022077
16.824,79.3594,-0.022077
16.857,79.3594,-0.021164
16.885,79.3594,-0.021164
16.917,79.3594,-0.021164
16.948,79.3594,-0.021164
16.981,79.3594,-0.021164
17.010,79.3594,-0.021164
17.040,79.3594,-0.021164
17.071,79.3594,-0.021164
17.102,79.3594,-0.020383
17.133,79.3594,-0.020383
17.164,79.3594,-0.020383
17.195,79.3594,-0.020383
17.226,79.3594,-0.020383
17.257,79.3594,-0.020383
17.289,79.3594,-0.020383
17.320,79.3594,-0.020383
17.351,79.3594,-0.019771
17.382,79.3594,-0.019771
17.413,79.3594,-0.019771
17.445,79.3594,-0.019771
17.476,79.3594,-0.019771
17.507,79.3594,-0.019771
17.538,79.3594,-0.019771
17.569,79.3594,-0.019771
17.600,79.3594,-0.019244
17.631,79.3594,-0.019244
17.661,79.3594,-0.019244
17.693,79.3594,-0.019244
17.724,79.3594,-0.019244
17.755,79.3594,-0.019244
17.786,79.3594,-0.019244
17.817,79.3594,-0.018689
17.848,79.3594,-0.018689
17.880,79.3594,-0.018689
17.911,79.3594,-0.018689
17.943,79.3594,-0.018689
17.974,79.3594,-0.018689
18.005,79.3594,-0.018689
18.037,79.3594,-0.018689
18.068,79.3594,-0.018266
18.099,79.3594,-0.018266
18.131,79.3594,-0.018266
18.163,79.3594,-0.018266
18.193,79.3594,-0.018266
18.225,79.3594,-0.018266
18.256,79.3594,-0.018266
18.287,79.3594,-0.018266
18.319,79.3594,-0.017861
18.350,79.3594,-0.017861
18.382,79.3594,-0.017861
18.412,79.3594,-0.017861
18.443,79.3594,-0.017861
18.473,79.3594,-0.017861
18.506,79.3594,-0.017861
18.536,79.3594,-0.017861
18.567,79.3594,-0.017466
18.598,79.3594,-0.017466
18.628,79.3594,-0.017466
18.660,79.3594,-0.017466
18.692,79.3594,-0.017466
18.723,79.3594,-0.017466
18.753,79.3594,-0.017466
18.785,79.3594,-0.017466
18.815,79.3594,-0.017127
18.847,79.3594,-0.017127
18.879,79.3594,-0.017127
18.911,79.3594,-0.017127
18.942,79.3594,-0.017127
18.973,79.3594,-0.017127
19.003,79.3594,-0.017127
19.035,79.3594,-0.017127
19.066,79.3594,-0.017127
19.097,79.3594,-0.016788
19.128,79.3594,-0.016788
19.159,79.3594,-0.016788
19.191,79.3594,-0.016788
19.222,79.3594,-0.016788
19.253,79.3594,-0.016788
19.285,79.3594,-0.016788
19.315,79.3594,-0.016788
19.345,79.3594,-0.016515
19.376,79.3594,-0.016515
19.407,79.3594,-0.016515
19.439,79.3594,-0.016515
19.470,79.3594,-0.016515
19.500,79.3594,-0.016515
19.531,79.3594,-0.016515
19.563,79.3594,-0.016261
19.594,79.3594,-0.016261
19.625,79.3594,-0.016261
19.656,79.3594,-0.016261
19.687,79.3594,-0.016261
19.718,79.3594,-0.016261
19.752,79.3594,-0.016261
19.780,79.3594,-0.016261
19.813,79.3594,-0.016261
19.843,79.3594,-0.016026
19.874,79.3594,-0.016026
19.905,79.3594,-0.016026
19.937,79.3594,-0.016026
19.966,79.3594,-0.016026
19.997,79.3594,-0.016026
20.028,79.3594,-0.016026
20.060,79.3594,-0.016026
20.091,79.3594,-0.015781
20.122,79.3594,-0.015781
20.153,79.3594,-0.015781
20.185,79.3594,-0.015781
20.216,79.3592,-0.015781
20.247,79.3585,-0.015781
20.278,79.3570,-0.015781
20.310,79.3547,-0.015781
20.340,79.3519,-0.015781
20.371,79.3483,-0.015499
20.402,79.3439,-0.015499
20.433,79.3387,-0.015499
20.464,79.3328,-0.015499
20.497,79.3258,-0.015499
20.526,79.3189,-0.015499
20.557,79.3113,-0.015499
20.588,79.3023,-0.013269
20.619,79.2929,-0.013269
20.650,79.2829,-0.013269
20.687,79.2696,-0.013269
20.727,79.2540,-0.013269
20.759,79.2411,-0.013269
20.790,79.2275,-0.013269
20.821,79.2129,-0.013269
20.853,79.1973,-0.006248
20.882,79.1830,-0.006248
20.913,79.1666,-0.006248
20.944,79.1495,-0.006248
20.976,79.1313,-0.006248
21.005,79.1137,-0.006248
21.036,79.0950,-0.006248
21.067,79.0747,0.004103
21.098,79.0539,0.004103
21.129,79.0321,0.004103
21.161,79.0091,0.004103
21.193,78.9862,0.004103
21.224,78.9621,0.004103
21.255,78.9373,0.004103
21.287,78.9121,0.004103
21.319,78.8855,0.004103
21.349,78.8596,0.013730
21.380,78.8320,0.013730
21.411,78.8037,0.013730
21.442,78.7753,0.013730
21.473,78.7450,0.013730
21.504,78.7156,0.013730
21.534,78.6851,0.013730
21.565,78.6537,0.020138
21.596,78.6217,0.020138
21.628,78.5868,0.020138
21.658,78.5541,0.020138
21.689,78.5196,0.020138
21.721,78.4836,0.020138
21.751,78.4489,0.020138
21.782,78.4111,0.020138
21.813,78.3739,0.024721
21.844,78.3348,0.024721
21.876,78.2965,0.024721
21.906,78.2563,0.024721
21.937,78.2169,0.024721
21.969,78.1742,0.024721
22.000,78.1323,0.024721
22.031,78.0890,0.024721
22.062,78.0473,0.024721
22.093,78.0009,0.030791
22.125,77.9570,0.030791
22.156,77.9100,0.030791
22.187,77.8633,0.030791
22.218,77.8174,0.030791
22.250,77.7701,0.030791
22.279,77.7256,0.030791
22.311,77.6779,0.030791
22.342,77.6314,0.037914
22.373,77.5853,0.037914
22.405,77.5372,0.037914
22.435,77.4929,0.037914
22.466,77.4464,0.037914
22.497,77.3983,0.037914
22.527,77.3547,0.037914
22.558,77.3083,0.037914
22.589,77.2613,0.041161
22.620,77.2148,0.041161
22.652,77.1676,0.041161
22.683,77.1206,0.041161
22.714,77.0732,0.041161
22.745,77.0281,0.041161
22.776,76.9816,0.041161
22.808,76.9324,0.041161
22.837,76.8897,0.026217
22.868,76.8421,0.026217
22.899,76.7962,0.026217
22.931,76.7487,0.026217
22.961,76.7032,0.026217
22.992,76.6560,0.026217
23.022,76.6119,0.026217
23.053,76.5645,0.026217
23.085,76.5175,0.010831
23.115,76.4709,0.010831
23.146,76.4250,0.010831
23.178,76.3781,0.010831
23.209,76.3312,0.010831
23.241,76.2843,0.010831
23.272,76.2370,0.010831
23.302,76.1924,0.010831
23.332,76.1464,0.009909
23.363,76.1003,0.009909
23.394,76.0543,0.009909
23.425,76.0074,0.009909
23.456,75.9611,0.009909
23.487,75.9139,0.009909
23.518,75.8677,0.009909
23.549,75.8217,0.009909
23.580,75.7747,0.009363
23.611,75.7288,0.009363
23.642,75.6843,0.009363
23.673,75.6388,0.009363
23.704,75.5961,0.009363
23.736,75.5515,0.009363
23.767,75.5103,0.009363
23.800,75.4644,0.009363
23.829,75.4281,0.009363
23.859,75.3884,0.008902
23.890,75.3494,0.008902
23.921,75.3105,0.008902
23.953,75.2719,0.008902
23.985,75.2339,0.008902
24.016,75.1981,0.008902
24.047,75.1625,0.008902
24.077,75.1282,0.008902
24.108,75.0938,0.008507
24.140,75.0594,0.008507
24.170,75.0280,0.008507
24.202,74.9952,0.008507
24.236,74.9613,0.008507
24.264,74.9329,0.008507
24.296,74.9023,0.008507
24.327,74.8737,0.008309
24.358,74.8452,0.008309
24.389,74.8178,0.008309
24.420,74.7907,0.008309
24.451,74.7648,0.008309
24.482,74.7389,0.008309
24.513,74.7149,0.008309
24.543,74.6914,0.008309
24.574,74.6679,0.008149
24.605,74.6461,0.008149
24.636,74.6244,0.008149
24.668,74.6026,0.008149
24.699,74.5825,0.008149
24.730,74.5628,0.008149
24.761,74.5440,0.008149
24.791,74.5261,0.008149
24.822,74.5089,0.007952
24.853,74.4919,0.007952
24.884,74.4763,0.007952
24.914,74.4613,0.007952
24.945,74.4471,0.007952
24.976,74.4328,0.007952
25.007,74.4201,0.007952
25.039,74.4074,0.007952
25.070,74.3960,0.007735
25.100,74.3853,0.007735
25.132,74.3750,0.007735
25.163,74.3654,0.007735
25.193,74.3570,0.007735
25.225,74.3490,0.007735
25.256,74.3416,0.007735
25.287,74.3351,0.007735
25.318,74.3295,0.007575
25.349,74.3243,0.007575
25.380,74.3201,0.007575
25.411,74.3165,0.007575
25.441,74.3137,0.007575
25.473,74.3115,0.007575
25.504,74.3101,0.007575
25.535,74.3094,0.007575
25.566,74.3094,0.007434
25.597,74.3094,0.007434
25.627,74.3094,0.007434
25.658,74.3094,0.007434
25.689,74.3094,0.007434
25.720,74.3094,0.007434
25.750,74.3094,0.007434
25.782,74.3094,0.007434
25.813,74.3094,0.007434
25.845,74.3094,0.007387
25.876,74.3094,0.007387
25.907,74.3094,0.007387
25.939,74.3094,0.007387
25.970,74.3094,0.007387
26.001,74.3094,0.007387
26.032,74.3094,0.007387
26.062,74.3094,0.007387
26.092,74.3094,0.007368
26.124,74.3094,0.007368
26.154,74.3094,0.007368
26.185,74.3094,0.007368
26.216,74.3100,0.007368
26.247,74.3112,0.007368
26.273,74.3130,0.007368
26.308,74.3160,0.007368
26.339,74.3194,0.007368
26.371,74.3239,0.007274
26.402,74.3286,0.007274
26.433,74.3343,0.007274
26.464,74.3408,0.007274
26.497,74.3486,0.007274
26.526,74.3556,0.007274
26.563,74.3662,0.007274
26.603,74.3783,0.007124
26.633,74.3886,0.007124
26.665,74.3999,0.007124
26.697,74.4121,0.007124
26.726,74.4239,0.007124
26.757,74.4375,0.007124
26.788,74.4508,0.007124
26.818,74.4654,0.007124
26.850,74.4813,0.007001
26.880,74.4975,0.007001
26.912,74.5140,0.007001
26.942,74.5318,0.007001
26.973,74.5496,0.007001
27.004,74.5687,0.007001
27.035,74.5883,0.007001
27.066,74.6090,0.007001
27.098,74.6307,0.006935
27.128,74.6524,0.006935
27.159,74.6748,0.006935
27.197,74.7040,0.006935
27.237,74.7353,0.006935
27.268,74.7612,0.006935
27.299,74.7868,0.006935
27.330,74.8134,0.006935
27.360,74.8405,0.006766
27.392,74.8692,0.006766
27.423,74.8978,0.006766
27.454,74.9278,0.006766
27.485,74.9586,0.006766
27.516,74.9888,0.006766
27.547,75.0214,0.006766
27.579,75.0539,0.006644
27.610,75.0879,0.006644
27.641,75.1214,0.006644
27.672,75.1571,0.006644
27.703,75.1921,0.006644
27.734,75.2283,0.006644
27.765,75.2655,0.006644
27.801,75.3094,0.006644
27.828,75.3416,0.006521
27.858,75.3796,0.006521
27.889,75.4198,0.006521
27.922,75.4638,0.006521
27.951,75.5022,0.006521
27.983,75.5450,0.006521
28.014,75.5872,0.006521
28.046,75.6330,0.006521
28.075,75.6745,0.006521
28.107,75.7200,0.006324
28.138,75.7662,0.006324
28.169,75.8135,0.006324
28.199,75.8581,0.006324
28.231,75.9057,0.006324
28.262,75.9516,0.006324
28.293,75.9986,0.006324
28.324,76.0442,0.006154
28.354,76.0899,0.006154
28.386,76.1374,0.006154
28.417,76.1842,0.006154
28.448,76.2327,0.006154
28.479,76.2783,0.006154
28.510,76.3249,0.006154
28.541,76.3705,0.006154
28.572,76.4178,0.006154
28.603,76.4639,0.006004
28.637,76.5142,0.006004
28.666,76.5583,0.006004
28.697,76.6057,0.006004
28.729,76.6521,0.006004
28.760,76.6999,0.006004
28.790,76.7443,0.006004
28.822,76.7922,0.006004
28.853,76.8391,0.005778
28.885,76.8861,0.005778
28.915,76.9329,0.005778
28.947,76.9789,0.005778
28.978,77.0269,0.005778
29.009,77.0732,0.005778
29.040,77.1191,0.005778
29.070,77.1653,0.005637
29.101,77.2107,0.005637
29.134,77.2616,0.005637
29.162,77.3028,0.005637
29.193,77.3496,0.005637
29.225,77.3962,0.005637
29.255,77.4425,0.005637
29.288,77.4905,0.005637
29.318,77.5371,0.005637
29.350,77.5845,0.005411
29.381,77.6312,0.005411
29.412,77.6764,0.005411
29.443,77.7242,0.005411
29.474,77.7706,0.005411
29.503,77.8149,0.005411
29.536,77.8641,0.005411
29.567,77.9083,0.005411
29.598,77.9528,0.005411
29.630,77.9982,0.004950
29.661,78.0417,0.004950
29.693,78.0857,0.004950
29.723,78.1260,0.004950
29.754,78.1675,0.004950
29.784,78.2068,0.004950
29.815,78.2461,0.004950
29.846,78.2845,0.004404
29.876,78.3224,0.004404
29.907,78.3599,0.004404
29.939,78.3972,0.004404
29.971,78.4345,0.004404
30.002,78.4706,0.004404
30.033,78.5044,0.004404
30.064,78.5395,0.004404
30.095,78.5731,0.003303
30.126,78.6049,0.003303
30.157,78.6359,0.003303
30.189,78.6673,0.003303
30.219,78.6972,0.003303
30.251,78.7277,0.003303
30.281,78.7556,0.003303
30.313,78.7837,0.003303
30.344,78.8111,0.000753
30.374,78.8372,0.000753
30.405,78.8627,0.000753
30.436,78.8885,0.000753
30.467,78.9121,0.000753
30.498,78.9362,0.000753
30.529,78.9588,0.000753
30.561,78.9820,0.000753
30.592,79.0031,0.000753
30.623,79.0241,-0.004235
30.654,79.0444,-0.004235
30.686,79.0644,-0.004235
30.715,79.0817,-0.004235
30.747,79.1000,-0.004235
30.779,79.1173,-0.004235
30.809,79.1335,-0.004235
30.839,79.1487,-0.011725
30.872,79.1642,-0.011725
30.902,79.1779,-0.011725
30.934,79.1919,-0.011725
30.964,79.2041,-0.011725
30.996,79.2166,-0.011725
31.026,79.2277,-0.011725
31.058,79.2386,-0.011725
31.089,79.2482,-0.020138
31.119,79.2572,-0.020138
31.150,79.2654,-0.020138
31.182,79.2733,-0.020138
31.212,79.2800,-0.020138
31.244,79.2862,-0.020138
31.275,79.2918,-0.020138
31.306,79.2964,-0.026716
31.337,79.3003,-0.026716
31.368,79.3037,-0.026716
31.398,79.3062,-0.026716
31.429,79.3079,-0.026716
31.460,79.3090,-0.026716
31.490,79.3094,-0.026716
31.524,79.3094,-0.026716
31.552,79.3094,-0.026716
31.584,79.3094,-0.028937
31.614,79.3094,-0.028937
31.645,79.3094,-0.028937
31.677,79.3094,-0.028937
31.708,79.3094,-0.028937
31.738,79.3094,-0.028937
31.769,79.3094,-0.028937
31.800,79.3094,-0.028937
31.831,79.3094,-0.027309
31.862,79.3094,-0.027309
31.893,79.3094,-0.027309
31.924,79.3094,-0.027309
31.955,79.3094,-0.027309
31.986,79.3094,-0.027309
32.016,79.3094,-0.027309
32.047,79.3094,-0.027309
32.078,79.3094,-0.024966
32.109,79.3094,-0.024966
32.139,79.3094,-0.024966
32.175,79.3094,-0.024966
32.202,79.3094,-0.024966
32.233,79.3094,-0.024966
32.264,79.3094,-0.024966
32.295,79.3094,-0.024966
32.327,79.3094,-0.023347
32.358,79.3094,-0.023347
32.389,79.3094,-0.023347
32.420,79.3094,-0.023347
32.451,79.3094,-0.023347
32.482,79.3094,-0.023347
32.513,79.3094,-0.023347
32.545,79.3094,-0.023347
32.576,79.3094,-0.023347
32.608,79.3094,-0.022086
32.638,79.3094,-0.022086
32.670,79.3094,-0.022086
32.700,79.3094,-0.022086
32.730,79.3094,-0.022086
32.761,79.3094,-0.022086
32.792,79.3094,-0.022086
32.823,79.3094,-0.022086
32.854,79.3094,-0.021079
32.885,79.3094,-0.021079
32.916,79.3094,-0.021079
32.948,79.3094,-0.021079
32.979,79.3094,-0.021079
33.010,79.3094,-0.021079
33.042,79.3094,-0.021079
33.073,79.3094,-0.021079
33.104,79.3094,-0.020289
33.135,79.3094,-0.020289
33.167,79.3094,-0.020289
33.196,79.3094,-0.020289
33.228,79.3094,-0.020289
33.259,79.3094,-0.020289
33.289,79.3094,-0.020289
33.320,79.3094,-0.020289
33.352,79.3094,-0.019668
33.384,79.3094,-0.019668
33.414,79.3094,-0.019668
33.444,79.3094,-0.019668
33.476,79.3094,-0.019668
33.507,79.3094,-0.019668
33.538,79.3094,-0.019668
33.569,79.3094,-0.019668
33.600,79.3094,-0.019037
33.631,79.3094,-0.019037
33.662,79.3094,-0.019037
33.694,79.3094,-0.019037
33.725,79.3094,-0.019037
33.758,79.3094,-0.019037
33.788,79.3094,-0.019037
33.818,79.3094,-0.019037
33.849,79.3094,-0.019037
33.880,79.3094,-0.018501
33.912,79.3094,-0.018501
33.943,79.3094,-0.018501
33.974,79.3094,-0.018501
34.004,79.3094,-0.018501
34.036,79.3094,-0.018501
34.067,79.3094,-0.018501
34.097,79.3094,-0.018077
34.129,79.3094,-0.018077
34.159,79.3094,-0.018077
34.191,79.3094,-0.018077
34.221,79.3094,-0.018077
34.252,79.3094,-0.018077
34.283,79.3094,-0.018077
34.314,79.3094,-0.017635
34.346,79.3094,-0.017635
34.377,79.3094,-0.017635
34.408,79.3094,-0.017635
34.439,79.3094,-0.017635
34.470,79.3094,-0.017635
34.500,79.3094,-0.017635
34.531,79.3094,-0.017635
34.562,79.3094,-0.017635
34.594,79.3094,-0.017277
34.626,79.3094,-0.017277
34.656,79.3094,-0.017277
34.687,79.3094,-0.017277
34.718,79.3094,-0.017277
34.752,79.3094,-0.017277
34.779,79.3094,-0.017277
34.810,79.3094,-0.017277
34.842,79.3094,-0.017005
34.873,79.3094,-0.017005
34.904,79.3094,-0.017005
34.935,79.3094,-0.017005
34.966,79.3094,-0.017005
34.998,79.3094,-0.017005
35.029,79.3094,-0.017005
35.059,79.3094,-0.017005
35.092,79.3094,-0.016750
35.120,79.3094,-0.016750
35.152,79.3094,-0.016750
35.183,79.3094,-0.016750
35.214,79.3094,-0.016750
35.245,79.3094,-0.016750
35.275,79.3094,-0.016750
35.306,79.3094,-0.016750
35.337,79.3094,-0.016412
35.368,79.3094,-0.016412
35.399,79.3094,-0.016412
35.431,79.3094,-0.016412
35.462,79.3094,-0.016412
35.493,79.3094,-0.016412
35.525,79.3094,-0.016412
35.555,79.3094,-0.016412
35.585,79.3094,-0.016412
35.616,79.3094,-0.016167
35.647,79.3094,-0.016167
35.679,79.3094,-0.016167
35.709,79.3094,-0.016167
35.740,79.3094,-0.016167
35.771,79.3094,-0.016167
35.802,79.3094,-0.016167
35.833,79.3094,-0.016167
35.864,79.3094,-0.015885
35.895,79.3094,-0.015885
35.926,79.3094,-0.015885
35.957,79.3094,-0.015885
35.987,79.3094,-0.015885
36.018,79.3094,-0.015885
36.050,79.3094,-0.015885
36.080,79.3094,-0.015584
36.112,79.3094,-0.015584
36.143,79.3094,-0.015584
36.174,79.3094,-0.015584
36.204,79.3094,-0.015584
36.235,79.3094,-0.015584
36.266,79.3094,-0.015584
36.296,79.3089,-0.015584
36.327,79.3077,-0.015367
36.358,79.3057,-0.015367
36.389,79.3031,-0.015367
36.420,79.2995,-0.015367
36.451,79.2954,-0.015367
36.482,79.2904,-0.015367
36.518,79.2838,-0.015367
36.544,79.2786,-0.015367
36.574,79.2717,-0.015367
36.605,79.2640,-0.013927
36.636,79.2557,-0.013927
36.666,79.2464,-0.013927
36.697,79.2367,-0.013927
36.729,79.2259,-0.013927
36.759,79.2146,-0.013927
36.790,79.2029,-0.013927
36.820,79.1900,-0.013927
36.851,79.1769,-0.008196
36.882,79.1623,-0.008196
36.913,79.1478,-0.008196
36.947,79.1299,-0.008196
36.974,79.1158,-0.008196
37.005,79.0986,-0.008196
37.036,79.0808,-0.008196
37.069,79.0607,-0.008196
37.097,79.0435,-0.008196
37.128,79.0238,0.001722
37.159,79.0031,0.001722
37.192,78.9802,0.001722
37.223,78.9578,0.001722
37.253,78.9352,0.001722
37.284,78.9119,0.001722
37.315,78.8870,0.001722
37.346,78.8619,0.011829
37.377,78.8364,0.011829
37.408,78.8101,0.011829
37.440,78.7819,0.011829
37.470,78.7548,0.011829
37.501,78.7254,0.011829
37.533,78.6955,0.011829
37.564,78.6650,0.011829
37.595,78.6342,0.019037
37.625,78.6030,0.019037
37.656,78.5711,0.019037
37.687,78.5371,0.019037
37.718,78.5042,0.019037
37.749,78.4689,0.019037
37.781,78.4328,0.019037
37.812,78.3970,0.019037
37.843,78.3596,0.023752
37.873,78.3227,0.023752
37.904,78.2843,0.023752
37.935,78.2464,0.023752
37.966,78.2062,0.023752
37.999,78.1622,0.023752
38.027,78.1257,0.023752
38.058,78.0837,0.023752
38.089,78.0413,0.029285
38.120,77.9983,0.029285
38.151,77.9551,0.029285
38.182,77.9097,0.029285
38.213,77.8638,0.029285
38.244,77.8173,0.029285
38.276,77.7706,0.029285
38.307,77.7234,0.029285
38.338,77.6769,0.036324
38.365,77.6372,0.036324
38.401,77.5824,0.036324
38.432,77.5352,0.036324
38.464,77.4887,0.036324
38.495,77.4410,0.036324
38.526,77.3956,0.036324
38.559,77.3461,0.036324
38.588,77.3018,0.041086
38.619,77.2552,0.041086
38.650,77.2092,0.041086
38.681,77.1619,0.041086
38.711,77.1155,0.041086
38.743,77.0697,0.041086
38.773,77.0243,0.041086
38.805,76.9763,0.041086
38.836,76.9301,0.027412
38.867,76.8830,0.027412
38.898,76.8366,0.027412
38.929,76.7896,0.027412
38.960,76.7448,0.027412
38.991,76.6973,0.027412
39.023,76.6505,0.027412
39.054,76.6023,0.027412
39.086,76.5548,0.027412
39.117,76.5078,0.011443
39.148,76.4609,0.011443
39.179,76.4144,0.011443
39.210,76.3688,0.011443
39.241,76.3215,0.011443
39.266,76.2850,0.011443
39.303,76.2299,0.011443
39.333,76.1838,0.011443
39.364,76.1375,0.009956
39.396,76.0888,0.009956
39.426,76.0457,0.009956
39.457,75.9990,0.009956
39.489,75.9512,0.009956
39.520,75.9041,0.009956
39.551,75.8570,0.009956
39.582,75.8108,0.009439
39.617,75.7587,0.009439
39.645,75.7173,0.009439
39.675,75.6724,0.009439
39.706,75.6270,0.009439
39.737,75.5835,0.009439
39.768,75.5401,0.009439
39.799,75.4967,0.009439
39.830,75.4559,0.009439
39.861,75.4137,0.009034
39.892,75.3721,0.009034
39.923,75.3334,0.009034
39.954,75.2936,0.009034
39.985,75.2549,0.009034
40.015,75.2187,0.009034
40.046,75.1823,0.009034
40.076,75.1463,0.009034
40.107,75.1105,0.009034
40.141,75.0731,0.008601
40.169,75.0419,0.008601
40.201,75.0076,0.008601
40.231,74.9756,0.008601
40.264,74.9424,0.008601
40.293,74.9128,0.008601
40.324,74.8821,0.008601
40.355,74.8530,0.008601
40.385,74.8245,0.008225
40.416,74.7964,0.008225
40.447,74.7688,0.008225
40.478,74.7422,0.008225
40.509,74.7152,0.008225
40.540,74.6903,0.008225
40.575,74.6620,0.008225
40.603,74.6410,0.008225
40.634,74.6173,0.008065
40.666,74.5948,0.008065
40.697,74.5726,0.008065
40.728,74.5521,0.008065
40.759,74.5311,0.008065
40.790,74.5123,0.008065
40.822,74.4924,0.008065
40.851,74.4757,0.007933
40.883,74.4576,0.007933
40.913,74.4420,0.007933
40.944,74.4257,0.007933
40.976,74.4100,0.007933
41.006,74.3960,0.007933
41.037,74.3824,0.007933
41.069,74.3692,0.007933
41.099,74.3570,0.007782
41.131,74.3451,0.007782
41.162,74.3344,0.007782
41.192,74.3244,0.007782
41.224,74.3150,0.007782
41.255,74.3064,0.007782
41.285,74.2986,0.007782
41.317,74.2909,0.007782
41.348,74.2847,0.007622
41.379,74.2790,0.007622
41.410,74.2740,0.007622
41.440,74.2697,0.007622
41.472,74.2662,0.007622
41.503,74.2634,0.007622
41.534,74.2613,0.007622
41.565,74.2600,0.007622
41.596,74.2593,0.007462
41.626,74.2593,0.007462
41.657,74.2593,0.007462
41.689,74.2593,0.007462
41.720,74.2593,0.007462
41.751,74.2593,0.007462
41.781,74.2593,0.007462
41.813,74.2593,0.007462
41.843,74.2593,0.007387
41.872,74.2593,0.007387
41.904,74.2593,0.007387
41.934,74.2593,0.007387
41.966,74.2593,0.007387
41.996,74.2593,0.007387
42.027,74.2593,0.007387
42.057,74.2593,0.007387
42.089,74.2593,0.007387
42.119,74.2593,0.007350
42.152,74.2593,0.007350
42.181,74.2593,0.007350
42.213,74.2593,0.007350
42.243,74.2593,0.007350
42.278,74.2599,0.007350
42.305,74.2610,0.007350
42.336,74.2630,0.007350
42.368,74.2657,0.007274
42.399,74.2691,0.007274
42.431,74.2735,0.007274
42.462,74.2785,0.007274
42.493,74.2840,0.007274
42.524,74.2905,0.007274
42.559,74.2983,0.007274
42.586,74.3053,0.007274
42.617,74.3140,0.007114
42.642,74.3213,0.007114
42.679,74.3330,0.007114
42.709,74.3435,0.007114
42.739,74.3549,0.007114
42.770,74.3664,0.007114
42.800,74.3793,0.007114
42.831,74.3930,0.007114
42.862,74.4069,0.007001
42.893,74.4218,0.007001
42.923,74.4369,0.007001
42.953,74.4535,0.007001
42.984,74.4699,0.007001
43.015,74.4884,0.007001
43.046,74.5066,0.007001
43.077,74.5263,0.007001
43.108,74.5461,0.006898
43.139,74.5674,0.006898
43.170,74.5886,0.006898
43.202,74.6113,0.006898
43.233,74.6341,0.006898
43.265,74.6589,0.006898
43.295,74.6827,0.006898
43.326,74.7079,0.006785
43.357,74.7333,0.006785
43.388,74.7607,0.006785
43.419,74.7885,0.006785
43.450,74.8160,0.006785
43.482,74.8450,0.006785
43.512,74.8742,0.006785
43.544,74.9052,0.006785
43.575,74.9366,0.006785
43.606,74.9686,0.006663
43.637,75.0004,0.006663
43.671,75.0372,0.006663
43.700,75.0687,0.006663
43.729,75.1015,0.006663
43.760,75.1376,0.006663
43.792,75.1737,0.006663
43.824,75.2122,0.006663
43.854,75.2485,0.006503
43.884,75.2861,0.006503
43.915,75.3248,0.006503
43.947,75.3661,0.006503
43.977,75.4044,0.006503
44.008,75.4457,0.006503
44.041,75.4911,0.006503
44.070,75.5301,0.006503
44.101,75.5745,0.006352
44.132,75.6186,0.006352
44.166,75.6674,0.006352
44.194,75.7080,0.006352
44.225,75.7549,0.006352
44.256,75.8006,0.006352
44.287,75.8476,0.006352
44.318,75.8938,0.006164
44.348,75.9391,0.006164
44.379,75.9852,0.006164
44.410,76.0321,0.006164
44.441,76.0792,0.006164
44.476,76.1307,0.006164
44.505,76.1733,0.006164
44.536,76.2198,0.006164
44.565,76.2646,0.006164
44.596,76.3117,0.006004
44.629,76.3605,0.006004
44.658,76.4034,0.006004
44.689,76.4499,0.006004
44.719,76.4951,0.006004
44.750,76.5421,0.006004
44.781,76.5882,0.006004
44.812,76.6347,0.005816
44.843,76.6810,0.005816
44.873,76.7265,0.005816
44.904,76.7725,0.005816
44.934,76.8191,0.005816
44.966,76.8649,0.005816
44.997,76.9126,0.005816
45.027,76.9579,0.005816
45.058,77.0049,0.005816
45.089,77.0504,0.005590
45.120,77.0971,0.005590
45.153,77.1482,0.005590
45.182,77.1908,0.005590
45.214,77.2372,0.005590
45.245,77.2842,0.005590
45.278,77.3346,0.005590
45.306,77.3767,0.005590
45.337,77.4239,0.005590
45.369,77.4706,0.005317
45.400,77.5164,0.005317
45.432,77.5654,0.005317
45.462,77.6090,0.005317
45.493,77.6573,0.005317
45.524,77.7033,0.005317
45.555,77.7499,0.005317
45.586,77.7963,0.005317
45.617,77.8424,0.005016
45.649,77.8877,0.005016
45.679,77.9321,0.005016
45.710,77.9745,0.005016
45.741,78.0174,0.005016
45.773,78.0604,0.005016
45.804,78.1025,0.005016
45.834,78.1416,0.005016
45.865,78.1810,0.004573
45.895,78.2200,0.004573
45.926,78.2582,0.004573
45.958,78.2976,0.004573
45.990,78.3349,0.004573
46.021,78.3713,0.004573
46.053,78.4086,0.004573
46.082,78.4418,0.004573
46.113,78.4748,0.003661
46.144,78.5088,0.003661
46.175,78.5414,0.003661
46.207,78.5739,0.003661
46.241,78.6084,0.003661
46.270,78.6367,0.003661
46.300,78.6657,0.003661
46.332,78.6951,0.001553
46.361,78.7228,0.001553
46.392,78.7498,0.001553
46.423,78.7771,0.001553
46.455,78.8033,0.001553
46.486,78.8288,0.001553
46.517,78.8535,0.001553
46.548,78.8774,0.001553
46.579,78.9010,-0.002682
46.610,78.9233,-0.002682
46.641,78.9450,-0.002682
46.671,78.9654,-0.002682
46.703,78.9862,-0.002682
46.733,79.0053,-0.002682
46.765,79.0251,-0.002682
46.796,79.0427,-0.002682
46.828,79.0607,-0.002682
46.859,79.0771,-0.009552
46.891,79.0942,-0.009552
46.920,79.1080,-0.009552
46.949,79.1212,-0.009552
46.982,79.1361,-0.009552
47.013,79.1492,-0.009552
47.045,79.1619,-0.009552
47.077,79.1737,-0.018011
47.108,79.1844,-0.018011
47.138,79.1944,-0.018011
47.169,79.2037,-0.018011
47.200,79.2125,-0.018011
47.232,79.2202,-0.018011
47.265,79.2280,-0.018011
47.293,79.2339,-0.018011
47.324,79.2396,-0.025257
47.355,79.2445,-0.025257
47.386,79.2487,-0.025257
47.416,79.2522,-0.025257
47.449,79.2553,-0.025257
47.478,79.2572,-0.025257
47.511,79.2587,-0.025257
47.540,79.2593,-0.025257
47.574,79.2593,-0.025257
47.603,79.2593,-0.028617
47.633,79.2593,-0.028617
47.664,79.2593,-0.028617
47.695,79.2593,-0.028617
47.726,79.2593,-0.028617
47.757,79.2593,-0.028617
47.787,79.2593,-0.028617
47.818,79.2593,-0.028617
47.849,79.2593,-0.028617
47.880,79.2593,-0.027657
47.911,79.2593,-0.027657
47.943,79.2593,-0.027657
47.973,79.2593,-0.027657
48.005,79.2593,-0.027657
48.036,79.2593,-0.027657
48.068,79.2593,-0.027657
48.098,79.2593,-0.027657
48.129,79.2593,-0.025154
48.159,79.2593,-0.025154
48.190,79.2593,-0.025154
48.222,79.2593,-0.025154
48.251,79.2593,-0.025154
48.282,79.2593,-0.025154
48.314,79.2593,-0.025154
48.345,79.2593,-0.025154
48.376,79.2593,-0.023347
48.408,79.2593,-0.023347
48.438,79.2593,-0.023347
48.471,79.2593,-0.023347
48.501,79.2593,-0.023347
48.533,79.2593,-0.023347
48.565,79.2593,-0.022114
48.596,79.2593,-0.022114
48.627,79.2593,-0.022114
48.657,79.2593,-0.022114
48.691,79.2593,-0.022114
48.720,79.2593,-0.022114
48.751,79.2593,-0.022114
48.782,79.2593,-0.022114
48.815,79.2593,-0.022114
48.843,79.2593,-0.022114
48.874,79.2593,-0.021117
48.905,79.2593,-0.021117
48.936,79.2593,-0.021117
48.967,79.2593,-0.021117
48.999,79.2593,-0.021117
49.030,79.2593,-0.021117
49.061,79.2593,-0.021117
49.092,79.2593,-0.020261
49.127,79.2593,-0.020261
49.155,79.2593,-0.020261
49.186,79.2593,-0.020261
49.216,79.2593,-0.020261
49.249,79.2593,-0.020261
49.279,79.2593,-0.020261
49.310,79.2593,-0.020261
49.341,79.2593,-0.020261
49.375,79.2593,-0.019545
49.403,79.2593,-0.019545
49.433,79.2593,-0.019545
49.465,79.2593,-0.019545
49.499,79.2593,-0.019545
49.526,79.2593,-0.019545
49.559,79.2593,-0.019545
49.589,79.2593,-0.018981
49.620,79.2593,-0.018981
49.651,79.2593,-0.018981
49.682,79.2593,-0.018981
49.715,79.2593,-0.018981
49.744,79.2593,-0.018981
49.775,79.2593,-0.018981
49.810,79.2593,-0.018981
49.837,79.2593,-0.018981
49.870,79.2593,-0.018501
49.900,79.2593,-0.018501
49.935,79.2593,-0.018501
49.963,79.2593,-0.018501
49.994,79.2593,-0.018501
50.025,79.2593,-0.018501
50.056,79.2593,-0.018501
50.087,79.2593,-0.018501
50.118,79.2593,-0.018021
50.150,79.2593,-0.018021
50.179,79.2593,-0.018021
50.210,79.2593,-0.018021
50.241,79.2593,-0.018021
50.271,79.2593,-0.018021
50.304,79.2593,-0.018021
50.333,79.2593,-0.018021
50.365,79.2593,-0.017560
50.395,79.2593,-0.017560
50.427,79.2593,-0.017560
50.458,79.2593,-0.017560
50.488,79.2593,-0.017560
50.520,79.2593,-0.017560
50.551,79.2593,-0.017560
50.582,79.2593,-0.017230
50.612,79.2593,-0.017230
50.644,79.2593,-0.017230
50.678,79.2593,-0.017230
50.706,79.2593,-0.017230
50.738,79.2593,-0.017230
50.769,79.2593,-0.017230
50.799,79.2593,-0.017230
50.830,79.2593,-0.016910
50.860,79.2593,-0.016910
50.892,79.2593,-0.016910
50.922,79.2593,-0.016910
50.954,79.2593,-0.016910
50.985,79.2593,-0.016910
51.016,79.2593,-0.016910
51.048,79.2593,-0.016910
51.079,79.2593,-0.016572
51.110,79.2593,-0.016572
51.140,79.2593,-0.016572
51.176,79.2593,-0.016572
51.202,79.2593,-0.016572
51.233,79.2593,-0.016572
51.264,79.2593,-0.016572
51.296,79.2593,-0.016572
51.325,79.2593,-0.016271
51.356,79.2593,-0.016271
51.388,79.2593,-0.016271
51.420,79.2593,-0.016271
51.450,79.2593,-0.016271
51.480,79.2593,-0.016271
51.511,79.2593,-0.016271
51.543,79.2593,-0.016271
51.575,79.2593,-0.015951
51.605,79.2593,-0.015951
51.636,79.2593,-0.015951
51.667,79.2593,-0.015951
51.698,79.2593,-0.015951
51.730,79.2593,-0.015951
51.760,79.2593,-0.015951
51.792,79.2593,-0.015951
51.823,79.2593,-0.015715
51.854,79.2593,-0.015715
51.884,79.2593,-0.015715
51.916,79.2593,-0.015715
51.946,79.2593,-0.015715
51.978,79.2593,-0.015715
52.008,79.2593,-0.015715
52.039,79.2593,-0.015715
52.071,79.2593,-0.015508
52.102,79.2593,-0.015508
52.134,79.2593,-0.015508
52.165,79.2593,-0.015508
52.196,79.2593,-0.015508
52.227,79.2593,-0.015508
52.258,79.2593,-0.015508
52.288,79.2593,-0.015508
52.320,79.2593,-0.015508
52.350,79.2593,-0.015245
52.382,79.2593,-0.015245
52.413,79.2592,-0.015245
52.444,79.2584,-0.015245
52.476,79.2569,-0.015245
52.506,79.2548,-0.015245
52.538,79.2518,-0.015245
52.569,79.2482,-0.015245
52.600,79.2438,-0.014963
52.630,79.2388,-0.014963
52.665,79.2321,-0.014963
52.691,79.2267,-0.014963
52.722,79.2195,-0.014963
52.754,79.2114,-0.014963
52.784,79.2027,-0.014963
52.816,79.1929,-0.011998
52.847,79.1830,-0.011998
52.877,79.1721,-0.011998
52.909,79.1603,-0.011998
52.940,79.1478,-0.011998
52.972,79.1348,-0.011998
53.003,79.1205,-0.011998
53.034,79.1064,-0.011998
53.064,79.0910,-0.003952
53.095,79.0755,-0.003952
53.126,79.0586,-0.003952
53.158,79.0408,-0.003952
53.186,79.0240,-0.003952
53.219,79.0044,-0.003952
53.249,78.9851,-0.003952
53.280,78.9650,-0.003952
53.310,78.9440,-0.003952
53.341,78.9221,0.006568
53.373,78.8991,0.006568
53.404,78.8763,0.006568
53.435,78.8521,0.006568
53.466,78.8271,0.006568
53.497,78.8021,0.006568
53.529,78.7751,0.006568
53.560,78.7482,0.006568
53.591,78.7200,0.015640
53.623,78.6914,0.015640
53.654,78.6627,0.015640
53.684,78.6322,0.015640
53.715,78.6017,0.015640
53.746,78.5713,0.015640
53.777,78.5398,0.015640
53.808,78.5070,0.015640
53.839,78.4729,0.021503
53.870,78.4392,0.021503
53.901,78.4040,0.021503
53.932,78.3683,0.021503
53.964,78.3317,0.021503
53.993,78.2955,0.021503
54.024,78.2573,0.021503
54.056,78.2180,0.021503
54.087,78.1783,0.026283
54.119,78.1386,0.026283
54.150,78.0966,0.026283
54.182,78.0539,0.026283
54.213,78.0122,0.026283
54.244,77.9698,0.026283
54.275,77.9263,0.026283
54.306,77.8805,0.026283
54.338,77.8351,0.032720
54.369,77.7891,0.032720
54.399,77.7441,0.032720
54.434,77.6905,0.032720
54.461,77.6516,0.032720
54.492,77.6041,0.032720
54.523,77.5587,0.032720
54.554,77.5119,0.032720
54.584,77.4660,0.039448
54.615,77.4199,0.039448
54.646,77.3743,0.039448
54.678,77.3263,0.039448
54.708,77.2795,0.039448
54.738,77.2347,0.039448
54.770,77.1882,0.039448
54.800,77.1416,0.039448
54.831,77.0953,0.039364
54.863,77.0477,0.039364
54.893,77.0034,0.039364
54.926,76.9526,0.039364
54.954,76.9110,0.039364
54.985,76.8636,0.039364
55.017,76.8176,0.039364
55.048,76.7698,0.039364
55.081,76.7203,0.023658
55.110,76.6766,0.023658
55.141,76.6314,0.023658
55.171,76.5856,0.023658
55.203,76.5380,0.023658
55.234,76.4911,0.023658
55.265,76.4441,0.023658
55.296,76.3979,0.023658
55.327,76.3523,0.010455
55.358,76.3057,0.010455
55.389,76.2592,0.010455
55.419,76.2133,0.010455
55.451,76.1655,0.010455
55.481,76.1204,0.010455
55.513,76.0732,0.010455
55.544,76.0257,0.010455
55.576,75.9787,0.010455
55.607,75.9321,0.009674
55.642,75.8798,0.009674
55.668,75.8396,0.009674
55.702,75.7894,0.009674
55.729,75.7478,0.009674
55.760,75.7020,0.009674
55.790,75.6569,0.009674
55.822,75.6101,0.009232
55.853,75.5655,0.009232
55.883,75.5221,0.009232
55.914,75.4795,0.009232
55.945,75.4368,0.009232
55.976,75.3956,0.009232
56.006,75.3543,0.009232
56.038,75.3136,0.009232
56.068,75.2749,0.009232
56.100,75.2347,0.009232
56.131,75.1965,0.008770
56.163,75.1582,0.008770
56.193,75.1229,0.008770
56.224,75.0868,0.008770
56.255,75.0510,0.008770
56.286,75.0162,0.008770
56.317,74.9825,0.008770
56.352,74.9451,0.008770
56.380,74.9157,0.008770
56.411,74.8844,0.008394
56.442,74.8530,0.008394
56.473,74.8225,0.008394
56.504,74.7936,0.008394
56.536,74.7634,0.008394
56.566,74.7360,0.008394
56.598,74.7084,0.008394
56.629,74.6820,0.008215
56.661,74.6548,0.008215
56.691,74.6302,0.008215
56.722,74.6059,0.008215
56.753,74.5826,0.008215
56.784,74.5594,0.008215
56.815,74.5372,0.008215
56.846,74.5158,0.008018
56.878,74.4943,0.008018
56.907,74.4752,0.008018
56.939,74.4559,0.008018
56.970,74.4371,0.008018
57.001,74.4191,0.008018
57.032,74.4023,0.008018
57.063,74.3859,0.008018
57.093,74.3704,0.007839
57.124,74.3558,0.007839
57.155,74.3415,0.007839
57.186,74.3277,0.007839
57.218,74.3151,0.007839
57.249,74.3028,0.007839
57.280,74.2915,0.007839
57.311,74.2810,0.007839
57.341,74.2713,0.007839
57.372,74.2623,0.007679
57.403,74.2541,0.007679
57.434,74.2463,0.007679
57.465,74.2392,0.007679
57.496,74.2330,0.007679
57.527,74.2275,0.007679
57.558,74.2227,0.007679
57.589,74.2186,0.007679
57.620,74.2154,0.007547
57.652,74.2126,0.007547
57.683,74.2108,0.007547
57.714,74.2097,0.007547
57.744,74.2093,0.007547
57.775,74.2093,0.007547
57.806,74.2093,0.007547
57.837,74.2093,0.007415
57.868,74.2093,0.007415
57.899,74.2093,0.007415
57.930,74.2093,0.007415
57.960,74.2093,0.007415
57.991,74.2093,0.007415
58.022,74.2093,0.007415
58.054,74.2093,0.007415
58.085,74.2093,0.007340
58.117,74.2093,0.007340
58.148,74.2093,0.007340
58.180,74.2093,0.007340
58.210,74.2093,0.007340
58.242,74.2093,0.007340
58.272,74.2093,0.007340
58.302,74.2093,0.007340
58.333,74.2093,0.007340
58.366,74.2093,0.007368
58.396,74.2093,0.007368
58.426,74.2093,0.007368
58.458,74.2093,0.007368
58.489,74.2093,0.007368
58.519,74.2093,0.007368
58.551,74.2097,0.007368
58.583,74.2108,0.007331
58.614,74.2126,0.007331
58.645,74.2151,0.007331
58.676,74.2185,0.007331
58.706,74.2223,0.007331
58.737,74.2270,0.007331
58.769,74.2326,0.007331
58.800,74.2388,0.007331
58.830,74.2455,0.007142
58.861,74.2531,0.007142
58.892,74.2613,0.007142
58.923,74.2704,0.007142
58.954,74.2801,0.007142
58.984,74.2907,0.007142
59.016,74.3019,0.007142
59.047,74.3141,0.007142
59.078,74.3269,0.006954
59.108,74.3400,0.006954
59.139,74.3539,0.006954
59.170,74.3692,0.006954
59.201,74.3844,0.006954
59.233,74.4013,0.006954
59.264,74.4183,0.006954
59.295,74.4360,0.006954
59.326,74.4542,0.006841
59.356,74.4740,0.006841
59.389,74.4942,0.006841
59.420,74.5153,0.006841
59.451,74.5370,0.006841
59.483,74.5597,0.006841
59.514,74.5830,0.006841
59.545,74.6070,0.006841
59.576,74.6310,0.006766
59.606,74.6549,0.006766
59.637,74.6811,0.006766
59.667,74.7066,0.006766
59.699,74.7348,0.006766
59.730,74.7627,0.006766
59.760,74.7913,0.006766
59.791,74.8196,0.006766
59.821,74.8488,0.006644
59.853,74.8805,0.006644
59.884,74.9121,0.006644
59.916,74.9461,0.006644
59.946,74.9780,0.006644
59.977,75.0122,0.006644
60.008,75.0465,0.006644
60.040,75.0834,0.006644
60.071,75.1185,0.006446
60.101,75.1535,0.006446
60.134,75.1938,0.006446
60.163,75.2295,0.006446
60.195,75.2702,0.006446
60.225,75.3075,0.006446
60.254,75.3475,0.006446
60.286,75.3884,0.006446
60.316,75.4294,0.006446
60.347,75.4712,0.006305
60.378,75.5150,0.006305
60.409,75.5594,0.006305
60.440,75.6032,0.006305
60.471,75.6488,0.006305
60.502,75.6944,0.006305
60.532,75.7406,0.006305
60.564,75.7874,0.006305
60.593,75.8325,0.006154
60.624,75.8783,0.006154
60.655,75.9239,0.006154
60.685,75.9688,0.006154
60.716,76.0156,0.006154
60.746,76.0617,0.006154
60.778,76.1085,0.006154
60.809,76.1555,0.006154
60.839,76.2006,0.006004
60.871,76.2490,0.006004
60.902,76.2943,0.006004
60.934,76.3430,0.006004
60.965,76.3895,0.006004
60.996,76.4360,0.006004
61.026,76.4809,0.006004
61.057,76.5278,0.006004
61.088,76.5743,0.005872
61.117,76.6188,0.005872
61.148,76.6636,0.005872
61.180,76.7118,0.005872
61.210,76.7567,0.005872
61.242,76.8062,0.005872
61.272,76.8493,0.005872
61.302,76.8956,0.005872
61.334,76.9423,0.005656
61.365,76.9894,0.005656
61.397,77.0378,0.005656
61.429,77.0854,0.005656
61.460,77.1323,0.005656
61.491,77.1782,0.005656
61.521,77.2236,0.005656
61.552,77.2704,0.005656
61.584,77.3177,0.005656
61.615,77.3650,0.005402
61.646,77.4103,0.005402
61.677,77.4578,0.005402
61.707,77.5030,0.005402
61.739,77.5500,0.005402
61.769,77.5951,0.005402
61.801,77.6436,0.005402
61.832,77.6890,0.005091
61.862,77.7352,0.005091
61.893,77.7804,0.005091
61.924,77.8271,0.005091
61.955,77.8702,0.005091
61.986,77.9149,0.005091
62.017,77.9579,0.005091
62.049,78.0006,0.005091
62.079,78.0409,0.004620
62.110,78.0814,0.004620
62.141,78.1219,0.004620
62.171,78.1609,0.004620
62.202,78.1989,0.004620
62.234,78.2381,0.004620
62.265,78.2749,0.004620
62.297,78.3131,0.004620
62.326,78.3460,0.003764
62.357,78.3813,0.003764
62.388,78.4162,0.003764
62.419,78.4504,0.003764
62.451,78.4833,0.003764
62.483,78.5168,0.003764
62.513,78.5465,0.003764
62.544,78.5774,0.003764
62.574,78.6067,0.001882
62.608,78.6393,0.001882
62.636,78.6648,0.001882
62.667,78.6925,0.001882
62.698,78.7197,0.001882
62.729,78.7460,0.001882
62.760,78.7710,0.001882
62.791,78.7963,0.001882
62.822,78.8202,-0.001986
62.853,78.8441,-0.001986
62.883,78.8654,-0.001986
62.913,78.8875,-0.001986
62.944,78.9083,-0.001986
62.975,78.9291,-0.001986
63.006,78.9485,-0.001986
63.037,78.9676,-0.001986
63.068,78.9861,-0.008526
63.099,79.0037,-0.008526
63.130,79.0212,-0.008526
63.160,79.0367,-0.008526
63.192,79.0525,-0.008526
63.223,79.0670,-0.008526
63.253,79.0819,-0.008526
63.284,79.0943,-0.008526
63.316,79.1071,-0.016816
63.347,79.1189,-0.016816
63.377,79.1297,-0.016816
63.408,79.1400,-0.016816
63.439,79.1496,-0.016816
63.470,79.1586,-0.016816
63.501,79.1669,-0.016816
63.532,79.1746,-0.016816
63.563,79.1810,-0.024363
63.593,79.1871,-0.024363
63.625,79.1924,-0.024363
63.656,79.1970,-0.024363
63.687,79.2010,-0.024363
63.717,79.2040,-0.024363
63.751,79.2066,-0.024363
63.780,79.2082,-0.024363
63.812,79.2091,-0.024363
63.843,79.2093,-0.024363
63.874,79.2093,-0.028372
63.906,79.2093,-0.028372
63.937,79.2093,-0.028372
63.969,79.2093,-0.028372
63.999,79.2093,-0.028372
64.030,79.2093,-0.028372
64.062,79.2093,-0.028372
64.094,79.2093,-0.027789
64.127,79.2093,-0.027789
64.155,79.2093,-0.027789
64.186,79.2093,-0.027789
64.217,79.2093,-0.027789
64.252,79.2093,-0.027789
64.280,79.2093,-0.027789
64.311,79.2093,-0.027789
64.342,79.2093,-0.025323
64.372,79.2093,-0.025323
64.403,79.2093,-0.025323
64.436,79.2093,-0.025323
64.464,79.2093,-0.025323
64.498,79.2093,-0.025323
64.526,79.2093,-0.025323
64.559,79.2093,-0.025323
64.588,79.2093,-0.025323
64.618,79.2093,-0.023507
64.649,79.2093,-0.023507
64.682,79.2093,-0.023507
64.711,79.2093,-0.023507
64.741,79.2093,-0.023507
64.772,79.2093,-0.023507
64.804,79.2093,-0.023507
64.835,79.2093,-0.023507
64.866,79.2093,-0.022143
64.897,79.2093,-0.022143
64.928,79.2093,-0.022143
64.958,79.2093,-0.022143
64.989,79.2093,-0.022143
65.020,79.2093,-0.022143
65.053,79.2093,-0.022143
65.082,79.2093,-0.021070
65.113,79.2093,-0.021070
65.144,79.2093,-0.021070
65.180,79.2093,-0.021070
65.206,79.2093,-0.021070
65.237,79.2093,-0.021070
65.268,79.2093,-0.021070
65.299,79.2093,-0.021070
65.329,79.2093,-0.020204
65.361,79.2093,-0.020204
65.392,79.2093,-0.020204
65.423,79.2093,-0.020204
65.454,79.2093,-0.020204
65.484,79.2093,-0.020204
65.515,79.2093,-0.020204
65.546,79.2093,-0.020204
65.578,79.2093,-0.019498
65.608,79.2093,-0.019498
65.640,79.2093,-0.019498
65.670,79.2093,-0.019498
65.700,79.2093,-0.019498
65.731,79.2093,-0.019498
65.763,79.2093,-0.019498
65.794,79.2093,-0.019498
65.825,79.2093,-0.018924
65.856,79.2093,-0.018924
65.886,79.2093,-0.018924
65.916,79.2093,-0.018924
65.947,79.2093,-0.018924
65.978,79.2093,-0.018924
66.009,79.2093,-0.018924
66.041,79.2093,-0.018924
66.072,79.2093,-0.018378
66.103,79.2093,-0.018378
66.134,79.2093,-0.018378
66.165,79.2093,-0.018378
66.196,79.2093,-0.018378
66.227,79.2093,-0.018378
66.258,79.2093,-0.018378
66.292,79.2093,-0.018378
66.320,79.2093,-0.017917
66.353,79.2093,-0.017917
66.382,79.2093,-0.017917
66.413,79.2093,-0.017917
66.444,79.2093,-0.017917
66.476,79.2093,-0.017917
66.507,79.2093,-0.017917
66.538,79.2093,-0.017917
66.569,79.2093,-0.017917
66.600,79.2093,-0.017917
66.631,79.2093,-0.017541
66.662,79.2093,-0.017541
66.694,79.2093,-0.017541
66.725,79.2093,-0.017541
66.756,79.2093,-0.017541
66.787,79.2093,-0.017541
66.817,79.2093,-0.017541
66.848,79.2093,-0.017174
66.879,79.2093,-0.017174
66.910,79.2093,-0.017174
66.942,79.2093,-0.017174
66.974,79.2093,-0.017174
67.004,79.2093,-0.017174
67.035,79.2093,-0.017174
67.067,79.2093,-0.017174
67.097,79.2093,-0.016798
67.128,79.2093,-0.016798
67.158,79.2093,-0.016798
67.190,79.2093,-0.016798
67.220,79.2093,-0.016798
67.251,79.2093,-0.016798
67.284,79.2093,-0.016798
67.313,79.2093,-0.016798
67.346,79.2093,-0.016468
67.376,79.2093,-0.016468
67.408,79.2093,-0.016468
67.439,79.2093,-0.016468
67.469,79.2093,-0.016468
67.500,79.2093,-0.016468
67.531,79.2093,-0.016468
67.562,79.2093,-0.016468
67.594,79.2093,-0.016176
67.624,79.2093,-0.016176
67.655,79.2093,-0.016176
67.687,79.2093,-0.016176
67.717,79.2093,-0.016176
67.748,79.2093,-0.016176
67.779,79.2093,-0.016176
67.810,79.2093,-0.016176
67.840,79.2093,-0.015866
67.871,79.2093,-0.015866
67.901,79.2093,-0.015866
67.932,79.2093,-0.015866
67.963,79.2093,-0.015866
67.995,79.2093,-0.015866
68.026,79.2093,-0.015866
68.057,79.2093,-0.015866
68.088,79.2093,-0.015866
68.119,79.2093,-0.015649
68.150,79.2093,-0.015649
68.182,79.2093,-0.015649
68.213,79.2093,-0.015649
68.244,79.2093,-0.015649
68.275,79.2093,-0.015649
68.306,79.2093,-0.015649
68.337,79.2093,-0.015405
68.368,79.2093,-0.015405
68.400,79.2093,-0.015405
68.430,79.2093,-0.015405
68.461,79.2093,-0.015405
68.492,79.2091,-0.015405
68.523,79.2081,-0.015405
68.554,79.2063,-0.015405
68.585,79.2038,-0.015113
68.616,79.2006,-0.015113
68.647,79.1968,-0.015113
68.678,79.1921,-0.015113
68.709,79.1869,-0.015113
68.740,79.1807,-0.015113
68.771,79.1738,-0.015113
68.802,79.1661,-0.015113
68.833,79.1582,-0.013118
68.864,79.1490,-0.013118
68.894,79.1396,-0.013118
68.925,79.1289,-0.013118
68.956,79.1180,-0.013118
68.987,79.1060,-0.013118
69.018,79.0933,-0.013118
69.050,79.0801,-0.013118
69.081,79.0654,-0.006521
69.112,79.0509,-0.006521
69.143,79.0354,-0.006521
69.174,79.0188,-0.006521
69.206,79.0017,-0.006521
69.237,78.9837,-0.006521
69.267,78.9654,-0.006521
69.298,78.9464,-0.006521
69.329,78.9269,0.003614
69.359,78.9067,0.003614
69.390,78.8856,0.003614
69.421,78.8633,0.003614
69.452,78.8410,0.003614
69.483,78.8168,0.003614
69.514,78.7930,0.003614
69.550,78.7629,0.003614
69.591,78.7296,0.013287
69.621,78.7032,0.013287
69.652,78.6759,0.013287
69.686,78.6449,0.013287
69.714,78.6190,0.013287
69.745,78.5891,0.013287
69.776,78.5588,0.013287
69.807,78.5273,0.013287
69.838,78.4959,0.019724
69.868,78.4636,0.019724
69.900,78.4304,0.019724
69.931,78.3951,0.019724
69.963,78.3605,0.019724
69.995,78.3238,0.019724
70.025,78.2878,0.019724
70.057,78.2504,0.024109
70.088,78.2115,0.024109
70.118,78.1753,0.024109
70.150,78.1346,0.024109
70.181,78.0945,0.024109
70.212,78.0539,0.024109
70.246,78.0085,0.024109
70.273,77.9713,0.024109
70.304,77.9291,0.024109
70.336,77.8846,0.029822
70.371,77.8350,0.029822
70.399,77.7941,0.029822
70.430,77.7473,0.029822
70.462,77.7007,0.029822
70.494,77.6521,0.029822
70.526,77.6043,0.029822
70.557,77.5569,0.029822
70.591,77.5061,0.036672
70.619,77.4643,0.036672
70.650,77.4175,0.036672
70.682,77.3695,0.036672
70.715,77.3194,0.036672
70.744,77.2766,0.036672
70.777,77.2267,0.036672
70.806,77.1844,0.036672
70.837,77.1370,0.040013
70.864,77.0977,0.040013
70.899,77.0445,0.040013
70.929,76.9993,0.040013
70.961,76.9508,0.040013
70.991,76.9061,0.040013
71.022,76.8592,0.040013
71.054,76.8123,0.040013
71.086,76.7647,0.025662
71.115,76.7200,0.025662
71.146,76.6728,0.025662
71.176,76.6284,0.025662
71.211,76.5739,0.025662
71.238,76.5362,0.025662
71.269,76.4885,0.025662
71.300,76.4427,0.025662
71.331,76.3962,0.025662
71.361,76.3511,0.025662
71.392,76.3044,0.010671
71.423,76.2582,0.010671
71.454,76.2118,0.010671
71.486,76.1645,0.010671
71.515,76.1199,0.010671
71.547,76.0730,0.010671
71.578,76.0250,0.010671
71.608,75.9796,0.009777
71.640,75.9337,0.009777
71.672,75.8855,0.009777
71.703,75.8392,0.009777
71.734,75.7926,0.009777
71.765,75.7452,0.009777
71.796,75.6991,0.009777
71.826,75.6528,0.009777
71.858,75.6067,0.009316
71.889,75.5600,0.009316
71.920,75.5161,0.009316
71.950,75.4719,0.009316
71.981,75.4299,0.009316
72.012,75.3868,0.009316
72.043,75.3460,0.009316
72.074,75.3039,0.008865
72.106,75.2629,0.008865
72.137,75.2218,0.008865
72.168,75.1841,0.008865
72.199,75.1451,0.008865
72.229,75.1091,0.008865
72.261,75.0718,0.008865
72.291,75.0360,0.008865
72.323,74.9999,0.008516
72.355,74.9644,0.008516
72.385,74.9314,0.008516
72.416,74.8975,0.008516
72.447,74.8660,0.008516
72.478,74.8338,0.008516
72.510,74.8025,0.008516
72.539,74.7736,0.008516
72.570,74.7446,0.008300
72.601,74.7149,0.008300
72.633,74.6870,0.008300
72.667,74.6560,0.008300
72.696,74.6320,0.008300
72.726,74.6068,0.008300
72.756,74.5816,0.008300
72.786,74.5585,0.008300
72.817,74.5351,0.008084
72.847,74.5122,0.008084
72.878,74.4903,0.008084
72.909,74.4693,0.008084
72.942,74.4462,0.008084
72.971,74.4280,0.008084
73.001,74.4091,0.008084
73.032,74.3905,0.008084
73.063,74.3725,0.008084
73.094,74.3549,0.008084
73.126,74.3380,0.007858
73.155,74.3229,0.007858
73.189,74.3065,0.007858
73.216,74.2943,0.007858
73.248,74.2800,0.007858
73.279,74.2675,0.007858
73.309,74.2556,0.007858
73.340,74.2440,0.007858
73.371,74.2332,0.007660
73.403,74.2232,0.007660
73.434,74.2139,0.007660
73.464,74.2055,0.007660
73.495,74.1976,0.007660
73.527,74.1903,0.007660
73.558,74.1840,0.007660
73.589,74.1784,0.007660
73.620,74.1735,0.007509
73.651,74.1692,0.007509
73.682,74.1659,0.007509
73.713,74.1630,0.007509
73.744,74.1611,0.007509
73.776,74.1598,0.007509
73.807,74.1593,0.007509
73.837,74.1593,0.007340
73.868,74.1593,0.007340
73.899,74.1593,0.007340
73.930,74.1593,0.007340
73.961,74.1593,0.007340
73.992,74.1593,0.007340
74.022,74.1593,0.007340
74.054,74.1593,0.007340
74.085,74.1593,0.007350
74.116,74.1593,0.007350
74.147,74.1593,0.007350
74.178,74.1593,0.007350
74.210,74.1593,0.007350
74.240,74.1593,0.007350
74.271,74.1593,0.007350
74.302,74.1593,0.007350
74.334,74.1593,0.007359
74.364,74.1593,0.007359
74.396,74.1593,0.007359
74.427,74.1593,0.007359
74.457,74.1593,0.007359
74.488,74.1594,0.007359
74.519,74.1603,0.007359
74.551,74.1619,0.007359
74.581,74.1643,0.007237
74.613,74.1674,0.007237
74.643,74.1711,0.007237
74.674,74.1756,0.007237
74.704,74.1805,0.007237
74.735,74.1865,0.007237
74.770,74.1939,0.007237
74.797,74.2005,0.007237
74.828,74.2086,0.007237
74.859,74.2174,0.007142
74.890,74.2268,0.007142
74.921,74.2370,0.007142
74.951,74.2480,0.007142
74.982,74.2594,0.007142
75.012,74.2714,0.007142
75.043,74.2846,0.007142
75.075,74.2993,0.007142
75.106,74.3134,0.007142
75.137,74.3291,0.007030
75.168,74.3452,0.007030
75.198,74.3612,0.007030
75.229,74.3786,0.007030
75.261,74.3979,0.007030
75.291,74.4159,0.007030
75.323,74.4365,0.007030
75.354,74.4565,0.006935
75.385,74.4777,0.006935
75.417,74.5003,0.006935
75.451,74.5256,0.006935
75.478,74.5464,0.006935
75.509,74.5696,0.006935
75.540,74.5949,0.006935
75.571,74.6198,0.006935
75.601,74.6452,0.006813
75.632,74.6731,0.006813
75.663,74.6999,0.006813
75.693,74.7286,0.006813
75.725,74.7581,0.006813
75.756,74.7874,0.006813
75.785,74.8169,0.006813
75.816,74.8478,0.006813
75.846,74.8787,0.006691
75.877,74.9113,0.006691
75.907,74.9440,0.006691
75.939,74.9789,0.006691
75.970,75.0142,0.006691
76.002,75.0502,0.006691
76.032,75.0860,0.006691
76.064,75.1235,0.006691
76.094,75.1609,0.006550
76.126,75.2009,0.006550
76.157,75.2394,0.006550
76.189,75.2812,0.006550
76.219,75.3208,0.006550
76.251,75.3631,0.006550
76.281,75.4045,0.006550
76.313,75.4494,0.006550
76.344,75.4918,0.006352
76.375,75.5375,0.006352
76.407,75.5826,0.006352
76.437,75.6289,0.006352
76.469,75.6748,0.006352
76.499,75.7213,0.006352
76.529,75.7659,0.006352
76.559,75.8111,0.006352
76.590,75.8568,0.006164
76.621,75.9040,0.006164
76.652,75.9505,0.006164
76.683,75.9971,0.006164
76.714,76.0422,0.006164
76.745,76.0884,0.006164
76.775,76.1348,0.006164
76.807,76.1825,0.006164
76.837,76.2278,0.006004
76.868,76.2743,0.006004
76.899,76.3202,0.006004
76.930,76.3668,0.006004
76.960,76.4123,0.006004
76.994,76.4627,0.006004
77.022,76.5056,0.006004
77.053,76.5524,0.006004
77.084,76.5972,0.005834
77.114,76.6445,0.005834
77.145,76.6905,0.005834
77.176,76.7366,0.005834
77.207,76.7835,0.005834
77.238,76.8294,0.005834
77.273,76.8818,0.005834
77.301,76.9226,0.005834
77.332,76.9698,0.005646
77.362,77.0161,0.005646
77.393,77.0627,0.005646
77.425,77.1091,0.005646
77.456,77.1572,0.005646
77.487,77.2021,0.005646
77.518,77.2502,0.005646
77.549,77.2957,0.005646
77.580,77.3414,0.005646
77.612,77.3893,0.005373
77.642,77.4353,0.005373
77.673,77.4823,0.005373
77.703,77.5273,0.005373
77.734,77.5734,0.005373
77.766,77.6214,0.005373
77.797,77.6665,0.005373
77.827,77.7127,0.005373
77.859,77.7586,0.005373
77.890,77.8049,0.004959
77.921,77.8480,0.004959
77.952,77.8911,0.004959
77.983,77.9334,0.004959
78.014,77.9761,0.004959
78.044,78.0158,0.004959
78.075,78.0568,0.004959
78.107,78.0963,0.004432
78.142,78.1413,0.004432
78.169,78.1741,0.004432
78.200,78.2117,0.004432
78.230,78.2474,0.004432
78.261,78.2837,0.004432
78.293,78.3197,0.004432
78.325,78.3555,0.004432
78.356,78.3899,0.003454
78.387,78.4229,0.003454
78.418,78.4546,0.003454
78.449,78.4869,0.003454
78.480,78.5176,0.003454
78.511,78.5483,0.003454
78.542,78.5767,0.003454
78.573,78.6062,0.003454
78.604,78.6333,0.001289
78.635,78.6609,0.001289
78.665,78.6869,0.001289
78.699,78.7148,0.001289
78.728,78.7384,0.001289
78.758,78.7623,0.001289
78.788,78.7853,0.001289
78.819,78.8087,0.001289
78.850,78.8305,-0.003068
78.880,78.8514,-0.003068
78.911,78.8718,-0.003068
78.942,78.8923,-0.003068
78.973,78.9110,-0.003068
79.003,78.9300,-0.003068
79.034,78.9472,-0.003068
79.065,78.9647,-0.003068
79.095,78.9804,-0.009994
79.126,78.9960,-0.009994
79.156,79.0109,-0.009994
79.188,79.0254,-0.009994
79.218,79.0391,-0.009994
79.249,79.0519,-0.009994
79.280,79.0638,-0.009994
79.311,79.0752,-0.009994
79.343,79.0861,-0.018237
79.374,79.0964,-0.018237
79.405,79.1054,-0.018237
79.436,79.1141,-0.018237
79.467,79.1217,-0.018237
79.497,79.1286,-0.018237
79.529,79.1349,-0.018237
79.560,79.1406,-0.018237
79.591,79.1454,-0.018237
79.623,79.1496,-0.025154
79.654,79.1531,-0.025154
79.687,79.1559,-0.025154
79.715,79.1576,-0.025154
79.749,79.1590,-0.025154
79.778,79.1593,-0.025154
79.809,79.1593,-0.025154
79.840,79.1593,-0.028175
79.871,79.1593,-0.028175
79.902,79.1593,-0.028175
79.933,79.1593,-0.028175
79.964,79.1593,-0.028175
79.997,79.1593,-0.028175
80.027,79.1593,-0.028175
80.060,79.1593,-0.028175
80.089,79.1593,-0.028175
80.120,79.1593,-0.028175
80.150,79.1593,-0.026998
80.181,79.1593,-0.026998
80.212,79.1593,-0.026998
80.243,79.1593,-0.026998
80.274,79.1593,-0.026998
80.306,79.1593,-0.026998
80.337,79.1593,-0.026998
80.369,79.1593,-0.024571
80.399,79.1593,-0.024571
80.430,79.1593,-0.024571
80.461,79.1593,-0.024571
80.491,79.1593,-0.024571
80.523,79.1593,-0.024571
80.554,79.1593,-0.024571
80.585,79.1593,-0.024571
80.616,79.1593,-0.024571
80.647,79.1593,-0.022877
80.678,79.1593,-0.022877
80.710,79.1593,-0.022877
80.740,79.1593,-0.022877
80.772,79.1593,-0.022877
80.803,79.1593,-0.022877
80.835,79.1593,-0.022877
80.865,79.1593,-0.021606
80.896,79.1593,-0.021606
80.927,79.1593,-0.021606
80.958,79.1593,-0.021606
80.990,79.1593,-0.021606
81.020,79.1593,-0.021606
81.051,79.1593,-0.021606
81.081,79.1593,-0.021606
81.113,79.1593,-0.020581
81.144,79.1593,-0.020581
81.184,79.1593,-0.020581
81.222,79.1593,-0.020581
81.253,79.1593,-0.020581
81.284,79.1593,-0.020581
81.315,79.1593,-0.020581
81.346,79.1593,-0.019790
81.378,79.1593,-0.019790
81.409,79.1593,-0.019790
81.440,79.1593,-0.019790
81.471,79.1593,-0.019790
81.502,79.1593,-0.019790
81.533,79.1593,-0.019790
81.564,79.1593,-0.019094
81.595,79.1593,-0.019094
81.625,79.1593,-0.019094
81.656,79.1593,-0.019094
81.687,79.1593,-0.019094
81.718,79.1593,-0.019094
81.748,79.1593,-0.019094
81.780,79.1593,-0.019094
81.811,79.1593,-0.019094
81.842,79.1593,-0.018491
81.873,79.1593,-0.018491
81.904,79.1593,-0.018491
81.935,79.1593,-0.018491
81.965,79.1593,-0.018491
81.996,79.1593,-0.018491
82.027,79.1593,-0.018491
82.058,79.1593,-0.018491
82.089,79.1593,-0.017974
82.121,79.1593,-0.017974
82.152,79.1593,-0.017974
82.183,79.1593,-0.017974
82.214,79.1593,-0.017974
82.244,79.1593,-0.017974
82.276,79.1593,-0.017974
82.306,79.1593,-0.017974
82.338,79.1593,-0.017494
82.369,79.1593,-0.017494
82.400,79.1593,-0.017494
82.431,79.1593,-0.017494
82.463,79.1593,-0.017494
82.495,79.1593,-0.017494
82.524,79.1593,-0.017494
82.555,79.1593,-0.017494
82.586,79.1593,-0.017127
82.617,79.1593,-0.017127
82.648,79.1593,-0.017127
82.678,79.1593,-0.017127
82.709,79.1593,-0.017127
82.740,79.1593,-0.017127
82.771,79.1593,-0.017127
82.802,79.1593,-0.017127
82.832,79.1593,-0.017127
82.863,79.1593,-0.016779
82.894,79.1593,-0.016779
82.928,79.1593,-0.016779
82.957,79.1593,-0.016779
82.989,79.1593,-0.016779
83.021,79.1593,-0.016779
83.052,79.1593,-0.016779
83.083,79.1593,-0.016393
83.112,79.1593,-0.016393
83.143,79.1593,-0.016393
83.174,79.1593,-0.016393
83.205,79.1593,-0.016393
83.236,79.1593,-0.016393
83.267,79.1593,-0.016393
83.298,79.1593,-0.016393
83.328,79.1593,-0.016393
83.360,79.1593,-0.016092
83.392,79.1593,-0.016092
83.424,79.1593,-0.016092
83.454,79.1593,-0.016092
83.485,79.1593,-0.016092
83.516,79.1593,-0.016092
83.547,79.1593,-0.016092
83.577,79.1593,-0.015847
83.608,79.1593,-0.015847
83.639,79.1593,-0.015847
83.670,79.1593,-0.015847
83.704,79.1593,-0.015847
83.733,79.1593,-0.015847
83.765,79.1593,-0.015847
83.796,79.1593,-0.015847
83.827,79.1593,-0.015574
83.858,79.1593,-0.015574
83.889,79.1593,-0.015574
83.920,79.1593,-0.015574
83.951,79.1593,-0.015574
83.982,79.1593,-0.015574
84.013,79.1593,-0.015574
84.044,79.1593,-0.015574
84.076,79.1593,-0.015574
84.107,79.1593,-0.015292
84.138,79.1593,-0.015292
84.169,79.1593,-0.015292
84.200,79.1593,-0.015292
84.232,79.1593,-0.015292
84.262,79.1593,-0.015292
84.294,79.1593,-0.015292
84.326,79.1593,-0.015292
84.357,79.1593,-0.015010
84.387,79.1593,-0.015010
84.418,79.1593,-0.015010
84.449,79.1593,-0.015010
84.479,79.1593,-0.015010
84.511,79.1593,-0.015010
84.542,79.1593,-0.015010
84.572,79.1588,-0.015010
84.604,79.1576,-0.014784
84.634,79.1557,-0.014784
84.665,79.1531,-0.014784
84.697,79.1495,-0.014784
84.727,79.1456,-0.014784
84.758,79.1407,-0.014784
84.788,79.1354,-0.014784
84.819,79.1291,-0.014784
84.850,79.1222,-0.013899
84.881,79.1142,-0.013899
84.911,79.1061,-0.013899
84.943,79.0969,-0.013899
84.973,79.0870,-0.013899
85.004,79.0764,-0.013899
85.035,79.0653,-0.013899
85.067,79.0528,-0.013899
85.098,79.0401,-0.008846
85.129,79.0265,-0.008846
85.159,79.0126,-0.008846
85.191,78.9972,-0.008846
85.222,78.9818,-0.008846
85.253,78.9649,-0.008846
85.284,78.9481,-0.008846
85.315,78.9300,-0.008846
85.345,78.9121,0.000781
85.376,78.8927,0.000781
85.407,78.8726,0.000781
85.439,78.8512,0.000781
85.470,78.8289,0.000781
85.500,78.8080,0.000781
85.531,78.7851,0.000781
85.562,78.7612,0.000781
85.593,78.7374,0.010963
85.624,78.7117,0.010963
85.655,78.6863,0.010963
85.686,78.6596,0.010963
85.717,78.6322,0.010963
85.749,78.6030,0.010963
85.780,78.5749,0.010963
85.811,78.5452,0.010963
85.842,78.5148,0.018501
85.872,78.4838,0.018501
85.904,78.4521,0.018501
85.935,78.4194,0.018501
85.966,78.3862,0.018501
85.997,78.3524,0.018501
86.028,78.3163,0.018501
86.059,78.2824,0.018501
86.090,78.2463,0.023310
86.122,78.2087,0.023310
86.156,78.1673,0.023310
86.184,78.1328,0.023310
86.215,78.0932,0.023310
86.246,78.0534,0.023310
86.277,78.0135,0.023310
86.308,77.9720,0.023310
86.339,77.9296,0.028523
86.370,77.8876,0.028523
86.401,77.8443,0.028523
86.432,77.7993,0.028523
86.466,77.7510,0.028523
86.493,77.7100,0.028523
86.526,77.6614,0.028523
86.555,77.6185,0.035383
86.586,77.5713,0.035383
86.617,77.5258,0.035383
86.648,77.4778,0.035383
86.679,77.4323,0.035383
86.710,77.3843,0.035383
86.743,77.3349,0.035383
86.773,77.2909,0.035383
86.804,77.2439,0.035383
86.836,77.1954,0.040427
86.865,77.1537,0.040427
86.896,77.1069,0.040427
86.927,77.0607,0.040427
86.957,77.0150,0.040427
86.988,76.9680,0.040427
87.019,76.9228,0.040427
87.049,76.8761,0.040427
87.080,76.8293,0.027431
87.112,76.7829,0.027431
87.143,76.7354,0.027431
87.173,76.6906,0.027431
87.204,76.6447,0.027431
87.234,76.5997,0.027431
87.266,76.5524,0.027431
87.296,76.5067,0.027431
87.329,76.4570,0.011659
87.359,76.4120,0.011659
87.390,76.3663,0.011659
87.421,76.3197,0.011659
87.453,76.2711,0.011659
87.484,76.2242,0.011659
87.515,76.1790,0.011659
87.546,76.1325,0.011659
87.577,76.0839,0.011659
87.609,76.0378,0.009881
87.640,75.9900,0.009881
87.670,75.9450,0.009881
87.701,75.8987,0.009881
87.732,75.8526,0.009881
87.763,75.8056,0.009881
87.794,75.7598,0.009881
87.826,75.7117,0.009881
87.857,75.6653,0.009335
87.888,75.6178,0.009335
87.919,75.5724,0.009335
87.950,75.5259,0.009335
87.980,75.4824,0.009335
88.011,75.4378,0.009335
88.042,75.3950,0.009335
88.073,75.3516,0.009335
88.104,75.3101,0.008930
88.135,75.2681,0.008930
88.166,75.2279,0.008930
88.197,75.1883,0.008930
88.228,75.1472,0.008930
88.259,75.1098,0.008930
88.290,75.0729,0.008930
88.321,75.0349,0.008930
88.353,74.9985,0.008601
88.383,74.9634,0.008601
88.413,74.9295,0.008601
88.445,74.8947,0.008601
88.474,74.8628,0.008601
88.506,74.8298,0.008601
88.537,74.7975,0.008601
88.568,74.7662,0.008601
88.598,74.7364,0.008262
88.633,74.7013,0.008262
88.661,74.6760,0.008262
88.693,74.6469,0.008262
88.724,74.6191,0.008262
88.754,74.5934,0.008262
88.785,74.5662,0.008262
88.816,74.5417,0.008262
88.847,74.5156,0.008262
88.877,74.4937,0.008046
88.909,74.4695,0.008046
88.940,74.4472,0.008046
88.971,74.4256,0.008046
89.002,74.4040,0.008046
89.033,74.3843,0.008046
89.064,74.3647,0.008046
89.096,74.3446,0.007914
89.126,74.3274,0.007914
89.158,74.3098,0.007914
89.190,74.2920,0.007914
89.220,74.2765,0.007914
89.251,74.2614,0.007914
89.282,74.2469,0.007914
89.313,74.2335,0.007707
89.344,74.2198,0.007707
89.375,74.2078,0.007707
89.406,74.1959,0.007707
89.437,74.1854,0.007707
89.468,74.1751,0.007707
89.499,74.1659,0.007707
89.532,74.1565,0.007707
89.560,74.1493,0.007707
89.591,74.1420,0.007594
89.623,74.1354,0.007594
89.653,74.1294,0.007594
89.684,74.1246,0.007594
89.719,74.1196,0.007594
89.746,74.1167,0.007594
89.777,74.1138,0.007594
89.808,74.1116,0.007594
89.838,74.1102,0.007472
89.869,74.1095,0.007472
89.899,74.1093,0.007472
89.931,74.1093,0.007472
89.961,74.1093,0.007472
89.992,74.1093,0.007472
90.024,74.1093,0.007472
90.054,74.1093,0.007472
90.085,74.1098,0.007472
90.115,74.1109,0.007368
90.146,74.1127,0.007368
90.176,74.1153,0.007368
90.207,74.1185,0.007368
90.238,74.1225,0.007368
90.269,74.1273,0.007368
90.300,74.1328,0.007368
90.331,74.1390,0.007368
90.362,74.1459,0.007274
90.394,74.1537,0.007274
90.425,74.1625,0.007274
90.456,74.1715,0.007274
90.487,74.1813,0.007274
90.519,74.1921,0.007274
90.550,74.2035,0.007274
90.581,74.2156,0.007274
90.611,74.2282,0.007095
90.642,74.2417,0.007095
90.673,74.2557,0.007095
90.704,74.2708,0.007095
90.735,74.2863,0.007095
90.766,74.3026,0.007095
90.797,74.3198,0.007095
90.828,74.3380,0.007095
90.860,74.3569,0.007020
90.890,74.3761,0.007020
90.922,74.3962,0.007020
90.951,74.4162,0.007020
90.983,74.4379,0.007020
91.014,74.4607,0.007020
91.045,74.4833,0.007020
91.076,74.5071,0.007020
91.106,74.5305,0.006907
91.137,74.5561,0.006907
91.168,74.5815,0.006907
91.200,74.6092,0.006907
91.229,74.6352,0.006907
91.260,74.6627,0.006907
91.292,74.6919,0.006907
91.323,74.7216,0.006907
91.354,74.7517,0.006747
91.385,74.7832,0.006747
91.416,74.8149,0.006747
91.448,74.8480,0.006747
91.478,74.8800,0.006747
91.510,74.9147,0.006747
91.542,74.9500,0.006747
91.572,74.9851,0.006747
91.603,75.0210,0.006747
91.634,75.0575,0.006616
91.664,75.0942,0.006616
91.695,75.1325,0.006616
91.727,75.1727,0.006616
91.759,75.2126,0.006616
91.790,75.2536,0.006616
91.821,75.2945,0.006616
91.852,75.3362,0.006418
91.883,75.3802,0.006418
91.914,75.4229,0.006418
91.946,75.4683,0.006418
91.976,75.5118,0.006418
92.008,75.5592,0.006418
92.039,75.6043,0.006418
92.070,75.6519,0.006418
92.101,75.6972,0.006211
92.132,75.7445,0.006211
92.163,75.7904,0.006211
92.194,75.8370,0.006211
92.224,75.8825,0.006211
92.255,75.9288,0.006211
92.286,75.9749,0.006211
92.317,76.0215,0.006211
92.348,76.0683,0.006060
92.380,76.1168,0.006060
92.410,76.1620,0.006060
92.441,76.2087,0.006060
92.472,76.2547,0.006060
92.504,76.3032,0.006060
92.535,76.3482,0.006060
92.565,76.3957,0.006060
92.597,76.4413,0.005910
92.628,76.4887,0.005910
92.659,76.5346,0.005910
92.690,76.5815,0.005910
92.721,76.6280,0.005910
92.753,76.6755,0.005910
92.783,76.7214,0.005910
92.815,76.7691,0.005910
92.846,76.8147,0.005722
92.880,76.8686,0.005722
92.907,76.9074,0.005722
92.939,76.9556,0.005722
92.971,77.0022,0.005722
93.001,77.0476,0.005722
93.032,77.0942,0.005722
93.063,77.1410,0.005722
93.094,77.1874,0.005496
93.124,77.2332,0.005496
93.155,77.2793,0.005496
93.186,77.3263,0.005496
93.223,77.3827,0.005496
93.263,77.4416,0.005496
93.298,77.4933,0.005496
93.325,77.5346,0.005195
93.356,77.5811,0.005195
93.388,77.6280,0.005195
93.418,77.6743,0.005195
93.451,77.7205,0.005195
93.480,77.7647,0.005195
93.512,77.8081,0.005195
93.543,77.8521,0.005195
93.574,77.8938,0.005195
93.605,77.9362,0.004771
93.637,77.9779,0.004771
93.667,78.0182,0.004771
93.699,78.0573,0.004771
93.731,78.0972,0.004771
93.761,78.1346,0.004771
93.792,78.1716,0.004771
93.824,78.2097,0.004771
93.853,78.2428,0.003971
93.886,78.2806,0.003971
93.917,78.3153,0.003971
93.948,78.3482,0.003971
93.980,78.3818,0.003971
94.010,78.4137,0.003971
94.042,78.4458,0.003971
94.072,78.4765,0.002268
94.104,78.5065,0.002268
94.134,78.5359,0.002268
94.165,78.5636,0.002268
94.196,78.5922,0.002268
94.228,78.6194,0.002268
94.259,78.6459,0.002268
94.290,78.6708,0.002268
94.320,78.6961,0.002268
94.351,78.7200,-0.001176
94.383,78.7436,-0.001176
94.411,78.7638,-0.001176
94.445,78.7880,-0.001176
94.476,78.8098,-0.001176
94.508,78.8305,-0.001176
94.538,78.8504,-0.001176
94.570,78.8694,-0.001176
94.601,78.8880,-0.007208
94.632,78.9054,-0.007208
94.663,78.9224,-0.007208
94.694,78.9383,-0.007208
94.730,78.9564,-0.007208
94.770,78.9750,-0.007208
94.801,78.9884,-0.007208
94.831,79.0013,-0.015235
94.863,79.0137,-0.015235
94.894,79.0253,-0.015235
94.924,79.0354,-0.015235
94.958,79.0466,-0.015235
94.988,79.0554,-0.015235
95.019,79.0638,-0.015235
95.051,79.0720,-0.015235
95.081,79.0786,-0.015235
95.111,79.0848,-0.022848
95.142,79.0904,-0.022848
95.173,79.0952,-0.022848
95.203,79.0993,-0.022848
95.234,79.1028,-0.022848
95.266,79.1055,-0.022848
95.296,79.1075,-0.022848
95.327,79.1087,-0.027290
95.358,79.1093,-0.027290
95.389,79.1093,-0.027290
95.420,79.1093,-0.027290
95.451,79.1093,-0.027290
95.482,79.1093,-0.027290
95.513,79.1093,-0.027290
95.544,79.1093,-0.027290
95.575,79.1093,-0.027252
95.605,79.1093,-0.027252
95.636,79.1093,-0.027252
95.666,79.1093,-0.027252
95.696,79.1093,-0.027252
95.727,79.1093,-0.027252
95.758,79.1093,-0.027252
95.787,79.1093,-0.027252
95.818,79.1093,-0.024956
95.849,79.1093,-0.024956
95.881,79.1093,-0.024956
95.917,79.1093,-0.024956
95.958,79.1093,-0.024956
95.989,79.1093,-0.024956
96.019,79.1093,-0.024956
