Elapsed Time (s),Position (mm),Force (N)
-0.009,81.4094,-0.017249
0.023,81.4094,-0.017249
0.053,81.4094,-0.017249
0.084,81.4094,-0.017249
0.115,81.4094,-0.016092
0.147,81.4094,-0.016092
0.177,81.4094,-0.016092
0.208,81.4094,-0.016092
0.238,81.4094,-0.016092
0.269,81.4094,-0.016092
0.301,81.4094,-0.016092
0.331,81.4094,-0.016092
0.362,81.4094,-0.016092
0.394,81.4094,-0.015254
0.425,81.4094,-0.015254
0.456,81.4094,-0.015254
0.487,81.4094,-0.015254
0.518,81.4094,-0.015254
0.549,81.4094,-0.015254
0.580,81.4094,-0.015254
0.610,81.4094,-0.015254
0.642,81.4094,-0.014567
0.672,81.4094,-0.014567
0.703,81.4094,-0.014567
0.734,81.4094,-0.014567
0.765,81.4094,-0.014567
0.797,81.4094,-0.014567
0.829,81.4094,-0.014567
0.857,81.4094,-0.014567
0.889,81.4094,-0.014031
0.919,81.4094,-0.014031
0.951,81.4094,-0.014031
0.983,81.4094,-0.014031
1.011,81.4094,-0.014031
1.042,81.4094,-0.014031
1.072,81.4094,-0.014031
1.106,81.4094,-0.014031
1.133,81.4094,-0.014031
1.164,81.4094,-0.013598
1.195,81.4094,-0.013598
1.226,81.4094,-0.013598
1.257,81.4094,-0.013598
1.288,81.4094,-0.013598
1.318,81.4094,-0.013598
1.350,81.4094,-0.013598
1.380,81.4094,-0.013175
1.410,81.4094,-0.013175
1.441,81.4094,-0.013175
1.473,81.4094,-0.013175
1.503,81.4094,-0.013175
1.534,81.4094,-0.013175
1.567,81.4094,-0.013175
1.598,81.4094,-0.013175
1.629,81.4094,-0.012798
1.663,81.4094,-0.012798
1.691,81.4094,-0.012798
1.725,81.4094,-0.012798
1.754,81.4094,-0.012798
1.785,81.4094,-0.012798
1.815,81.4094,-0.012798
1.846,81.4094,-0.012798
1.877,81.4094,-0.012798
1.907,81.4094,-0.012422
1.939,81.4094,-0.012422
1.969,81.4094,-0.012422
1.999,81.4094,-0.012422
2.030,81.4094,-0.012422
2.061,81.4094,-0.012422
2.092,81.4094,-0.012422
2.124,81.4094,-0.012158
2.161,81.4094,-0.012158
2.201,81.4094,-0.012158
2.232,81.4094,-0.012158
2.263,81.4094,-0.012158
2.295,81.4094,-0.012158
2.327,81.4094,-0.012158
2.358,81.4094,-0.012158
2.389,81.4094,-0.011970
2.419,81.4094,-0.011970
2.451,81.4094,-0.011970
2.481,81.4094,-0.011970
2.512,81.4094,-0.011970
2.544,81.4094,-0.011970
2.575,81.4094,-0.011970
2.606,81.4094,-0.011970
2.637,81.4094,-0.011763
2.670,81.4094,-0.011763
2.701,81.4094,-0.011763
2.732,81.4094,-0.011763
2.761,81.4094,-0.011763
2.792,81.4094,-0.011763
2.823,81.4094,-0.011763
2.855,81.4094,-0.011565
2.886,81.4094,-0.011565
2.917,81.4094,-0.011565
2.948,81.4094,-0.011565
2.978,81.4094,-0.011565
3.009,81.4094,-0.011565
3.040,81.4094,-0.011565
3.071,81.4094,-0.011565
3.103,81.4094,-0.011565
3.135,81.4094,-0.011565
3.166,81.4094,-0.011368
3.199,81.4094,-0.011368
3.229,81.4094,-0.011368
3.260,81.4094,-0.011368
3.291,81.4094,-0.011368
3.322,81.4094,-0.011368
3.353,81.4094,-0.011368
3.383,81.4094,-0.011368
3.414,81.4094,-0.011180
3.445,81.4094,-0.011180
3.476,81.4094,-0.011180
3.507,81.4094,-0.011180
3.538,81.4094,-0.011180
3.569,81.4094,-0.011180
3.601,81.4094,-0.011180
3.631,81.4094,-0.011180
3.662,81.4094,-0.010944
3.693,81.4094,-0.010944
3.725,81.4094,-0.010944
3.756,81.4094,-0.010944
3.787,81.4094,-0.010944
3.820,81.4094,-0.010944
3.849,81.4094,-0.010944
3.879,81.4094,-0.010944
3.910,81.4094,-0.010813
3.941,81.4094,-0.010813
3.973,81.4094,-0.010813
4.004,81.4094,-0.010813
4.035,81.4094,-0.010813
4.066,81.4094,-0.010813
4.097,81.4094,-0.010813
4.128,81.4094,-0.010813
4.159,81.4094,-0.010681
4.190,81.4091,-0.010681
4.221,81.4081,-0.010681
4.253,81.4064,-0.010681
4.283,81.4040,-0.010681
4.315,81.4007,-0.010681
4.346,81.3968,-0.010681
4.377,81.3920,-0.010681
4.408,81.3868,-0.010380
4.438,81.3808,-0.010380
4.469,81.3740,-0.010380
4.500,81.3664,-0.010380
4.532,81.3579,-0.010380
4.562,81.3492,-0.010380
4.593,81.3397,-0.010380
4.624,81.3294,-0.010380
4.655,81.3181,-0.010380
4.686,81.3062,-0.007331
4.716,81.2939,-0.007331
4.747,81.2804,-0.007331
4.778,81.2667,-0.007331
4.809,81.2520,-0.007331
4.840,81.2363,-0.007331
4.870,81.2208,-0.007331
4.900,81.2041,-0.000028
4.932,81.1857,-0.000028
4.963,81.1679,-0.000028
4.996,81.1475,-0.000028
5.026,81.1281,-0.000028
5.055,81.1079,-0.000028
5.086,81.0869,-0.000028
5.117,81.0656,-0.000028
5.147,81.0429,0.008554
5.178,81.0203,0.008554
5.208,80.9959,0.008554
5.240,80.9707,0.008554
5.270,80.9463,0.008554
5.302,80.9191,0.008554
5.332,80.8924,0.008554
5.363,80.8649,0.008554
5.395,80.8360,0.015320
5.427,80.8055,0.015320
5.458,80.7757,0.015320
5.489,80.7442,0.015320
5.520,80.7131,0.015320
5.551,80.6807,0.015320
5.582,80.6475,0.015320
5.615,80.6120,0.015320
5.645,80.5795,0.019790
5.676,80.5443,0.019790
5.707,80.5073,0.019790
5.740,80.4688,0.019790
5.768,80.4348,0.019790
5.799,80.3971,0.019790
5.829,80.3597,0.019790
5.859,80.3207,0.019790
5.891,80.2786,0.019790
5.921,80.2402,0.019790
5.952,80.1984,0.024693
5.983,80.1561,0.024693
6.015,80.1111,0.024693
6.047,80.0675,0.024693
6.078,80.0215,0.024693
6.109,79.9778,0.024693
6.140,79.9319,0.031976
6.172,79.8839,0.031976
6.203,79.8364,0.031976
6.234,79.7892,0.031976
6.265,79.7440,0.031976
6.295,79.6983,0.031976
6.326,79.6514,0.031976
6.358,79.6052,0.031976
6.389,79.5579,0.031976
6.420,79.5111,0.038884
6.451,79.4647,0.038884
6.482,79.4188,0.038884
6.513,79.3718,0.038884
6.544,79.3256,0.038884
6.574,79.2795,0.038884
6.605,79.2334,0.038884
6.637,79.1847,0.028928
6.668,79.1395,0.028928
6.699,79.0932,0.028928
6.731,79.0452,0.028928
6.762,78.9978,0.028928
6.793,78.9512,0.028928
6.824,78.9054,0.028928
6.855,78.8583,0.028928
6.886,78.8126,0.014436
6.917,78.7647,0.014436
6.948,78.7195,0.014436
6.979,78.6725,0.014436
7.010,78.6258,0.014436
7.042,78.5770,0.014436
7.072,78.5329,0.014436
7.104,78.4846,0.014436
7.136,78.4374,0.012337
7.166,78.3920,0.012337
7.197,78.3454,0.012337
7.227,78.3003,0.012337
7.259,78.2523,0.012337
7.289,78.2079,0.012337
7.320,78.1614,0.012337
7.350,78.1150,0.012337
7.381,78.0682,0.011838
7.412,78.0223,0.011838
7.442,77.9775,0.011838
7.474,77.9295,0.011838
7.505,77.8839,0.011838
7.537,77.8357,0.011838
7.567,77.7910,0.011838
7.599,77.7442,0.011838
7.630,77.6996,0.011424
7.661,77.6545,0.011424
7.691,77.6150,0.011424
7.726,77.5657,0.011424
7.753,77.5308,0.011424
7.783,77.4893,0.011424
7.814,77.4498,0.011424
7.846,77.4101,0.011424
7.877,77.3714,0.010925
7.908,77.3330,0.010925
7.939,77.2962,0.010925
7.970,77.2594,0.010925
8.001,77.2236,0.010925
8.033,77.1867,0.010925
8.063,77.1535,0.010925
8.095,77.1190,0.010925
8.125,77.0871,0.010295
8.157,77.0538,0.010295
8.187,77.0230,0.010295
8.218,76.9926,0.010295
8.249,76.9630,0.010295
8.281,76.9332,0.010295
8.311,76.9052,0.010295
8.343,76.8762,0.010295
8.374,76.8496,0.009843
8.405,76.8227,0.009843
8.436,76.7978,0.009843
8.467,76.7724,0.009843
8.499,76.7481,0.009843
8.530,76.7244,0.009843
8.561,76.7019,0.009843
8.593,76.6792,0.009843
8.623,76.6586,0.009504
8.654,76.6376,0.009504
8.685,76.6185,0.009504
8.717,76.5989,0.009504
8.747,76.5806,0.009504
8.777,76.5636,0.009504
8.808,76.5471,0.009504
8.839,76.5308,0.009504
8.870,76.5151,0.009185
8.909,76.4972,0.009185
8.949,76.4793,0.009185
8.980,76.4663,0.009185
9.017,76.4520,0.009185
9.058,76.4374,0.009185
9.088,76.4273,0.009185
9.119,76.4178,0.009185
9.150,76.4089,0.009185
9.182,76.4005,0.008912
9.212,76.3932,0.008912
9.246,76.3860,0.008912
9.274,76.3808,0.008912
9.305,76.3756,0.008912
9.336,76.3710,0.008912
9.366,76.3674,0.008912
9.397,76.3643,0.008667
9.428,76.3620,0.008667
9.459,76.3605,0.008667
9.492,76.3595,0.008667
9.521,76.3594,0.008667
9.552,76.3594,0.008667
9.583,76.3594,0.008667
9.615,76.3594,0.008667
9.644,76.3594,0.008469
9.675,76.3597,0.008469
9.707,76.3610,0.008469
9.739,76.3630,0.008469
9.769,76.3654,0.008469
9.801,76.3689,0.008469
9.831,76.3729,0.008469
9.862,76.3777,0.008469
9.893,76.3833,0.008394
9.925,76.3898,0.008394
9.955,76.3966,0.008394
9.986,76.4041,0.008394
10.017,76.4126,0.008394
10.049,76.4219,0.008394
10.078,76.4316,0.008394
10.112,76.4428,0.008394
10.141,76.4538,0.008215
10.172,76.4658,0.008215
10.203,76.4788,0.008215
10.235,76.4923,0.008215
10.266,76.5068,0.008215
10.296,76.5216,0.008215
10.328,76.5371,0.008215
10.363,76.5563,0.008215
10.390,76.5710,0.008215
10.421,76.5893,0.007999
10.452,76.6074,0.007999
10.484,76.6275,0.007999
10.514,76.6469,0.007999
10.545,76.6678,0.007999
10.576,76.6889,0.007999
10.606,76.7111,0.007999
10.637,76.7344,0.007999
10.668,76.7579,0.007848
10.700,76.7827,0.007848
10.730,76.8071,0.007848
10.761,76.8338,0.007848
10.792,76.8597,0.007848
10.824,76.8878,0.007848
10.855,76.9160,0.007848
10.886,76.9456,0.007707
10.918,76.9760,0.007707
10.948,77.0048,0.007707
10.980,77.0363,0.007707
11.009,77.0677,0.007707
11.041,77.0994,0.007707
11.072,77.1334,0.007707
11.105,77.1694,0.007707
11.134,77.2019,0.007575
11.166,77.2388,0.007575
11.197,77.2749,0.007575
11.228,77.3115,0.007575
11.259,77.3494,0.007575
11.291,77.3888,0.007575
11.321,77.4258,0.007575
11.351,77.4657,0.007575
11.382,77.5062,0.007462
11.413,77.5471,0.007462
11.443,77.5872,0.007462
11.475,77.6306,0.007462
11.507,77.6749,0.007462
11.537,77.7188,0.007462
11.568,77.7637,0.007462
11.599,77.8096,0.007462
11.630,77.8542,0.007387
11.661,77.9012,0.007387
11.691,77.9467,0.007387
11.723,77.9941,0.007387
11.754,78.0417,0.007387
11.785,78.0876,0.007387
11.816,78.1334,0.007387
11.848,78.1816,0.007387
11.878,78.2260,0.007312
11.909,78.2732,0.007312
11.940,78.3189,0.007312
11.971,78.3661,0.007312
12.001,78.4113,0.007312
12.032,78.4593,0.007312
12.063,78.5046,0.007312
12.095,78.5517,0.007312
12.126,78.5995,0.007152
12.157,78.6450,0.007152
12.188,78.6925,0.007152
12.219,78.7389,0.007152
12.249,78.7850,0.007152
12.281,78.8310,0.007152
12.312,78.8773,0.007152
12.343,78.9247,0.007152
12.373,78.9701,0.006766
12.404,79.0160,0.006766
12.435,79.0622,0.006766
12.467,79.1102,0.006766
12.498,79.1563,0.006766
12.529,79.2041,0.006766
12.559,79.2490,0.006766
12.590,79.2955,0.006766
12.621,79.3420,0.006013
12.656,79.3961,0.006013
12.683,79.4345,0.006013
12.715,79.4827,0.006013
12.745,79.5289,0.006013
12.777,79.5757,0.006013
12.807,79.6208,0.006013
12.838,79.6673,0.006013
12.869,79.7141,0.004733
12.900,79.7613,0.004733
12.930,79.8065,0.004733
12.963,79.8551,0.004733
12.994,79.9006,0.004733
13.024,79.9450,0.004733
13.055,79.9921,0.004733
13.088,80.0374,0.004733
13.117,80.0780,0.003049
13.148,80.1199,0.003049
13.179,80.1624,0.003049
13.209,80.2036,0.003049
13.240,80.2432,0.003049
13.271,80.2841,0.003049
13.301,80.3222,0.003049
13.333,80.3615,0.003049
13.363,80.3982,0.003049
13.395,80.4358,0.001252
13.425,80.4712,0.001252
13.456,80.5078,0.001252
13.489,80.5432,0.001252
13.519,80.5772,0.001252
13.550,80.6098,0.001252
13.582,80.6439,0.001252
13.612,80.6738,-0.000640
13.642,80.7053,-0.000640
13.673,80.7352,-0.000640
13.703,80.7643,-0.000640
13.734,80.7931,-0.000640
13.765,80.8219,-0.000640
13.799,80.8517,-0.000640
13.827,80.8758,-0.000640
13.858,80.9028,-0.000640
13.889,80.9279,-0.000640
13.920,80.9531,-0.003171
13.953,80.9774,-0.003171
13.983,81.0005,-0.003171
14.013,81.0223,-0.003171
14.044,81.0440,-0.003171
14.074,81.0644,-0.003171
14.106,81.0855,-0.003171
14.136,81.1044,-0.006804
14.172,81.1266,-0.006804
14.198,81.1413,-0.006804
14.229,81.1588,-0.006804
14.260,81.1757,-0.006804
14.292,81.1918,-0.006804
14.323,81.2072,-0.006804
14.353,81.2215,-0.006804
14.384,81.2352,-0.011697
14.415,81.2481,-0.011697
14.446,81.2607,-0.011697
14.477,81.2719,-0.011697
14.508,81.2831,-0.011697
14.541,81.2940,-0.011697
14.571,81.3029,-0.011697
14.602,81.3116,-0.011697
14.633,81.3197,-0.016873
14.666,81.3274,-0.016873
14.695,81.3333,-0.016873
14.726,81.3392,-0.016873
14.756,81.3441,-0.016873
14.792,81.3492,-0.016873
14.818,81.3521,-0.016873
14.849,81.3549,-0.016873
14.879,81.3571,-0.020176
14.910,81.3585,-0.020176
14.941,81.3593,-0.020176
14.971,81.3594,-0.020176
15.003,81.3594,-0.020176
15.035,81.3594,-0.020176
15.065,81.3594,-0.020176
15.097,81.3594,-0.020176
15.127,81.3594,-0.020129
15.159,81.3594,-0.020129
15.190,81.3594,-0.020129
15.221,81.3594,-0.020129
15.252,81.3594,-0.020129
15.284,81.3594,-0.020129
15.316,81.3594,-0.020129
15.346,81.3594,-0.020129
15.376,81.3594,-0.018331
15.412,81.3594,-0.018331
15.439,81.3594,-0.018331
15.470,81.3594,-0.018331
15.501,81.3594,-0.018331
15.533,81.3594,-0.018331
15.562,81.3594,-0.018331
15.593,81.3594,-0.018331
15.624,81.3594,-0.018331
15.654,81.3594,-0.016798
15.686,81.3594,-0.016798
15.717,81.3594,-0.016798
15.748,81.3594,-0.016798
15.781,81.3594,-0.016798
15.812,81.3594,-0.016798
15.843,81.3594,-0.016798
15.874,81.3594,-0.015725
15.904,81.3594,-0.015725
15.936,81.3594,-0.015725
15.967,81.3594,-0.015725
15.997,81.3594,-0.015725
16.029,81.3594,-0.015725
16.059,81.3594,-0.015725
16.090,81.3594,-0.015725
16.122,81.3594,-0.015725
16.153,81.3594,-0.014906
16.183,81.3594,-0.014906
16.214,81.3594,-0.014906
16.246,81.3594,-0.014906
16.279,81.3594,-0.014906
16.308,81.3594,-0.014906
16.339,81.3594,-0.014906
16.370,81.3594,-0.014238
16.400,81.3594,-0.014238
16.432,81.3594,-0.014238
16.463,81.3594,-0.014238
16.495,81.3594,-0.014238
16.525,81.3594,-0.014238
16.556,81.3594,-0.014238
16.588,81.3594,-0.014238
16.619,81.3594,-0.014238
16.650,81.3594,-0.014238
16.682,81.3594,-0.013673
16.711,81.3594,-0.013673
16.742,81.3594,-0.013673
16.773,81.3594,-0.013673
16.807,81.3594,-0.013673
16.836,81.3594,-0.013673
16.866,81.3594,-0.013673
16.898,81.3594,-0.013240
16.931,81.3594,-0.013240
16.960,81.3594,-0.013240
16.994,81.3594,-0.013240
17.023,81.3594,-0.013240
17.054,81.3594,-0.013240
17.085,81.3594,-0.013240
17.117,81.3594,-0.013240
17.147,81.3594,-0.012873
17.178,81.3594,-0.012873
17.210,81.3594,-0.012873
17.239,81.3594,-0.012873
17.270,81.3594,-0.012873
17.301,81.3594,-0.012873
17.331,81.3594,-0.012873
17.363,81.3594,-0.012873
17.394,81.3594,-0.012497
17.427,81.3594,-0.012497
17.456,81.3594,-0.012497
17.487,81.3594,-0.012497
17.517,81.3594,-0.012497
17.549,81.3594,-0.012497
17.580,81.3594,-0.012497
17.611,81.3594,-0.012497
17.641,81.3594,-0.012224
17.674,81.3594,-0.012224
17.703,81.3594,-0.012224
17.735,81.3594,-0.012224
17.766,81.3594,-0.012224
17.799,81.3594,-0.012224
17.828,81.3594,-0.012224
17.859,81.3594,-0.012224
17.890,81.3594,-0.011989
17.922,81.3594,-0.011989
17.952,81.3594,-0.011989
17.985,81.3594,-0.011989
18.014,81.3594,-0.011989
18.045,81.3594,-0.011989
18.076,81.3594,-0.011989
18.112,81.3594,-0.011989
18.139,81.3594,-0.011707
18.168,81.3594,-0.011707
18.199,81.3594,-0.011707
18.234,81.3594,-0.011707
18.261,81.3594,-0.011707
18.293,81.3594,-0.011707
18.323,81.3594,-0.011707
18.354,81.3594,-0.011707
18.386,81.3594,-0.011707
18.418,81.3594,-0.011452
18.449,81.3594,-0.011452
18.480,81.3594,-0.011452
18.511,81.3594,-0.011452
18.542,81.3594,-0.011452
18.574,81.3594,-0.011452
18.604,81.3594,-0.011452
18.635,81.3594,-0.011236
18.666,81.3594,-0.011236
18.697,81.3594,-0.011236
18.729,81.3594,-0.011236
18.759,81.3594,-0.011236
18.790,81.3594,-0.011236
18.821,81.3594,-0.011236
18.853,81.3594,-0.011236
18.883,81.3594,-0.011038
18.913,81.3594,-0.011038
18.944,81.3594,-0.011038
18.978,81.3594,-0.011038
19.006,81.3594,-0.011038
19.038,81.3594,-0.011038
19.068,81.3594,-0.011038
19.103,81.3594,-0.011038
19.131,81.3594,-0.010869
19.162,81.3594,-0.010869
19.193,81.3594,-0.010869
19.225,81.3594,-0.010869
19.258,81.3594,-0.010869
19.287,81.3594,-0.010869
19.318,81.3594,-0.010869
19.349,81.3594,-0.010869
19.381,81.3594,-0.010747
19.412,81.3594,-0.010747
19.443,81.3594,-0.010747
19.473,81.3594,-0.010747
19.507,81.3594,-0.010747
19.536,81.3594,-0.010747
19.566,81.3594,-0.010747
19.597,81.3594,-0.010747
19.629,81.3594,-0.010747
19.659,81.3594,-0.010747
19.690,81.3594,-0.010577
19.722,81.3594,-0.010577
19.752,81.3594,-0.010577
19.783,81.3594,-0.010577
19.815,81.3594,-0.010577
19.845,81.3594,-0.010577
19.876,81.3591,-0.010577
19.907,81.3583,-0.010577
19.938,81.3565,-0.010370
19.968,81.3543,-0.010370
20.000,81.3511,-0.010370
20.031,81.3473,-0.010370
20.062,81.3428,-0.010370
20.093,81.3374,-0.010370
20.124,81.3313,-0.010370
20.156,81.3245,-0.009806
20.187,81.3168,-0.009806
20.218,81.3088,-0.009806
20.250,81.2993,-0.009806
20.280,81.2899,-0.009806
20.311,81.2796,-0.009806
20.342,81.2686,-0.009806
20.373,81.2566,-0.009806
20.404,81.2440,-0.005787
20.435,81.2310,-0.005787
20.466,81.2167,-0.005787
20.497,81.2020,-0.005787
20.528,81.1865,-0.005787
20.559,81.1702,-0.005787
20.590,81.1534,-0.005787
20.621,81.1353,-0.005787
20.652,81.1172,0.002146
20.683,81.0981,0.002146
20.714,81.0786,0.002146
20.745,81.0575,0.002146
20.777,81.0358,0.002146
20.808,81.0132,0.002146
20.839,80.9907,0.002146
20.870,80.9672,0.002146
20.902,80.9427,0.010398
20.933,80.9171,0.010398
20.964,80.8912,0.010398
20.995,80.8649,0.010398
21.026,80.8380,0.010398
21.057,80.8102,0.010398
21.088,80.7811,0.010398
21.119,80.7522,0.010398
21.151,80.7207,0.010398
21.182,80.6899,0.016412
21.212,80.6595,0.016412
21.243,80.6270,0.016412
21.273,80.5954,0.016412
21.304,80.5612,0.016412
21.335,80.5274,0.016412
21.366,80.4922,0.016412
21.397,80.4560,0.016412
21.427,80.4208,0.020524
21.459,80.3823,0.020524
21.489,80.3446,0.020524
21.521,80.3048,0.020524
21.551,80.2669,0.020524
21.582,80.2260,0.020524
21.613,80.1860,0.025869
21.644,80.1441,0.025869
21.675,80.1023,0.025869
21.710,80.0528,0.025869
21.751,79.9945,0.025869
21.783,79.9481,0.025869
21.815,79.9019,0.025869
21.846,79.8550,0.025869
21.877,79.8078,0.033388
21.907,79.7615,0.033388
21.938,79.7166,0.033388
21.970,79.6693,0.033388
22.000,79.6237,0.033388
22.031,79.5765,0.033388
22.062,79.5295,0.033388
22.093,79.4834,0.033388
22.125,79.4355,0.033388
22.157,79.3888,0.039044
22.188,79.3410,0.039044
22.219,79.2957,0.039044
22.250,79.2479,0.039044
22.280,79.2034,0.039044
22.312,79.1555,0.039044
22.343,79.1096,0.039044
22.374,79.0610,0.039044
22.405,79.0168,0.027140
22.436,78.9701,0.027140
22.467,78.9233,0.027140
22.498,78.8764,0.027140
22.530,78.8282,0.027140
22.560,78.7837,0.027140
22.591,78.7365,0.027140
22.621,78.6927,0.027140
22.651,78.6466,0.027140
22.683,78.5996,0.013033
22.713,78.5546,0.013033
22.744,78.5068,0.013033
22.776,78.4603,0.013033
22.806,78.4143,0.013033
22.838,78.3677,0.013033
22.868,78.3215,0.013033
22.900,78.2738,0.012102
22.931,78.2262,0.012102
22.962,78.1808,0.012102
22.993,78.1330,0.012102
23.024,78.0884,0.012102
23.054,78.0420,0.012102
23.086,77.9942,0.012102
23.117,77.9475,0.012102
23.148,77.9004,0.011650
23.179,77.8547,0.011650
23.210,77.8087,0.011650
23.241,77.7621,0.011650
23.272,77.7174,0.011650
23.303,77.6715,0.011650
23.333,77.6286,0.011650
23.365,77.5837,0.011650
23.396,77.5422,0.011132
23.427,77.4991,0.011132
23.458,77.4588,0.011132
23.489,77.4182,0.011132
23.521,77.3774,0.011132
23.551,77.3393,0.011132
23.581,77.3019,0.011132
23.612,77.2636,0.011132
23.643,77.2273,0.010521
23.674,77.1913,0.010521
23.706,77.1547,0.010521
23.737,77.1194,0.010521
23.768,77.0861,0.010521
23.799,77.0525,0.010521
23.831,77.0195,0.010521
23.862,76.9872,0.010521
23.893,76.9565,0.010088
23.924,76.9255,0.010088
23.955,76.8965,0.010088
23.986,76.8670,0.010088
24.017,76.8400,0.010088
24.049,76.8112,0.010088
24.079,76.7853,0.010088
24.111,76.7582,0.010088
24.141,76.7339,0.009730
24.173,76.7085,0.009730
24.204,76.6851,0.009730
24.236,76.6614,0.009730
24.267,76.6392,0.009730
24.298,76.6177,0.009730
24.329,76.5970,0.009730
24.360,76.5770,0.009730
24.391,76.5572,0.009345
24.422,76.5385,0.009345
24.452,76.5215,0.009345
24.483,76.5039,0.009345
24.515,76.4875,0.009345
24.545,76.4717,0.009345
24.576,76.4566,0.009345
24.608,76.4420,0.009345
24.639,76.4288,0.009053
24.671,76.4153,0.009053
24.702,76.4035,0.009053
24.734,76.3916,0.009053
24.765,76.3813,0.009053
24.795,76.3714,0.009053
24.827,76.3621,0.009053
24.857,76.3540,0.009053
24.888,76.3463,0.008846
24.919,76.3392,0.008846
24.950,76.3332,0.008846
24.983,76.3270,0.008846
25.012,76.3228,0.008846
25.043,76.3188,0.008846
25.074,76.3155,0.008846
25.104,76.3129,0.008846
25.136,76.3110,0.008846
25.166,76.3099,0.008620
25.197,76.3094,0.008620
25.228,76.3094,0.008620
25.261,76.3094,0.008620
25.289,76.3094,0.008620
25.320,76.3094,0.008620
25.350,76.3094,0.008620
25.381,76.3099,0.008620
25.412,76.3111,0.008432
25.444,76.3131,0.008432
25.474,76.3157,0.008432
25.506,76.3193,0.008432
25.537,76.3233,0.008432
25.567,76.3281,0.008432
25.598,76.3337,0.008432
25.630,76.3403,0.008215
25.660,76.3470,0.008215
25.691,76.3548,0.008215
25.722,76.3632,0.008215
25.753,76.3723,0.008215
25.786,76.3831,0.008215
25.814,76.3926,0.008215
25.846,76.4043,0.008215
25.876,76.4159,0.008215
25.907,76.4291,0.008008
25.939,76.4432,0.008008
25.969,76.4570,0.008008
26.001,76.4722,0.008008
26.035,76.4896,0.008008
26.062,76.5040,0.008008
26.096,76.5228,0.008008
26.125,76.5393,0.007905
26.156,76.5579,0.007905
26.187,76.5778,0.007905
26.218,76.5976,0.007905
26.249,76.6190,0.007905
26.281,76.6408,0.007905
26.311,76.6627,0.007905
26.342,76.6857,0.007905
26.373,76.7091,0.007905
26.404,76.7335,0.007773
26.435,76.7592,0.007773
26.466,76.7846,0.007773
26.497,76.8116,0.007773
26.528,76.8387,0.007773
26.560,76.8677,0.007773
26.591,76.8965,0.007773
26.621,76.9252,0.007641
26.651,76.9558,0.007641
26.682,76.9864,0.007641
26.714,77.0184,0.007641
26.745,77.0518,0.007641
26.777,77.0849,0.007641
26.807,77.1194,0.007641
26.838,77.1531,0.007641
26.870,77.1893,0.007575
26.900,77.2249,0.007575
26.931,77.2624,0.007575
26.963,77.3002,0.007575
26.993,77.3377,0.007575
27.025,77.3780,0.007575
27.055,77.4164,0.007575
27.086,77.4572,0.007575
27.117,77.4977,0.007415
27.148,77.5404,0.007415
27.179,77.5830,0.007415
27.211,77.6294,0.007415
27.242,77.6714,0.007415
27.273,77.7166,0.007415
27.303,77.7610,0.007415
27.335,77.8097,0.007415
27.366,77.8553,0.007274
27.398,77.9023,0.007274
27.428,77.9481,0.007274
27.459,77.9933,0.007274
27.490,78.0406,0.007274
27.521,78.0864,0.007274
27.551,78.1314,0.007274
27.582,78.1790,0.007274
27.613,78.2248,0.007274
27.644,78.2724,0.007246
27.677,78.3199,0.007246
27.707,78.3662,0.007246
27.740,78.4174,0.007246
27.768,78.4571,0.007246
27.799,78.5031,0.007246
27.830,78.5520,0.007246
27.863,78.6017,0.007246
27.893,78.6444,0.007246
27.924,78.6916,0.007077
27.955,78.7378,0.007077
27.988,78.7886,0.007077
28.017,78.8305,0.007077
28.048,78.8769,0.007077
28.079,78.9243,0.007077
28.110,78.9696,0.007077
28.141,79.0168,0.006681
28.172,79.0633,0.006681
28.202,79.1075,0.006681
28.233,79.1547,0.006681
28.264,79.2016,0.006681
28.296,79.2487,0.006681
28.326,79.2943,0.006681
28.357,79.3411,0.006681
28.388,79.3877,0.005881
28.419,79.4335,0.005881
28.449,79.4791,0.005881
28.480,79.5258,0.005881
28.511,79.5722,0.005881
28.541,79.6187,0.005881
28.573,79.6645,0.005881
28.605,79.7128,0.005881
28.635,79.7570,0.004630
28.666,79.8051,0.004630
28.697,79.8514,0.004630
28.729,79.8983,0.004630
28.760,79.9430,0.004630
28.791,79.9884,0.004630
28.822,80.0308,0.004630
28.853,80.0745,0.004630
28.883,80.1147,0.002945
28.914,80.1562,0.002945
28.945,80.1960,0.002945
28.976,80.2367,0.002945
29.008,80.2769,0.002945
29.039,80.3156,0.002945
29.069,80.3523,0.002945
29.100,80.3884,0.002945
29.131,80.4245,0.002945
29.162,80.4606,0.001176
29.194,80.4953,0.001176
29.227,80.5316,0.001176
29.257,80.5641,0.001176
29.282,80.5906,0.001176
29.319,80.6284,0.001176
29.351,80.6606,0.001176
29.381,80.6900,-0.000734
29.412,80.7195,-0.000734
29.443,80.7488,-0.000734
29.474,80.7775,-0.000734
29.506,80.8050,-0.000734
29.537,80.8324,-0.000734
29.568,80.8579,-0.000734
29.600,80.8839,-0.000734
29.630,80.9078,-0.003472
29.661,80.9321,-0.003472
29.693,80.9549,-0.003472
29.723,80.9778,-0.003472
29.755,80.9991,-0.003472
29.785,81.0199,-0.003472
29.816,81.0403,-0.003472
29.847,81.0592,-0.003472
29.878,81.0781,-0.007340
29.909,81.0963,-0.007340
29.940,81.1136,-0.007340
29.972,81.1301,-0.007340
30.004,81.1466,-0.007340
30.035,81.1618,-0.007340
30.065,81.1756,-0.007340
30.096,81.1888,-0.007340
30.125,81.2011,-0.012328
30.156,81.2134,-0.012328
30.187,81.2246,-0.012328
30.218,81.2355,-0.012328
30.248,81.2453,-0.012328
30.279,81.2545,-0.012328
30.309,81.2628,-0.012328
30.341,81.2708,-0.012328
30.371,81.2779,-0.012328
30.402,81.2842,-0.017277
30.433,81.2899,-0.017277
30.466,81.2954,-0.017277
30.495,81.2991,-0.017277
30.526,81.3026,-0.017277
30.557,81.3054,-0.017277
30.588,81.3074,-0.017277
30.619,81.3088,-0.020091
30.650,81.3094,-0.020091
30.681,81.3094,-0.020091
30.711,81.3094,-0.020091
30.742,81.3094,-0.020091
30.773,81.3094,-0.020091
30.804,81.3094,-0.020091
30.835,81.3094,-0.020091
30.867,81.3094,-0.019621
30.897,81.3094,-0.019621
30.928,81.3094,-0.019621
30.959,81.3094,-0.019621
30.991,81.3094,-0.019621
31.022,81.3094,-0.019621
31.052,81.3094,-0.019621
31.083,81.3094,-0.019621
31.115,81.3094,-0.019621
31.146,81.3094,-0.017682
31.177,81.3094,-0.017682
31.208,81.3094,-0.017682
31.239,81.3094,-0.017682
31.269,81.3094,-0.017682
31.300,81.3094,-0.017682
31.332,81.3094,-0.017682
31.362,81.3094,-0.017682
31.393,81.3094,-0.016271
31.424,81.3094,-0.016271
31.455,81.3094,-0.016271
31.488,81.3094,-0.016271
31.517,81.3094,-0.016271
31.547,81.3094,-0.016271
31.579,81.3094,-0.016271
31.609,81.3094,-0.016271
31.639,81.3094,-0.015254
31.670,81.3094,-0.015254
31.701,81.3094,-0.015254
31.731,81.3094,-0.015254
31.762,81.3094,-0.015254
31.793,81.3094,-0.015254
31.823,81.3094,-0.015254
31.855,81.3094,-0.015254
31.886,81.3094,-0.014445
31.917,81.3094,-0.014445
31.948,81.3094,-0.014445
31.980,81.3094,-0.014445
32.010,81.3094,-0.014445
32.040,81.3094,-0.014445
32.072,81.3094,-0.014445
32.102,81.3094,-0.014445
32.132,81.3094,-0.013758
32.163,81.3094,-0.013758
32.194,81.3094,-0.013758
32.225,81.3094,-0.013758
32.255,81.3094,-0.013758
32.286,81.3094,-0.013758
32.317,81.3094,-0.013758
32.348,81.3094,-0.013758
32.389,81.3094,-0.013222
32.425,81.3094,-0.013222
32.457,81.3094,-0.013222
32.488,81.3094,-0.013222
32.518,81.3094,-0.013222
32.552,81.3094,-0.013222
32.580,81.3094,-0.013222
32.611,81.3094,-0.013222
32.643,81.3094,-0.013222
32.674,81.3094,-0.012845
32.706,81.3094,-0.012845
32.737,81.3094,-0.012845
32.768,81.3094,-0.012845
32.799,81.3094,-0.012845
32.830,81.3094,-0.012845
32.860,81.3094,-0.012845
32.892,81.3094,-0.012845
32.923,81.3094,-0.012506
32.953,81.3094,-0.012506
32.985,81.3094,-0.012506
33.015,81.3094,-0.012506
33.046,81.3094,-0.012506
33.078,81.3094,-0.012506
33.109,81.3094,-0.012506
33.140,81.3094,-0.012506
33.170,81.3094,-0.012168
33.201,81.3094,-0.012168
33.232,81.3094,-0.012168
33.263,81.3094,-0.012168
33.295,81.3094,-0.012168
33.324,81.3094,-0.012168
33.356,81.3094,-0.012168
33.386,81.3094,-0.011848
33.417,81.3094,-0.011848
33.449,81.3094,-0.011848
33.479,81.3094,-0.011848
33.509,81.3094,-0.011848
33.541,81.3094,-0.011848
33.572,81.3094,-0.011848
33.602,81.3094,-0.011848
33.634,81.3094,-0.011612
33.665,81.3094,-0.011612
33.696,81.3094,-0.011612
33.727,81.3094,-0.011612
33.759,81.3094,-0.011612
33.789,81.3094,-0.011612
33.821,81.3094,-0.011612
33.852,81.3094,-0.011612
33.884,81.3094,-0.011358
33.914,81.3094,-0.011358
33.946,81.3094,-0.011358
33.976,81.3094,-0.011358
34.008,81.3094,-0.011358
34.038,81.3094,-0.011358
34.069,81.3094,-0.011358
34.101,81.3094,-0.011358
34.132,81.3094,-0.011132
34.163,81.3094,-0.011132
34.193,81.3094,-0.011132
34.224,81.3094,-0.011132
34.255,81.3094,-0.011132
34.287,81.3094,-0.011132
34.317,81.3094,-0.011132
34.348,81.3094,-0.011132
34.379,81.3094,-0.011132
34.410,81.3094,-0.010935
34.441,81.3094,-0.010935
34.472,81.3094,-0.010935
34.503,81.3094,-0.010935
34.535,81.3094,-0.010935
34.565,81.3094,-0.010935
34.597,81.3094,-0.010935
34.628,81.3094,-0.010935
34.659,81.3094,-0.010747
34.690,81.3094,-0.010747
34.721,81.3094,-0.010747
34.752,81.3094,-0.010747
34.783,81.3094,-0.010747
34.814,81.3094,-0.010747
34.845,81.3094,-0.010747
34.875,81.3094,-0.010747
34.907,81.3094,-0.010502
34.937,81.3094,-0.010502
34.968,81.3094,-0.010502
34.999,81.3094,-0.010502
35.030,81.3094,-0.010502
35.062,81.3094,-0.010502
35.091,81.3094,-0.010502
35.123,81.3094,-0.010286
35.155,81.3094,-0.010286
35.186,81.3094,-0.010286
35.218,81.3094,-0.010286
35.249,81.3094,-0.010286
35.281,81.3094,-0.010286
35.311,81.3094,-0.010286
35.342,81.3094,-0.010286
35.373,81.3094,-0.010286
35.405,81.3094,-0.010173
35.436,81.3094,-0.010173
35.466,81.3094,-0.010173
35.500,81.3094,-0.010173
35.528,81.3094,-0.010173
35.559,81.3094,-0.010173
35.590,81.3094,-0.010173
35.620,81.3094,-0.010173
35.652,81.3094,-0.010050
35.682,81.3094,-0.010050
35.714,81.3094,-0.010050
35.744,81.3088,-0.010050
35.775,81.3075,-0.010050
35.805,81.3055,-0.010050
35.836,81.3028,-0.010050
35.867,81.2993,-0.009890
35.898,81.2953,-0.009890
35.929,81.2903,-0.009890
35.961,81.2846,-0.009890
35.991,81.2781,-0.009890
36.023,81.2709,-0.009890
36.053,81.2634,-0.009890
36.084,81.2549,-0.009890
36.114,81.2456,-0.007462
36.145,81.2358,-0.007462
36.176,81.2251,-0.007462
36.208,81.2134,-0.007462
36.239,81.2010,-0.007462
36.270,81.1879,-0.007462
36.301,81.1746,-0.007462
36.333,81.1598,-0.007462
36.364,81.1446,-0.000979
36.395,81.1288,-0.000979
36.425,81.1124,-0.000979
36.456,81.0955,-0.000979
36.487,81.0772,-0.000979
36.517,81.0592,-0.000979
36.548,81.0396,-0.000979
36.579,81.0202,-0.000979
36.610,80.9985,0.007378
36.641,80.9764,0.007378
36.667,80.9590,0.007378
36.704,80.9315,0.007378
36.735,80.9071,0.007378
36.766,80.8830,0.007378
36.798,80.8563,0.007378
36.829,80.8310,0.007378
36.859,80.8049,0.014492
36.889,80.7778,0.014492
36.919,80.7509,0.014492
36.950,80.7214,0.014492
36.981,80.6924,0.014492
37.012,80.6617,0.014492
37.043,80.6315,0.014492
37.073,80.5992,0.014492
37.104,80.5677,0.014492
37.135,80.5339,0.019207
37.166,80.5011,0.019207
37.196,80.4673,0.019207
37.227,80.4317,0.019207
37.259,80.3947,0.019207
37.289,80.3580,0.019207
37.321,80.3209,0.019207
37.351,80.2833,0.019207
37.382,80.2448,0.023949
37.413,80.2047,0.023949
37.444,80.1634,0.023949
37.475,80.1231,0.023949
37.508,80.0785,0.023949
37.536,80.0391,0.023949
37.566,79.9970,0.023949
37.597,79.9533,0.023949
37.629,79.9067,0.023949
37.659,79.8639,0.031177
37.690,79.8169,0.031177
37.720,79.7720,0.031177
37.750,79.7255,0.031177
37.782,79.6803,0.031177
37.812,79.6335,0.031177
37.843,79.5883,0.031177
37.874,79.5416,0.031177
37.904,79.4964,0.038620
37.937,79.4464,0.038620
37.968,79.4007,0.038620
37.999,79.3539,0.038620
38.029,79.3080,0.038620
38.060,79.2624,0.038620
38.091,79.2151,0.038620
38.121,79.1707,0.038620
38.153,79.1226,0.031581
38.185,79.0735,0.031581
38.215,79.0296,0.031581
38.246,78.9826,0.031581
38.277,78.9376,0.031581
38.308,78.8896,0.031581
38.338,78.8449,0.031581
38.371,78.7958,0.031581
38.401,78.7505,0.031581
38.432,78.7034,0.017014
38.462,78.6579,0.017014
38.493,78.6120,0.017014
38.525,78.5655,0.017014
38.556,78.5173,0.017014
38.587,78.4711,0.017014
38.618,78.4261,0.017014
38.649,78.3792,0.012328
38.680,78.3321,0.012328
38.710,78.2871,0.012328
38.740,78.2422,0.012328
38.772,78.1938,0.012328
38.802,78.1482,0.012328
38.833,78.1024,0.012328
38.863,78.0573,0.012328
38.895,78.0095,0.011763
38.926,77.9625,0.011763
38.957,77.9167,0.011763
38.988,77.8694,0.011763
39.018,77.8250,0.011763
39.051,77.7766,0.011763
39.080,77.7314,0.011763
39.113,77.6825,0.011763
39.141,77.6423,0.011311
39.172,77.5980,0.011311
39.202,77.5556,0.011311
39.234,77.5108,0.011311
39.264,77.4700,0.011311
39.296,77.4268,0.011311
39.326,77.3881,0.011311
39.353,77.3525,0.011311
39.388,77.3080,0.011311
39.419,77.2691,0.010747
39.450,77.2313,0.010747
39.483,77.1918,0.010747
39.514,77.1556,0.010747
39.545,77.1184,0.010747
39.576,77.0844,0.010747
39.607,77.0501,0.010747
39.638,77.0171,0.010191
39.674,76.9782,0.010191
39.700,76.9518,0.010191
39.730,76.9209,0.010191
39.761,76.8907,0.010191
39.792,76.8612,0.010191
39.823,76.8319,0.010191
39.854,76.8031,0.010191
39.885,76.7758,0.010191
39.916,76.7484,0.009759
39.946,76.7228,0.009759
39.978,76.6965,0.009759
40.009,76.6718,0.009759
40.040,76.6476,0.009759
40.070,76.6249,0.009759
40.101,76.6020,0.009759
40.133,76.5796,0.009373
40.164,76.5579,0.009373
40.195,76.5377,0.009373
40.227,76.5171,0.009373
40.258,76.4985,0.009373
40.289,76.4795,0.009373
40.321,76.4621,0.009373
40.351,76.4456,0.009373
40.382,76.4296,0.009090
40.414,76.4138,0.009090
40.444,76.3993,0.009090
40.475,76.3855,0.009090
40.506,76.3725,0.009090
40.537,76.3599,0.009090
40.568,76.3483,0.009090
40.599,76.3373,0.009090
40.630,76.3270,0.008855
40.661,76.3173,0.008855
40.692,76.3085,0.008855
40.723,76.3005,0.008855
40.754,76.2931,0.008855
40.784,76.2866,0.008855
40.815,76.2806,0.008855
40.846,76.2755,0.008855
40.878,76.2708,0.008855
40.908,76.2672,0.008629
40.940,76.2641,0.008629
40.970,76.2619,0.008629
41.002,76.2603,0.008629
41.032,76.2594,0.008629
41.064,76.2593,0.008629
41.095,76.2593,0.008629
41.126,76.2593,0.008629
41.157,76.2593,0.008432
41.188,76.2593,0.008432
41.219,76.2593,0.008432
41.250,76.2593,0.008432
41.281,76.2593,0.008432
41.313,76.2593,0.008432
41.343,76.2593,0.008432
41.375,76.2593,0.008432
41.406,76.2593,0.008319
41.438,76.2593,0.008319
41.468,76.2593,0.008319
41.499,76.2593,0.008319
41.531,76.2593,0.008319
41.563,76.2593,0.008319
41.593,76.2593,0.008319
41.626,76.2593,0.008319
41.656,76.2593,0.008253
41.687,76.2593,0.008253
41.718,76.2593,0.008253
41.749,76.2598,0.008253
41.780,76.2609,0.008253
41.811,76.2628,0.008253
41.842,76.2654,0.008253
41.873,76.2687,0.008253
41.904,76.2728,0.008140
41.935,76.2775,0.008140
41.966,76.2831,0.008140
41.998,76.2894,0.008140
42.028,76.2964,0.008140
42.059,76.3042,0.008140
42.090,76.3125,0.008140
42.121,76.3217,0.007905
42.152,76.3316,0.007905
42.184,76.3424,0.007905
42.215,76.3540,0.007905
42.246,76.3658,0.007905
42.277,76.3788,0.007905
42.308,76.3925,0.007905
42.339,76.4069,0.007905
42.370,76.4216,0.007717
42.402,76.4380,0.007717
42.433,76.4544,0.007717
42.465,76.4722,0.007717
42.495,76.4895,0.007717
42.525,76.5077,0.007717
42.557,76.5274,0.007717
42.588,76.5479,0.007717
42.618,76.5679,0.007717
42.649,76.5897,0.007632
42.681,76.6127,0.007632
42.711,76.6351,0.007632
42.743,76.6596,0.007632
42.774,76.6837,0.007632
42.806,76.7092,0.007632
42.836,76.7349,0.007632
42.867,76.7613,0.007500
42.898,76.7889,0.007500
42.929,76.8165,0.007500
42.960,76.8463,0.007500
42.991,76.8756,0.007500
43.022,76.9066,0.007500
43.053,76.9369,0.007500
43.084,76.9696,0.007500
43.116,77.0014,0.007500
43.147,77.0353,0.007500
43.177,77.0678,0.007397
43.209,77.1039,0.007397
43.240,77.1405,0.007397
43.272,77.1773,0.007397
43.303,77.2136,0.007397
43.335,77.2521,0.007397
43.366,77.2904,0.007397
43.397,77.3303,0.007293
43.428,77.3695,0.007293
43.458,77.4089,0.007293
43.490,77.4515,0.007293
43.521,77.4937,0.007293
43.552,77.5370,0.007293
43.584,77.5816,0.007293
43.614,77.6252,0.007293
43.645,77.6692,0.007293
43.676,77.7147,0.007171
43.707,77.7620,0.007171
43.738,77.8077,0.007171
43.769,77.8531,0.007171
43.800,77.9004,0.007171
43.832,77.9480,0.007171
43.863,77.9949,0.007171
43.893,78.0401,0.007086
43.924,78.0866,0.007086
43.955,78.1329,0.007086
43.986,78.1789,0.007086
44.017,78.2259,0.007086
44.046,78.2704,0.007086
44.078,78.3172,0.007086
44.108,78.3631,0.007086
44.140,78.4106,0.007086
44.171,78.4571,0.006992
44.201,78.5032,0.006992
44.233,78.5499,0.006992
44.264,78.5977,0.006992
44.295,78.6436,0.006992
44.326,78.6903,0.006992
44.357,78.7360,0.006992
44.388,78.7822,0.006851
44.419,78.8282,0.006851
44.450,78.8746,0.006851
44.481,78.9226,0.006851
44.512,78.9687,0.006851
44.543,79.0142,0.006851
44.573,79.0607,0.006851
44.605,79.1075,0.006851
44.636,79.1534,0.006390
44.667,79.2014,0.006390
44.698,79.2468,0.006390
44.729,79.2933,0.006390
44.760,79.3397,0.006390
44.791,79.3868,0.006390
44.821,79.4324,0.006390
44.852,79.4786,0.006390
44.882,79.5238,0.005449
44.912,79.5690,0.005449
44.944,79.6165,0.005449
44.975,79.6621,0.005449
45.007,79.7128,0.005449
45.036,79.7534,0.005449
45.066,79.7997,0.005449
45.097,79.8449,0.005449
45.127,79.8896,0.004009
45.160,79.9346,0.004009
45.189,79.9775,0.004009
45.221,80.0199,0.004009
45.250,80.0610,0.004009
45.281,80.1017,0.004009
45.313,80.1425,0.004009
45.343,80.1824,0.004009
45.372,80.2190,0.002268
45.402,80.2562,0.002268
45.433,80.2940,0.002268
45.463,80.3301,0.002268
45.495,80.3676,0.002268
45.526,80.4032,0.002268
45.556,80.4373,0.002268
45.587,80.4721,0.002268
45.618,80.5055,0.002268
45.650,80.5380,0.002268
45.681,80.5713,0.000442
45.712,80.6017,0.000442
45.743,80.6335,0.000442
45.773,80.6609,0.000442
45.804,80.6903,0.000442
45.832,80.7161,0.000442
45.866,80.7466,-0.001797
45.897,80.7739,-0.001797
45.928,80.7993,-0.001797
45.959,80.8255,-0.001797
45.990,80.8504,-0.001797
46.021,80.8742,-0.001797
46.052,80.8978,-0.001797
46.084,80.9207,-0.001797
46.114,80.9422,-0.001797
46.140,80.9595,-0.001797
46.176,80.9837,-0.005006
46.207,81.0029,-0.005006
46.238,81.0225,-0.005006
46.269,81.0400,-0.005006
46.303,81.0594,-0.005006
46.331,81.0747,-0.005006
46.362,81.0901,-0.005006
46.394,81.1060,-0.009542
46.425,81.1206,-0.009542
46.455,81.1344,-0.009542
46.486,81.1473,-0.009542
46.518,81.1598,-0.009542
46.552,81.1728,-0.009542
46.580,81.1828,-0.009542
46.612,81.1932,-0.009542
46.643,81.2026,-0.014793
46.673,81.2113,-0.014793
46.705,81.2194,-0.014793
46.738,81.2272,-0.014793
46.764,81.2325,-0.014793
46.798,81.2389,-0.014793
46.828,81.2438,-0.014793
46.861,81.2486,-0.014793
46.889,81.2517,-0.014793
46.921,81.2547,-0.018915
46.951,81.2569,-0.018915
46.985,81.2585,-0.018915
47.014,81.2592,-0.018915
47.046,81.2593,-0.018915
47.075,81.2593,-0.018915
47.106,81.2593,-0.018915
47.137,81.2593,-0.019959
47.171,81.2593,-0.019959
47.198,81.2593,-0.019959
47.229,81.2593,-0.019959
47.261,81.2593,-0.019959
47.291,81.2593,-0.019959
47.322,81.2593,-0.019959
47.353,81.2593,-0.019959
47.385,81.2593,-0.019959
47.416,81.2593,-0.018435
47.447,81.2593,-0.018435
47.478,81.2593,-0.018435
47.510,81.2593,-0.018435
47.542,81.2593,-0.018435
47.573,81.2593,-0.018435
47.605,81.2593,-0.018435
47.634,81.2593,-0.016694
47.667,81.2593,-0.016694
47.698,81.2593,-0.016694
47.729,81.2593,-0.016694
47.760,81.2593,-0.016694
47.791,81.2593,-0.016694
47.823,81.2593,-0.016694
47.853,81.2593,-0.016694
47.884,81.2593,-0.015555
47.916,81.2593,-0.015555
47.947,81.2593,-0.015555
47.977,81.2593,-0.015555
48.010,81.2593,-0.015555
48.039,81.2593,-0.015555
48.070,81.2593,-0.015555
48.101,81.2593,-0.015555
48.133,81.2593,-0.014643
48.163,81.2593,-0.014643
48.195,81.2593,-0.014643
48.226,81.2593,-0.014643
48.257,81.2593,-0.014643
48.289,81.2593,-0.014643
48.321,81.2593,-0.014643
48.351,81.2593,-0.014643
48.383,81.2593,-0.013937
48.414,81.2593,-0.013937
48.445,81.2593,-0.013937
48.475,81.2593,-0.013937
48.506,81.2593,-0.013937
48.537,81.2593,-0.013937
48.567,81.2593,-0.013937
48.598,81.2593,-0.013937
48.629,81.2593,-0.013363
48.660,81.2593,-0.013363
48.690,81.2593,-0.013363
48.722,81.2593,-0.013363
48.753,81.2593,-0.013363
48.786,81.2593,-0.013363
48.815,81.2593,-0.013363
48.846,81.2593,-0.013363
48.876,81.2593,-0.012864
48.913,81.2593,-0.012864
48.955,81.2593,-0.012864
48.984,81.2593,-0.012864
49.020,81.2593,-0.012864
49.046,81.2593,-0.012864
49.078,81.2593,-0.012864
49.110,81.2593,-0.012864
49.140,81.2593,-0.012469
49.171,81.2593,-0.012469
49.203,81.2593,-0.012469
49.234,81.2593,-0.012469
49.264,81.2593,-0.012469
49.295,81.2593,-0.012469
49.327,81.2593,-0.012469
49.358,81.2593,-0.012149
49.389,81.2593,-0.012149
49.419,81.2593,-0.012149
49.451,81.2593,-0.012149
49.482,81.2593,-0.012149
49.515,81.2593,-0.012149
49.544,81.2593,-0.012149
49.575,81.2593,-0.012149
49.606,81.2593,-0.012149
49.637,81.2593,-0.011904
49.668,81.2593,-0.011904
49.700,81.2593,-0.011904
49.732,81.2593,-0.011904
49.762,81.2593,-0.011904
49.794,81.2593,-0.011904
49.825,81.2593,-0.011904
49.856,81.2593,-0.011904
49.889,81.2593,-0.011594
49.918,81.2593,-0.011594
49.949,81.2593,-0.011594
49.980,81.2593,-0.011594
50.010,81.2593,-0.011594
50.041,81.2593,-0.011594
50.073,81.2593,-0.011594
50.106,81.2593,-0.011594
50.134,81.2593,-0.011594
50.165,81.2593,-0.011594
50.196,81.2593,-0.011274
50.227,81.2593,-0.011274
50.260,81.2593,-0.011274
50.291,81.2593,-0.011274
50.322,81.2593,-0.011274
50.352,81.2593,-0.011274
50.384,81.2593,-0.011085
50.418,81.2593,-0.011085
50.447,81.2593,-0.011085
50.477,81.2593,-0.011085
50.509,81.2593,-0.011085
50.542,81.2593,-0.011085
50.572,81.2593,-0.011085
50.603,81.2593,-0.011085
50.634,81.2593,-0.010907
50.665,81.2593,-0.010907
50.695,81.2593,-0.010907
50.725,81.2593,-0.010907
50.756,81.2593,-0.010907
50.787,81.2593,-0.010907
50.818,81.2593,-0.010907
50.849,81.2593,-0.010907
50.880,81.2593,-0.010907
50.911,81.2593,-0.010681
50.942,81.2593,-0.010681
50.973,81.2593,-0.010681
51.005,81.2593,-0.010681
51.036,81.2593,-0.010681
51.067,81.2593,-0.010681
51.098,81.2593,-0.010681
51.129,81.2593,-0.010577
51.166,81.2593,-0.010577
51.208,81.2593,-0.010577
51.238,81.2593,-0.010577
51.269,81.2593,-0.010577
51.301,81.2593,-0.010577
51.331,81.2593,-0.010577
51.362,81.2593,-0.010427
51.393,81.2593,-0.010427
51.425,81.2593,-0.010427
51.455,81.2593,-0.010427
51.487,81.2593,-0.010427
51.518,81.2593,-0.010427
51.551,81.2593,-0.010427
51.580,81.2593,-0.010427
51.612,81.2593,-0.010427
51.644,81.2593,-0.010210
51.676,81.2593,-0.010210
51.707,81.2593,-0.010210
51.737,81.2593,-0.010210
51.768,81.2593,-0.010210
51.800,81.2593,-0.010210
51.831,81.2593,-0.010210
51.862,81.2593,-0.010210
51.893,81.2593,-0.010003
51.924,81.2593,-0.010003
51.955,81.2593,-0.010003
51.986,81.2593,-0.010003
52.017,81.2593,-0.010003
52.048,81.2593,-0.010003
52.080,81.2593,-0.010003
52.110,81.2593,-0.009853
52.140,81.2592,-0.009853
52.171,81.2584,-0.009853
52.202,81.2569,-0.009853
52.232,81.2547,-0.009853
52.264,81.2518,-0.009853
52.294,81.2482,-0.009853
52.325,81.2438,-0.009853
52.358,81.2385,-0.009853
52.388,81.2327,-0.009448
52.419,81.2262,-0.009448
52.450,81.2186,-0.009448
52.481,81.2107,-0.009448
52.513,81.2016,-0.009448
52.543,81.1924,-0.009448
52.573,81.1825,-0.009448
52.605,81.1712,-0.009448
52.641,81.1576,-0.005797
52.668,81.1470,-0.005797
52.699,81.1339,-0.005797
52.730,81.1200,-0.005797
52.760,81.1054,-0.005797
52.791,81.0905,-0.005797
52.822,81.0742,-0.005797
52.852,81.0580,-0.005797
52.883,81.0404,0.001807
52.914,81.0225,0.001807
52.947,81.0019,0.001807
52.977,80.9832,0.001807
53.008,80.9625,0.001807
53.038,80.9420,0.001807
53.070,80.9197,0.001807
53.101,80.8973,0.001807
53.132,80.8737,0.001807
53.163,80.8501,0.009966
53.194,80.8252,0.009966
53.225,80.7999,0.009966
53.255,80.7736,0.009966
53.286,80.7472,0.009966
53.316,80.7202,0.009966
53.347,80.6924,0.009966
53.378,80.6625,0.009966
53.409,80.6330,0.009966
53.441,80.6015,0.016158
53.472,80.5705,0.016158
53.504,80.5371,0.016158
53.534,80.5055,0.016158
53.565,80.4721,0.016158
53.596,80.4381,0.016158
53.627,80.4025,0.016158
53.658,80.3671,0.020618
53.689,80.3302,0.020618
53.720,80.2935,0.020618
53.754,80.2510,0.020618
53.783,80.2169,0.020618
53.814,80.1767,0.020618
53.846,80.1361,0.020618
53.877,80.0940,0.020618
53.908,80.0529,0.020618
53.939,80.0119,0.026368
53.969,79.9680,0.026368
54.000,79.9243,0.026368
54.032,79.8792,0.026368
54.062,79.8359,0.026368
54.093,79.7887,0.026368
54.124,79.7427,0.026368
54.155,79.6957,0.034602
54.187,79.6485,0.034602
54.219,79.5999,0.034602
54.252,79.5517,0.034602
54.282,79.5065,0.034602
54.313,79.4601,0.034602
54.343,79.4136,0.034602
54.375,79.3664,0.034602
54.407,79.3202,0.041359
54.438,79.2722,0.041359
54.469,79.2260,0.041359
54.500,79.1792,0.041359
54.531,79.1328,0.041359
54.563,79.0858,0.041359
54.593,79.0405,0.041359
54.624,78.9930,0.041359
54.655,78.9467,0.029313
54.686,78.9006,0.029313
54.717,78.8537,0.029313
54.749,78.8062,0.029313
54.780,78.7592,0.029313
54.811,78.7140,0.029313
54.842,78.6658,0.029313
54.873,78.6199,0.029313
54.904,78.5734,0.013711
54.934,78.5279,0.013711
54.966,78.4812,0.013711
54.996,78.4355,0.013711
55.027,78.3895,0.013711
55.059,78.3403,0.013711
55.089,78.2957,0.013711
55.121,78.2473,0.012083
55.151,78.2027,0.012083
55.183,78.1545,0.012083
55.213,78.1090,0.012083
55.245,78.0622,0.012083
55.276,78.0152,0.012083
55.308,77.9670,0.012083
55.338,77.9224,0.012083
55.369,77.8761,0.012083
55.400,77.8297,0.012083
55.430,77.7842,0.011547
55.461,77.7374,0.011547
55.492,77.6913,0.011547
55.524,77.6440,0.011547
55.554,77.6008,0.011547
55.587,77.5531,0.011547
55.617,77.5097,0.011547
55.648,77.4673,0.011038
55.680,77.4235,0.011038
55.711,77.3812,0.011038
55.743,77.3401,0.011038
55.773,77.2998,0.011038
55.803,77.2618,0.011038
55.834,77.2236,0.011038
55.866,77.1851,0.011038
55.897,77.1468,0.011038
55.928,77.1107,0.010521
55.959,77.0754,0.010521
55.989,77.0404,0.010521
56.021,77.0057,0.010521
56.051,76.9720,0.010521
56.084,76.9381,0.010521
56.115,76.9057,0.010521
56.145,76.8744,0.010022
56.177,76.8437,0.010022
56.208,76.8133,0.010022
56.239,76.7843,0.010022
56.270,76.7546,0.010022
56.301,76.7275,0.010022
56.331,76.7009,0.010022
56.363,76.6739,0.010022
56.394,76.6485,0.009589
56.425,76.6237,0.009589
56.456,76.5989,0.009589
56.488,76.5750,0.009589
56.519,76.5524,0.009589
56.550,76.5306,0.009589
56.582,76.5086,0.009589
56.613,76.4882,0.009589
56.644,76.4683,0.009260
56.675,76.4488,0.009260
56.706,76.4308,0.009260
56.738,76.4129,0.009260
56.769,76.3958,0.009260
56.801,76.3787,0.009260
56.832,76.3638,0.009260
56.864,76.3487,0.009025
56.895,76.3349,0.009025
56.926,76.3220,0.009025
56.957,76.3091,0.009025
56.988,76.2975,0.009025
57.019,76.2866,0.009025
57.051,76.2762,0.009025
57.082,76.2666,0.009025
57.112,76.2583,0.009025
57.143,76.2500,0.008855
57.173,76.2428,0.008855
57.204,76.2362,0.008855
57.235,76.2305,0.008855
57.266,76.2252,0.008855
57.296,76.2208,0.008855
57.327,76.2171,0.008855
57.358,76.2141,0.008611
57.389,76.2119,0.008611
57.419,76.2103,0.008611
57.450,76.2094,0.008611
57.481,76.2093,0.008611
57.512,76.2093,0.008611
57.543,76.2093,0.008611
57.573,76.2093,0.008611
57.606,76.2093,0.008611
57.637,76.2093,0.008356
57.668,76.2093,0.008356
57.699,76.2093,0.008356
57.730,76.2093,0.008356
57.761,76.2093,0.008356
57.792,76.2093,0.008356
57.823,76.2093,0.008356
57.853,76.2093,0.008215
57.884,76.2093,0.008215
57.914,76.2093,0.008215
57.945,76.2093,0.008215
57.976,76.2093,0.008215
58.007,76.2093,0.008215
58.038,76.2093,0.008215
58.069,76.2093,0.008215
58.100,76.2093,0.008215
58.131,76.2093,0.008102
58.163,76.2093,0.008102
58.193,76.2093,0.008102
58.224,76.2093,0.008102
58.256,76.2093,0.008102
58.286,76.2095,0.008102
58.317,76.2105,0.008102
58.347,76.2123,0.008102
58.378,76.2146,0.008036
58.408,76.2176,0.008036
58.440,76.2216,0.008036
58.470,76.2259,0.008036
58.501,76.2314,0.008036
58.532,76.2372,0.008036
58.562,76.2439,0.008036
58.593,76.2513,0.008036
58.624,76.2594,0.007886
58.655,76.2685,0.007886
58.686,76.2780,0.007886
58.717,76.2886,0.007886
58.748,76.2995,0.007886
58.779,76.3111,0.007886
58.810,76.3237,0.007886
58.841,76.3372,0.007886
58.872,76.3508,0.007886
58.906,76.3674,0.007651
58.934,76.3811,0.007651
58.965,76.3978,0.007651
58.996,76.4142,0.007651
59.027,76.4322,0.007651
59.058,76.4503,0.007651
59.089,76.4700,0.007651
59.119,76.4890,0.007509
59.154,76.5125,0.007509
59.182,76.5308,0.007509
59.213,76.5533,0.007509
59.245,76.5762,0.007509
59.275,76.5997,0.007509
59.307,76.6245,0.007509
59.346,76.6557,0.007509
59.385,76.6879,0.007444
59.416,76.7146,0.007444
59.446,76.7416,0.007444
59.478,76.7710,0.007444
59.509,76.7993,0.007444
59.540,76.8293,0.007444
59.570,76.8588,0.007444
59.601,76.8907,0.007444
59.633,76.9226,0.007340
59.664,76.9557,0.007340
59.695,76.9885,0.007340
59.727,77.0239,0.007340
59.758,77.0580,0.007340
59.789,77.0945,0.007340
59.819,77.1297,0.007340
59.851,77.1687,0.007340
59.881,77.2032,0.007208
59.911,77.2415,0.007208
59.944,77.2819,0.007208
59.975,77.3225,0.007208
60.006,77.3635,0.007208
60.038,77.4051,0.007208
60.068,77.4478,0.007208
60.100,77.4910,0.007208
60.131,77.5349,0.007095
60.163,77.5800,0.007095
60.193,77.6252,0.007095
60.226,77.6714,0.007095
60.257,77.7192,0.007095
60.288,77.7644,0.007095
60.318,77.8107,0.007095
60.349,77.8573,0.007095
60.379,77.9020,0.007095
60.407,77.9445,0.007030
60.440,77.9938,0.007030
60.474,78.0444,0.007030
60.502,78.0871,0.007030
60.534,78.1344,0.007030
60.566,78.1813,0.007030
60.597,78.2284,0.007030
60.627,78.2754,0.006983
60.658,78.3204,0.006983
60.689,78.3657,0.006983
60.720,78.4141,0.006983
60.750,78.4591,0.006983
60.782,78.5061,0.006983
60.813,78.5530,0.006983
60.843,78.5981,0.006983
60.876,78.6464,0.006870
60.906,78.6930,0.006870
60.938,78.7409,0.006870
60.970,78.7882,0.006870
61.001,78.8349,0.006870
61.032,78.8815,0.006870
61.063,78.9268,0.006870
61.094,78.9743,0.006870
61.125,79.0202,0.006540
61.155,79.0661,0.006540
61.186,79.1122,0.006540
61.218,79.1597,0.006540
61.249,79.2065,0.006540
61.280,79.2541,0.006540
61.311,79.2990,0.006540
61.342,79.3462,0.006540
61.374,79.3940,0.005722
61.404,79.4392,0.005722
61.436,79.4874,0.005722
61.466,79.5323,0.005722
61.497,79.5789,0.005722
61.528,79.6248,0.005722
61.559,79.6710,0.005722
61.591,79.7188,0.005722
61.621,79.7641,0.004357
61.652,79.8107,0.004357
61.683,79.8551,0.004357
61.714,79.8990,0.004357
61.745,79.9418,0.004357
61.776,79.9843,0.004357
61.807,80.0270,0.004357
61.839,80.0690,0.004357
61.869,80.1085,0.002738
61.901,80.1488,0.002738
61.930,80.1860,0.002738
61.964,80.2279,0.002738
61.992,80.2614,0.002738
62.023,80.2979,0.002738
62.053,80.3331,0.002738
62.084,80.3686,0.002738
62.116,80.4034,0.001045
62.147,80.4376,0.001045
62.178,80.4704,0.001045
62.209,80.5037,0.001045
62.239,80.5338,0.001045
62.270,80.5655,0.001045
62.301,80.5954,0.001045
62.332,80.6248,0.001045
62.364,80.6538,-0.001054
62.395,80.6823,-0.001054
62.427,80.7105,-0.001054
62.458,80.7371,-0.001054
62.489,80.7626,-0.001054
62.519,80.7876,-0.001054
62.553,80.8144,-0.001054
62.581,80.8355,-0.001054
62.612,80.8582,-0.001054
62.643,80.8808,-0.004103
62.674,80.9028,-0.004103
62.706,80.9231,-0.004103
62.737,80.9440,-0.004103
62.767,80.9624,-0.004103
62.799,80.9817,-0.004103
62.830,80.9997,-0.004103
62.862,81.0173,-0.004103
62.894,81.0338,-0.004103
62.925,81.0499,-0.008545
62.957,81.0647,-0.008545
62.989,81.0793,-0.008545
63.018,81.0921,-0.008545
63.050,81.1053,-0.008545
63.080,81.1165,-0.008545
63.111,81.1278,-0.008545
63.142,81.1385,-0.008545
63.174,81.1488,-0.013852
63.204,81.1573,-0.013852
63.235,81.1655,-0.013852
63.266,81.1733,-0.013852
63.298,81.1803,-0.013852
63.329,81.1865,-0.013852
63.360,81.1919,-0.013852
63.391,81.1965,-0.013852
63.422,81.2005,-0.018322
63.453,81.2037,-0.018322
63.483,81.2062,-0.018322
63.514,81.2079,-0.018322
63.546,81.2091,-0.018322
63.577,81.2093,-0.018322
63.607,81.2093,-0.018322
63.639,81.2093,-0.020091
63.670,81.2093,-0.020091
63.699,81.2093,-0.020091
63.732,81.2093,-0.020091
63.763,81.2093,-0.020091
63.794,81.2093,-0.020091
63.826,81.2093,-0.020091
63.857,81.2093,-0.020091
63.888,81.2093,-0.018990
63.922,81.2093,-0.018990
63.949,81.2093,-0.018990
63.980,81.2093,-0.018990
64.010,81.2093,-0.018990
64.042,81.2093,-0.018990
64.072,81.2093,-0.018990
64.102,81.2093,-0.018990
64.133,81.2093,-0.018990
64.164,81.2093,-0.017127
64.195,81.2093,-0.017127
64.224,81.2093,-0.017127
64.257,81.2093,-0.017127
64.289,81.2093,-0.017127
64.320,81.2093,-0.017127
64.351,81.2093,-0.017127
64.381,81.2093,-0.015809
64.412,81.2093,-0.015809
64.444,81.2093,-0.015809
64.473,81.2093,-0.015809
64.504,81.2093,-0.015809
64.535,81.2093,-0.015809
64.567,81.2093,-0.015809
64.598,81.2093,-0.015809
64.629,81.2093,-0.015809
64.660,81.2093,-0.014859
64.691,81.2093,-0.014859
64.721,81.2093,-0.014859
64.750,81.2093,-0.014859
64.783,81.2093,-0.014859
64.815,81.2093,-0.014859
64.847,81.2093,-0.014859
64.877,81.2093,-0.014859
64.908,81.2093,-0.014153
64.939,81.2093,-0.014153
64.971,81.2093,-0.014153
65.002,81.2093,-0.014153
65.033,81.2093,-0.014153
65.064,81.2093,-0.014153
65.095,81.2093,-0.014153
65.127,81.2093,-0.014153
65.157,81.2093,-0.013579
65.189,81.2093,-0.013579
65.219,81.2093,-0.013579
65.249,81.2093,-0.013579
65.280,81.2093,-0.013579
65.311,81.2093,-0.013579
65.342,81.2093,-0.013579
65.373,81.2093,-0.013579
65.403,81.2093,-0.013090
65.434,81.2093,-0.013090
65.466,81.2093,-0.013090
65.497,81.2093,-0.013090
65.528,81.2093,-0.013090
65.559,81.2093,-0.013090
65.591,81.2093,-0.013090
65.621,81.2093,-0.013090
65.652,81.2093,-0.012666
65.683,81.2093,-0.012666
65.715,81.2093,-0.012666
65.746,81.2093,-0.012666
65.776,81.2093,-0.012666
65.807,81.2093,-0.012666
65.839,81.2093,-0.012666
65.870,81.2093,-0.012666
65.901,81.2093,-0.012281
65.933,81.2093,-0.012281
65.963,81.2093,-0.012281
65.994,81.2093,-0.012281
66.025,81.2093,-0.012281
66.057,81.2093,-0.012281
66.088,81.2093,-0.012281
66.119,81.2093,-0.012281
66.149,81.2093,-0.011923
66.180,81.2093,-0.011923
66.210,81.2093,-0.011923
66.241,81.2093,-0.011923
66.272,81.2093,-0.011923
66.302,81.2093,-0.011923
66.333,81.2093,-0.011923
66.365,81.2093,-0.011622
66.395,81.2093,-0.011622
66.426,81.2093,-0.011622
66.456,81.2093,-0.011622
66.487,81.2093,-0.011622
66.519,81.2093,-0.011622
66.550,81.2093,-0.011622
66.582,81.2093,-0.011622
66.611,81.2093,-0.011622
66.642,81.2093,-0.011330
66.673,81.2093,-0.011330
66.705,81.2093,-0.011330
66.736,81.2093,-0.011330
66.769,81.2093,-0.011330
66.798,81.2093,-0.011330
66.832,81.2093,-0.011330
66.859,81.2093,-0.011330
66.893,81.2093,-0.011330
66.922,81.2093,-0.011161
66.953,81.2093,-0.011161
66.985,81.2093,-0.011161
67.014,81.2093,-0.011161
67.046,81.2093,-0.011161
67.077,81.2093,-0.011161
67.108,81.2093,-0.011161
67.138,81.2093,-0.011001
67.171,81.2093,-0.011001
67.200,81.2093,-0.011001
67.231,81.2093,-0.011001
67.262,81.2093,-0.011001
67.292,81.2093,-0.011001
67.323,81.2093,-0.011001
67.354,81.2093,-0.011001
67.385,81.2093,-0.010756
67.416,81.2093,-0.010756
67.447,81.2093,-0.010756
67.478,81.2093,-0.010756
67.509,81.2093,-0.010756
67.540,81.2093,-0.010756
67.572,81.2093,-0.010756
67.603,81.2093,-0.010756
67.634,81.2093,-0.010615
67.664,81.2093,-0.010615
67.696,81.2093,-0.010615
67.728,81.2093,-0.010615
67.758,81.2093,-0.010615
67.790,81.2093,-0.010615
67.820,81.2093,-0.010615
67.852,81.2093,-0.010615
67.884,81.2093,-0.010464
67.915,81.2093,-0.010464
67.946,81.2093,-0.010464
67.977,81.2093,-0.010464
68.008,81.2093,-0.010464
68.040,81.2093,-0.010464
68.071,81.2093,-0.010464
68.102,81.2093,-0.010464
68.133,81.2093,-0.010464
68.163,81.2093,-0.010267
68.195,81.2093,-0.010267
68.226,81.2093,-0.010267
68.257,81.2093,-0.010267
68.289,81.2093,-0.010267
68.319,81.2093,-0.010267
68.351,81.2093,-0.010267
68.382,81.2093,-0.010069
68.413,81.2093,-0.010069
68.445,81.2093,-0.010069
68.475,81.2093,-0.010069
68.506,81.2093,-0.010069
68.538,81.2092,-0.010069
68.568,81.2087,-0.010069
68.600,81.2072,-0.010069
68.629,81.2052,-0.009909
68.661,81.2024,-0.009909
68.692,81.1989,-0.009909
68.723,81.1945,-0.009909
68.754,81.1895,-0.009909
68.785,81.1839,-0.009909
68.815,81.1774,-0.009909
68.846,81.1705,-0.009909
68.877,81.1624,-0.009909
68.908,81.1540,-0.008488
68.939,81.1444,-0.008488
68.970,81.1345,-0.008488
69.002,81.1234,-0.008488
69.032,81.1119,-0.008488
69.065,81.0994,-0.008488
69.096,81.0859,-0.008488
69.126,81.0725,-0.003218
69.156,81.0585,-0.003218
69.187,81.0436,-0.003218
69.218,81.0280,-0.003218
69.249,81.0111,-0.003218
69.280,80.9939,-0.003218
69.311,80.9759,-0.003218
69.342,80.9569,-0.003218
69.372,80.9378,0.004988
69.403,80.9176,0.004988
69.435,80.8959,0.004988
69.465,80.8748,0.004988
69.496,80.8524,0.004988
69.528,80.8286,0.004988
69.559,80.8047,0.004988
69.590,80.7803,0.004988
69.621,80.7550,0.004988
69.651,80.7298,0.012572
69.682,80.7029,0.012572
69.714,80.6753,0.012572
69.743,80.6480,0.012572
69.775,80.6182,0.012572
69.805,80.5892,0.012572
69.836,80.5582,0.012572
69.868,80.5271,0.012572
69.899,80.4942,0.017739
69.930,80.4622,0.017739
69.962,80.4280,0.017739
69.992,80.3955,0.017739
70.022,80.3612,0.017739
70.054,80.3254,0.017739
70.085,80.2894,0.017739
70.117,80.2512,0.017739
70.147,80.2146,0.022058
70.178,80.1761,0.022058
70.209,80.1368,0.022058
70.241,80.0955,0.022058
70.271,80.0558,0.022058
70.302,80.0140,0.022058
70.334,79.9719,0.022058
70.366,79.9270,0.022058
70.397,79.8831,0.028570
70.427,79.8396,0.028570
70.459,79.7952,0.028570
70.490,79.7494,0.028570
70.520,79.7043,0.028570
70.552,79.6562,0.028570
70.582,79.6098,0.028570
70.614,79.5626,0.028570
70.644,79.5173,0.036653
70.675,79.4701,0.036653
70.707,79.4239,0.036653
70.737,79.3770,0.036653
70.768,79.3316,0.036653
70.799,79.2843,0.036653
70.829,79.2398,0.036653
70.860,79.1924,0.036653
70.892,79.1454,0.038987
70.926,79.0952,0.038987
70.955,79.0519,0.038987
70.986,79.0043,0.038987
71.018,78.9574,0.038987
71.049,78.9098,0.038987
71.079,78.8650,0.038987
71.110,78.8185,0.038987
71.142,78.7711,0.025145
71.173,78.7242,0.025145
71.205,78.6755,0.025145
71.234,78.6326,0.025145
71.265,78.5844,0.025145
71.297,78.5375,0.025145
71.329,78.4900,0.025145
71.360,78.4428,0.025145
71.394,78.3920,0.012553
71.422,78.3504,0.012553
71.456,78.2992,0.012553
71.484,78.2578,0.012553
71.515,78.2105,0.012553
71.546,78.1649,0.012553
71.577,78.1185,0.012553
71.608,78.0719,0.011791
71.639,78.0254,0.011791
71.669,77.9799,0.011791
71.700,77.9336,0.011791
71.732,77.8863,0.011791
71.762,77.8403,0.011791
71.792,77.7954,0.011791
71.823,77.7473,0.011791
71.854,77.7024,0.011791
71.885,77.6558,0.011283
71.916,77.6085,0.011283
71.946,77.5644,0.011283
71.977,77.5207,0.011283
72.008,77.4755,0.011283
72.042,77.4288,0.011283
72.071,77.3895,0.011283
72.102,77.3462,0.011283
72.133,77.3059,0.010784
72.162,77.2677,0.010784
72.193,77.2287,0.010784
72.225,77.1885,0.010784
72.255,77.1509,0.010784
72.286,77.1126,0.010784
72.317,77.0765,0.010784
72.348,77.0398,0.010784
72.378,77.0053,0.010784
72.409,76.9708,0.010210
72.440,76.9377,0.010210
72.471,76.9032,0.010210
72.502,76.8722,0.010210
72.533,76.8398,0.010210
72.564,76.8090,0.010210
72.595,76.7786,0.010210
72.627,76.7476,0.009768
72.658,76.7190,0.009768
72.688,76.6910,0.009768
72.719,76.6637,0.009768
72.749,76.6379,0.009768
72.781,76.6108,0.009768
72.811,76.5866,0.009768
72.842,76.5618,0.009768
72.874,76.5376,0.009401
72.905,76.5148,0.009401
72.936,76.4923,0.009401
72.967,76.4707,0.009401
72.997,76.4500,0.009401
73.029,76.4293,0.009401
73.060,76.4095,0.009401
73.091,76.3911,0.009401
73.122,76.3728,0.009081
73.153,76.3556,0.009081
73.186,76.3378,0.009081
73.215,76.3234,0.009081
73.247,76.3080,0.009081
73.278,76.2935,0.009081
73.310,76.2795,0.009081
73.342,76.2665,0.009081
73.373,76.2542,0.008789
73.403,76.2429,0.008789
73.434,76.2325,0.008789
73.465,76.2224,0.008789
73.495,76.2135,0.008789
73.526,76.2048,0.008789
73.557,76.1973,0.008789
73.588,76.1901,0.008789
73.619,76.1839,0.008789
73.650,76.1782,0.008573
73.681,76.1733,0.008573
73.712,76.1691,0.008573
73.743,76.1656,0.008573
73.774,76.1630,0.008573
73.805,76.1611,0.008573
73.836,76.1598,0.008573
73.867,76.1593,0.008338
73.898,76.1593,0.008338
73.928,76.1593,0.008338
73.960,76.1593,0.008338
73.991,76.1593,0.008338
74.022,76.1593,0.008338
74.052,76.1593,0.008338
74.083,76.1593,0.008338
74.114,76.1593,0.008338
74.144,76.1593,0.008187
74.175,76.1593,0.008187
74.206,76.1593,0.008187
74.237,76.1593,0.008187
74.270,76.1593,0.008187
74.298,76.1593,0.008187
74.330,76.1593,0.008187
74.360,76.1593,0.008187
74.392,76.1593,0.008093
74.423,76.1593,0.008093
74.455,76.1593,0.008093
74.486,76.1593,0.008093
74.516,76.1593,0.008093
74.548,76.1593,0.008093
74.579,76.1594,0.008093
74.610,76.1603,0.008093
74.641,76.1618,0.007971
74.675,76.1643,0.007971
74.703,76.1671,0.007971
74.733,76.1707,0.007971
74.765,76.1753,0.007971
74.796,76.1804,0.007971
74.827,76.1864,0.007971
74.858,76.1931,0.007829
74.892,76.2014,0.007829
74.919,76.2082,0.007829
74.950,76.2169,0.007829
74.981,76.2265,0.007829
75.012,76.2368,0.007829
75.044,76.2482,0.007829
75.075,76.2599,0.007829
75.106,76.2723,0.007829
75.136,76.2852,0.007669
75.167,76.2990,0.007669
75.197,76.3134,0.007669
75.229,76.3292,0.007669
75.260,76.3449,0.007669
75.291,76.3621,0.007669
75.323,76.3798,0.007669
75.354,76.3982,0.007669
75.381,76.4144,0.007585
75.416,76.4365,0.007585
75.447,76.4573,0.007585
75.479,76.4788,0.007585
75.510,76.5009,0.007585
75.541,76.5243,0.007585
75.572,76.5476,0.007585
75.603,76.5719,0.007585
75.635,76.5965,0.007500
75.666,76.6225,0.007500
75.697,76.6487,0.007500
75.727,76.6758,0.007500
75.758,76.7025,0.007500
75.789,76.7319,0.007500
75.820,76.7602,0.007500
75.851,76.7910,0.007500
75.882,76.8206,0.007359
75.913,76.8531,0.007359
75.944,76.8846,0.007359
75.975,76.9180,0.007359
76.006,76.9506,0.007359
76.037,76.9863,0.007359
76.069,77.0208,0.007359
76.101,77.0580,0.007359
76.130,77.0937,0.007237
76.162,77.1301,0.007237
76.193,77.1694,0.007237
76.223,77.2068,0.007237
76.259,77.2525,0.007237
76.286,77.2869,0.007237
76.317,77.3280,0.007237
76.348,77.3693,0.007237
76.378,77.4120,0.007237
76.409,77.4557,0.007171
76.441,77.4990,0.007171
76.472,77.5437,0.007171
76.503,77.5877,0.007171
76.533,77.6333,0.007171
76.564,77.6808,0.007171
76.596,77.7275,0.007171
76.627,77.7742,0.007030
76.658,77.8207,0.007030
76.688,77.8656,0.007030
76.720,77.9134,0.007030
76.753,77.9626,0.007030
76.783,78.0076,0.007030
76.813,78.0540,0.007030
76.844,78.0994,0.007030
76.875,78.1452,0.007030
76.906,78.1917,0.006964
76.936,78.2384,0.006964
76.968,78.2853,0.006964
76.998,78.3317,0.006964
77.029,78.3767,0.006964
77.060,78.4246,0.006964
77.092,78.4707,0.006964
77.122,78.5180,0.006964
77.153,78.5629,0.006860
77.185,78.6124,0.006860
77.216,78.6583,0.006860
77.249,78.7075,0.006860
77.280,78.7529,0.006860
77.310,78.7999,0.006860
77.340,78.8453,0.006860
77.372,78.8908,0.006860
77.403,78.9372,0.006587
77.434,78.9847,0.006587
77.465,79.0305,0.006587
77.497,79.0795,0.006587
77.527,79.1241,0.006587
77.558,79.1716,0.006587
77.589,79.2169,0.006587
77.620,79.2639,0.006587
77.651,79.3104,0.006004
77.683,79.3578,0.006004
77.713,79.4036,0.006004
77.744,79.4504,0.006004
77.775,79.4964,0.006004
77.806,79.5433,0.006004
77.838,79.5896,0.006004
77.869,79.6372,0.006004
77.899,79.6827,0.004875
77.930,79.7281,0.004875
77.961,79.7737,0.004875
77.993,79.8191,0.004875
78.024,79.8637,0.004875
78.056,79.9076,0.004875
78.087,79.9490,0.004875
78.117,79.9899,0.004875
78.148,80.0306,0.003312
78.178,80.0705,0.003312
78.209,80.1092,0.003312
78.240,80.1474,0.003312
78.271,80.1856,0.003312
78.302,80.2238,0.003312
78.333,80.2598,0.003312
78.366,80.2985,0.003312
78.395,80.3310,0.001562
78.426,80.3651,0.001562
78.456,80.3977,0.001562
78.487,80.4311,0.001562
78.518,80.4627,0.001562
78.549,80.4948,0.001562
78.580,80.5251,0.001562
78.611,80.5547,0.001562
78.641,80.5834,0.001562
78.673,80.6128,-0.000508
78.703,80.6398,-0.000508
78.734,80.6671,-0.000508
78.766,80.6937,-0.000508
78.798,80.7205,-0.000508
78.829,80.7450,-0.000508
78.860,80.7698,-0.000508
78.891,80.7928,-0.003275
78.922,80.8154,-0.003275
78.952,80.8369,-0.003275
78.983,80.8582,-0.003275
79.014,80.8785,-0.003275
79.044,80.8984,-0.003275
79.076,80.9176,-0.003275
79.107,80.9365,-0.003275
79.138,80.9538,-0.007368
79.169,80.9707,-0.007368
79.199,80.9867,-0.007368
79.231,81.0026,-0.007368
79.262,81.0171,-0.007368
79.292,81.0310,-0.007368
79.323,81.0441,-0.007368
79.359,81.0587,-0.007368
79.385,81.0685,-0.007368
79.416,81.0798,-0.012676
79.446,81.0900,-0.012676
79.481,81.1008,-0.012676
79.509,81.1086,-0.012676
79.539,81.1169,-0.012676
79.570,81.1241,-0.012676
79.601,81.1309,-0.012676
79.631,81.1369,-0.017541
79.661,81.1422,-0.017541
79.693,81.1469,-0.017541
79.724,81.1506,-0.017541
79.755,81.1540,-0.017541
79.787,81.1563,-0.017541
79.817,81.1581,-0.017541
79.849,81.1591,-0.017541
79.879,81.1593,-0.020016
79.910,81.1593,-0.020016
79.941,81.1593,-0.020016
79.972,81.1593,-0.020016
80.003,81.1593,-0.020016
80.034,81.1593,-0.020016
80.066,81.1593,-0.020016
80.098,81.1593,-0.020016
80.130,81.1593,-0.019235
80.161,81.1593,-0.019235
80.192,81.1593,-0.019235
80.224,81.1593,-0.019235
80.254,81.1593,-0.019235
80.285,81.1593,-0.019235
80.316,81.1593,-0.019235
80.347,81.1593,-0.019235
80.378,81.1593,-0.017353
80.410,81.1593,-0.017353
80.440,81.1593,-0.017353
80.471,81.1593,-0.017353
80.502,81.1593,-0.017353
80.532,81.1593,-0.017353
80.564,81.1593,-0.017353
80.595,81.1593,-0.017353
80.625,81.1593,-0.016045
80.656,81.1593,-0.016045
80.687,81.1593,-0.016045
80.718,81.1593,-0.016045
80.749,81.1593,-0.016045
80.780,81.1593,-0.016045
80.812,81.1593,-0.016045
80.842,81.1593,-0.016045
80.874,81.1593,-0.016045
80.906,81.1593,-0.015075
80.937,81.1593,-0.015075
80.968,81.1593,-0.015075
80.999,81.1593,-0.015075
81.030,81.1593,-0.015075
81.061,81.1593,-0.015075
81.092,81.1593,-0.015075
81.123,81.1593,-0.014360
81.154,81.1593,-0.014360
81.185,81.1593,-0.014360
81.216,81.1593,-0.014360
81.247,81.1593,-0.014360
81.278,81.1593,-0.014360
81.309,81.1593,-0.014360
81.339,81.1593,-0.014360
81.370,81.1593,-0.013702
81.400,81.1593,-0.013702
81.432,81.1593,-0.013702
81.462,81.1593,-0.013702
81.494,81.1593,-0.013702
81.525,81.1593,-0.013702
81.556,81.1593,-0.013702
81.588,81.1593,-0.013702
81.618,81.1593,-0.013118
81.650,81.1593,-0.013118
81.682,81.1593,-0.013118
81.714,81.1593,-0.013118
81.743,81.1593,-0.013118
81.775,81.1593,-0.013118
81.805,81.1593,-0.013118
81.837,81.1593,-0.013118
81.868,81.1593,-0.012638
81.899,81.1593,-0.012638
81.931,81.1593,-0.012638
81.960,81.1593,-0.012638
81.990,81.1593,-0.012638
82.020,81.1593,-0.012638
82.051,81.1593,-0.012638
82.082,81.1593,-0.012638
82.116,81.1593,-0.012638
82.145,81.1593,-0.012638
82.179,81.1593,-0.012290
82.206,81.1593,-0.012290
82.239,81.1593,-0.012290
82.269,81.1593,-0.012290
82.300,81.1593,-0.012290
82.331,81.1593,-0.012290
82.362,81.1593,-0.012290
82.392,81.1593,-0.011998
82.423,81.1593,-0.011998
82.455,81.1593,-0.011998
82.486,81.1593,-0.011998
82.517,81.1593,-0.011998
82.548,81.1593,-0.011998
82.579,81.1593,-0.011998
82.610,81.1593,-0.011998
82.640,81.1593,-0.011998
82.672,81.1593,-0.011697
82.703,81.1593,-0.011697
82.733,81.1593,-0.011697
82.766,81.1593,-0.011697
82.797,81.1593,-0.011697
82.827,81.1593,-0.011697
82.858,81.1593,-0.011697
82.890,81.1593,-0.011697
82.920,81.1593,-0.011415
82.952,81.1593,-0.011415
82.984,81.1593,-0.011415
83.012,81.1593,-0.011415
83.043,81.1593,-0.011415
83.074,81.1593,-0.011415
83.104,81.1593,-0.011415
83.135,81.1593,-0.011151
83.166,81.1593,-0.011151
83.197,81.1593,-0.011151
83.228,81.1593,-0.011151
83.258,81.1593,-0.011151
83.290,81.1593,-0.011151
83.321,81.1593,-0.011151
83.352,81.1593,-0.011151
83.383,81.1593,-0.011151
83.413,81.1593,-0.010944
83.445,81.1593,-0.010944
83.475,81.1593,-0.010944
83.507,81.1593,-0.010944
83.537,81.1593,-0.010944
83.570,81.1593,-0.010944
83.598,81.1593,-0.010944
83.629,81.1593,-0.010737
83.661,81.1593,-0.010737
83.692,81.1593,-0.010737
83.722,81.1593,-0.010737
83.756,81.1593,-0.010737
83.785,81.1593,-0.010737
83.816,81.1593,-0.010737
83.847,81.1593,-0.010737
83.878,81.1593,-0.010540
83.909,81.1593,-0.010540
83.944,81.1593,-0.010540
83.971,81.1593,-0.010540
84.002,81.1593,-0.010540
84.037,81.1593,-0.010540
84.064,81.1593,-0.010540
84.097,81.1593,-0.010540
84.125,81.1593,-0.010540
84.156,81.1593,-0.010342
84.188,81.1593,-0.010342
84.219,81.1592,-0.010342
84.250,81.1585,-0.010342
84.281,81.1568,-0.010342
84.313,81.1546,-0.010342
84.344,81.1516,-0.010342
84.375,81.1478,-0.010173
84.405,81.1436,-0.010173
84.437,81.1384,-0.010173
84.467,81.1325,-0.010173
84.498,81.1260,-0.010173
84.529,81.1188,-0.010173
84.560,81.1105,-0.010173
84.591,81.1018,-0.010173
84.622,81.0922,-0.010173
84.653,81.0821,-0.008065
84.684,81.0710,-0.008065
84.716,81.0591,-0.008065
84.747,81.0465,-0.008065
84.779,81.0331,-0.008065
84.809,81.0193,-0.008065
84.840,81.0048,-0.008065
84.872,80.9888,-0.001543
84.903,80.9729,-0.001543
84.934,80.9562,-0.001543
84.965,80.9383,-0.001543
84.995,80.9210,-0.001543
85.026,80.9020,-0.001543
85.057,80.8818,-0.001543
85.088,80.8617,-0.001543
85.118,80.8403,0.007142
85.150,80.8189,0.007142
85.181,80.7954,0.007142
85.212,80.7724,0.007142
85.242,80.7487,0.007142
85.273,80.7249,0.007142
85.304,80.6981,0.007142
85.335,80.6724,0.007142
85.366,80.6446,0.014219
85.397,80.6178,0.014219
85.428,80.5898,0.014219
85.459,80.5607,0.014219
85.490,80.5307,0.014219
85.521,80.4994,0.014219
85.552,80.4680,0.014219
85.583,80.4360,0.014219
85.614,80.4040,0.014219
85.645,80.3708,0.018896
85.676,80.3361,0.018896
85.707,80.3008,0.018896
85.738,80.2647,0.018896
85.768,80.2296,0.018896
85.799,80.1931,0.018896
85.833,80.1508,0.018896
85.861,80.1158,0.018896
85.893,80.0744,0.023705
85.923,80.0374,0.023705
85.955,79.9955,0.023705
85.985,79.9553,0.023705
86.015,79.9124,0.023705
86.047,79.8700,0.023705
86.079,79.8248,0.023705
86.109,79.7799,0.023705
86.140,79.7347,0.031064
86.171,79.6905,0.031064
86.203,79.6421,0.031064
86.234,79.5963,0.031064
86.265,79.5493,0.031064
86.296,79.5016,0.031064
86.330,79.4523,0.031064
86.358,79.4102,0.038658
86.389,79.3631,0.038658
86.420,79.3167,0.038658
86.451,79.2687,0.038658
86.483,79.2221,0.038658
86.514,79.1758,0.038658
86.545,79.1282,0.038658
86.577,79.0818,0.038658
86.608,79.0348,0.038658
86.637,78.9908,0.038658
86.668,78.9450,0.031600
86.699,78.8980,0.031600
86.730,78.8519,0.031600
86.762,78.8036,0.031600
86.793,78.7576,0.031600
86.825,78.7092,0.031600
86.856,78.6631,0.031600
86.886,78.6183,0.016892
86.918,78.5698,0.016892
86.950,78.5228,0.016892
86.981,78.4758,0.016892
87.011,78.4299,0.016892
87.042,78.3836,0.016892
87.073,78.3361,0.016892
87.104,78.2910,0.016892
87.134,78.2458,0.012158
87.165,78.1994,0.012158
87.196,78.1526,0.012158
87.228,78.1041,0.012158
87.259,78.0582,0.012158
87.290,78.0112,0.012158
87.321,77.9651,0.012158
87.353,77.9177,0.012158
87.383,77.8730,0.011556
87.414,77.8257,0.011556
87.445,77.7802,0.011556
87.475,77.7332,0.011556
87.506,77.6875,0.011556
87.539,77.6385,0.011556
87.569,77.5933,0.011556
87.602,77.5442,0.011556
87.632,77.5001,0.011038
87.663,77.4559,0.011038
87.693,77.4128,0.011038
87.725,77.3685,0.011038
87.756,77.3256,0.011038
87.788,77.2838,0.011038
87.818,77.2443,0.011038
87.850,77.2020,0.011038
87.881,77.1632,0.010502
87.912,77.1236,0.010502
87.942,77.0866,0.010502
87.974,77.0482,0.010502
88.005,77.0124,0.010502
88.037,76.9749,0.010502
88.065,76.9428,0.010502
88.096,76.9080,0.010502
88.128,76.8738,0.009994
88.159,76.8408,0.009994
88.190,76.8086,0.009994
88.220,76.7770,0.009994
88.251,76.7472,0.009994
88.283,76.7162,0.009994
88.314,76.6864,0.009994
88.345,76.6580,0.009994
88.376,76.6301,0.009608
88.406,76.6034,0.009608
88.437,76.5757,0.009608
88.462,76.5564,0.009608
88.500,76.5258,0.009608
88.530,76.5026,0.009608
88.561,76.4786,0.009608
88.593,76.4551,0.009608
88.623,76.4335,0.009288
88.655,76.4117,0.009288
88.686,76.3914,0.009288
88.718,76.3713,0.009288
88.748,76.3525,0.009288
88.783,76.3317,0.009288
88.810,76.3163,0.009288
88.840,76.2997,0.009288
88.871,76.2832,0.008968
88.906,76.2657,0.008968
88.933,76.2531,0.008968
88.964,76.2389,0.008968
88.994,76.2259,0.008968
89.025,76.2135,0.008968
89.057,76.2006,0.008968
89.088,76.1898,0.008968
89.119,76.1792,0.008968
89.148,76.1702,0.008611
89.180,76.1608,0.008611
89.211,76.1525,0.008611
89.245,76.1443,0.008611
89.274,76.1381,0.008611
89.305,76.1319,0.008611
89.337,76.1263,0.008611
89.368,76.1217,0.008611
89.398,76.1179,0.008403
89.430,76.1148,0.008403
89.460,76.1123,0.008403
89.490,76.1106,0.008403
89.522,76.1096,0.008403
89.554,76.1093,0.008403
89.584,76.1093,0.008403
89.615,76.1093,0.008403
89.646,76.1093,0.008291
89.677,76.1093,0.008291
89.707,76.1100,0.008291
89.738,76.1113,0.008291
89.769,76.1133,0.008291
89.800,76.1160,0.008291
89.830,76.1196,0.008291
89.861,76.1237,0.008291
89.892,76.1287,0.008102
89.923,76.1343,0.008102
89.955,76.1408,0.008102
89.987,76.1480,0.008102
90.017,76.1558,0.008102
90.047,76.1644,0.008102
90.079,76.1738,0.008102
90.113,76.1850,0.008102
90.141,76.1947,0.008102
90.176,76.2076,0.007961
90.204,76.2186,0.007961
90.235,76.2321,0.007961
90.266,76.2454,0.007961
90.304,76.2637,0.007961
90.344,76.2828,0.007961
90.375,76.2996,0.007961
90.406,76.3162,0.007792
90.438,76.3343,0.007792
90.468,76.3524,0.007792
90.499,76.3719,0.007792
90.530,76.3916,0.007792
90.562,76.4132,0.007792
90.593,76.4340,0.007792
90.625,76.4570,0.007632
90.655,76.4789,0.007632
90.688,76.5050,0.007632
90.713,76.5239,0.007632
90.748,76.5520,0.007632
90.779,76.5783,0.007632
90.813,76.6073,0.007632
90.841,76.6314,0.007632
90.874,76.6619,0.007528
90.903,76.6880,0.007528
90.934,76.7178,0.007528
90.965,76.7482,0.007528
90.996,76.7782,0.007528
91.027,76.8097,0.007528
91.058,76.8414,0.007528
91.088,76.8743,0.007528
91.119,76.9082,0.007528
91.150,76.9420,0.007387
91.181,76.9780,0.007387
91.212,77.0137,0.007387
91.244,77.0512,0.007387
91.275,77.0878,0.007387
91.307,77.1274,0.007387
91.338,77.1659,0.007387
91.368,77.2053,0.007387
91.399,77.2448,0.007218
91.430,77.2871,0.007218
91.461,77.3279,0.007218
91.492,77.3710,0.007218
91.524,77.4142,0.007218
91.555,77.4595,0.007218
91.586,77.5040,0.007218
91.617,77.5490,0.007218
91.648,77.5949,0.007218
91.679,77.6416,0.007133
91.710,77.6885,0.007133
91.741,77.7348,0.007133
91.772,77.7804,0.007133
91.802,77.8269,0.007133
91.834,77.8736,0.007133
91.863,77.9178,0.007133
91.894,77.9635,0.007114
91.925,78.0114,0.007114
91.956,78.0576,0.007114
91.988,78.1061,0.007114
92.019,78.1518,0.007114
92.050,78.1986,0.007114
92.080,78.2438,0.007114
92.111,78.2904,0.007114
92.142,78.3373,0.007048
92.175,78.3864,0.007048
92.204,78.4297,0.007048
92.235,78.4762,0.007048
92.266,78.5235,0.007048
92.297,78.5702,0.007048
92.328,78.6165,0.007048
92.359,78.6614,0.007048
92.390,78.7100,0.006860
92.422,78.7561,0.006860
92.453,78.8034,0.006860
92.484,78.8495,0.006860
92.515,78.8955,0.006860
92.546,78.9418,0.006860
92.577,78.9892,0.006860
92.608,79.0364,0.006860
92.639,79.0819,0.006371
92.670,79.1289,0.006371
92.701,79.1741,0.006371
92.734,79.2260,0.006371
92.762,79.2672,0.006371
92.793,79.3126,0.006371
92.824,79.3588,0.006371
92.855,79.4054,0.006371
92.886,79.4534,0.005430
92.918,79.4999,0.005430
92.952,79.5517,0.005430
92.980,79.5927,0.005430
93.011,79.6404,0.005430
93.043,79.6869,0.005430
93.073,79.7309,0.005430
93.104,79.7755,0.005430
93.135,79.8186,0.005430
93.168,79.8640,0.004122
93.195,79.9026,0.004122
93.226,79.9433,0.004122
93.257,79.9849,0.004122
93.288,80.0245,0.004122
93.320,80.0644,0.004122
93.350,80.1018,0.004122
93.381,80.1401,0.004122
93.412,80.1768,0.002484
93.443,80.2136,0.002484
93.476,80.2518,0.002484
93.506,80.2852,0.002484
93.537,80.3197,0.002484
93.568,80.3533,0.002484
93.600,80.3864,0.002484
93.631,80.4192,0.000649
93.662,80.4510,0.000649
93.694,80.4812,0.000649
93.724,80.5107,0.000649
93.754,80.5391,0.000649
93.786,80.5679,0.000649
93.816,80.5963,0.000649
93.848,80.6228,0.000649
93.879,80.6501,0.000649
93.911,80.6758,-0.001703
93.942,80.7007,-0.001703
93.973,80.7247,-0.001703
94.004,80.7481,-0.001703
94.035,80.7705,-0.001703
94.066,80.7922,-0.001703
94.099,80.8145,-0.001703
94.128,80.8341,-0.005251
94.159,80.8532,-0.005251
94.190,80.8721,-0.005251
94.221,80.8901,-0.005251
94.251,80.9076,-0.005251
94.287,80.9270,-0.005251
94.314,80.9404,-0.005251
94.344,80.9556,-0.005251
94.375,80.9699,-0.005251
94.405,80.9837,-0.010267
94.436,80.9967,-0.010267
94.466,81.0086,-0.010267
94.497,81.0207,-0.010267
94.529,81.0317,-0.010267
94.559,81.0419,-0.010267
94.590,81.0513,-0.010267
94.621,81.0601,-0.015640
94.652,81.0683,-0.015640
94.682,81.0756,-0.015640
94.713,81.0822,-0.015640
94.745,81.0881,-0.015640
94.776,81.0933,-0.015640
94.806,81.0977,-0.015640
94.837,81.1015,-0.015640
94.867,81.1044,-0.019404
94.899,81.1067,-0.019404
94.930,81.1084,-0.019404
94.962,81.1092,-0.019404
94.993,81.1093,-0.019404
95.024,81.1093,-0.019404
95.055,81.1093,-0.019404
95.086,81.1093,-0.019404
95.117,81.1093,-0.019922
95.148,81.1093,-0.019922
95.178,81.1093,-0.019922
95.211,81.1093,-0.019922
95.240,81.1093,-0.019922
95.271,81.1093,-0.019922
95.302,81.1093,-0.019922
95.333,81.1093,-0.019922
95.365,81.1093,-0.018228
95.395,81.1093,-0.018228
95.426,81.1093,-0.018228
95.457,81.1093,-0.018228
95.487,81.1093,-0.018228
95.519,81.1093,-0.018228
95.549,81.1093,-0.018228
95.580,81.1093,-0.018228
95.610,81.1093,-0.018228
95.641,81.1093,-0.016591
95.672,81.1093,-0.016591
95.704,81.1093,-0.016591
95.734,81.1093,-0.016591
95.766,81.1093,-0.016591
95.797,81.1093,-0.016591
95.827,81.1093,-0.016591
