Elapsed Time (s),Position (mm),Force (N)
-0.015,71.9093,0.004366
0.017,71.9093,0.004338
0.047,71.9093,0.004338
0.078,71.9093,0.004338
0.109,71.9093,0.004338
0.141,71.9093,0.004338
0.172,71.9093,0.004338
0.204,71.9093,0.004338
0.233,71.9093,0.004338
0.264,71.9093,0.004338
0.296,71.9093,0.004366
0.326,71.9093,0.004366
0.358,71.9093,0.004366
0.389,71.9093,0.004366
0.422,71.9093,0.004366
0.451,71.9093,0.004366
0.483,71.9093,0.004366
0.512,71.9093,0.004357
0.542,71.9093,0.004357
0.573,71.9093,0.004357
0.604,71.9093,0.004357
0.634,71.9093,0.004357
0.666,71.9093,0.004357
0.697,71.9093,0.004357
0.730,71.9093,0.004357
0.759,71.9093,0.004357
0.790,71.9093,0.004432
0.821,71.9093,0.004432
0.855,71.9093,0.004432
0.884,71.9093,0.004432
0.915,71.9093,0.004432
0.947,71.9093,0.004432
0.972,71.9093,0.004432
1.008,71.9093,0.004432
1.039,71.9093,0.004432
1.070,71.9093,0.004432
1.104,71.9093,0.004432
1.132,71.9093,0.004432
1.167,71.9093,0.004432
1.194,71.9093,0.004432
1.225,71.9093,0.004432
1.256,71.9093,0.004366
1.288,71.9093,0.004366
1.320,71.9093,0.004366
1.350,71.9093,0.004366
1.382,71.9093,0.004366
1.413,71.9093,0.004366
1.445,71.9093,0.004366
1.476,71.9093,0.004366
1.505,71.9093,0.004366
1.536,71.9093,0.004376
1.567,71.9093,0.004376
1.598,71.9093,0.004376
1.630,71.9093,0.004376
1.661,71.9093,0.004376
1.692,71.9093,0.004376
1.726,71.9093,0.004376
1.754,71.9093,0.004404
1.786,71.9093,0.004404
1.817,71.9093,0.004404
1.848,71.9093,0.004404
1.879,71.9093,0.004404
1.910,71.9093,0.004404
1.941,71.9093,0.004404
1.973,71.9093,0.004404
2.004,71.9093,0.004404
2.036,71.9093,0.004442
2.067,71.9093,0.004442
2.097,71.9093,0.004442
2.128,71.9093,0.004442
2.159,71.9093,0.004442
2.190,71.9093,0.004442
2.221,71.9093,0.004442
2.252,71.9093,0.004395
2.283,71.9093,0.004395
2.314,71.9093,0.004395
2.344,71.9093,0.004395
2.376,71.9093,0.004395
2.406,71.9093,0.004395
2.438,71.9093,0.004395
2.475,71.9093,0.004395
2.516,71.9093,0.004366
2.546,71.9093,0.004366
2.577,71.9093,0.004366
2.609,71.9093,0.004366
2.639,71.9093,0.004366
2.670,71.9093,0.004366
2.703,71.9093,0.004366
2.732,71.9093,0.004366
2.763,71.9093,0.004366
2.794,71.9093,0.004385
2.824,71.9093,0.004385
2.855,71.9093,0.004385
2.886,71.9093,0.004385
2.917,71.9093,0.004385
2.950,71.9093,0.004385
2.980,71.9093,0.004385
3.013,71.9093,0.004385
3.043,71.9093,0.004366
3.078,71.9093,0.004366
3.105,71.9093,0.004366
3.138,71.9093,0.004366
3.169,71.9093,0.004366
3.198,71.9093,0.004366
3.230,71.9093,0.004366
3.262,71.9093,0.004385
3.292,71.9093,0.004385
3.322,71.9093,0.004385
3.354,71.9093,0.004385
3.385,71.9093,0.004385
3.416,71.9093,0.004385
3.448,71.9093,0.004385
3.479,71.9093,0.004385
3.513,71.9093,0.004385
3.542,71.9093,0.004385
3.573,71.9093,0.004385
3.605,71.9093,0.004385
3.635,71.9093,0.004385
3.665,71.9093,0.004385
3.696,71.9093,0.004385
3.727,71.9093,0.004385
3.758,71.9093,0.004385
3.790,71.9093,0.004423
3.820,71.9093,0.004423
3.851,71.9093,0.004423
3.882,71.9093,0.004423
3.912,71.9093,0.004423
3.944,71.9093,0.004423
3.975,71.9093,0.004423
4.007,71.9093,0.004423
4.037,71.9093,0.004423
4.069,71.9089,0.004423
4.099,71.9079,0.004423
4.131,71.9061,0.004423
4.161,71.9035,0.004423
4.193,71.9002,0.004423
4.224,71.8963,0.004423
4.255,71.8914,0.004423
4.286,71.8860,0.004470
4.318,71.8795,0.004470
4.349,71.8726,0.004470
4.380,71.8650,0.004470
4.411,71.8565,0.004470
4.443,71.8473,0.004470
4.473,71.8377,0.004470
4.504,71.8271,0.004470
4.534,71.8160,0.004508
4.566,71.8037,0.004508
4.596,71.7910,0.004508
4.627,71.7777,0.004508
4.658,71.7637,0.004508
4.690,71.7483,0.004508
4.721,71.7328,0.004508
4.753,71.7154,0.004508
4.784,71.6988,0.004461
4.814,71.6808,0.004461
4.845,71.6630,0.004461
4.876,71.6433,0.004461
4.908,71.6227,0.004461
4.939,71.6017,0.004461
4.970,71.5804,0.004461
5.001,71.5582,0.004498
5.031,71.5357,0.004498
5.063,71.5114,0.004498
5.093,71.4880,0.004498
5.124,71.4624,0.004498
5.156,71.4355,0.004498
5.187,71.4096,0.004498
5.218,71.3818,0.004498
5.249,71.3537,0.004498
5.280,71.3253,0.004498
5.311,71.2952,0.004498
5.342,71.2654,0.004498
5.374,71.2336,0.004498
5.405,71.2017,0.004498
5.436,71.1691,0.004498
5.467,71.1360,0.004498
5.497,71.1024,0.004498
5.528,71.0685,0.004442
5.559,71.0323,0.004442
5.593,70.9944,0.004442
5.621,70.9603,0.004442
5.652,70.9234,0.004442
5.682,70.8860,0.004442
5.713,70.8467,0.004442
5.744,70.8081,0.004442
5.783,70.7554,0.004442
5.820,70.7064,0.004479
5.852,70.6633,0.004479
5.883,70.6214,0.004479
5.914,70.5769,0.004479
5.945,70.5331,0.004479
5.976,70.4872,0.004479
6.007,70.4418,0.004479
6.038,70.3938,0.004498
6.070,70.3466,0.004498
6.101,70.2983,0.004498
6.132,70.2491,0.004498
6.163,70.1999,0.004498
6.193,70.1500,0.004498
6.225,70.0985,0.004498
6.257,70.0462,0.004498
6.288,69.9931,0.004489
6.319,69.9407,0.004489
6.350,69.8870,0.004489
6.381,69.8307,0.004489
6.411,69.7776,0.004489
6.442,69.7215,0.004489
6.474,69.6640,0.004489
6.505,69.6064,0.004489
6.537,69.5463,0.004555
6.567,69.4886,0.004555
6.598,69.4282,0.004555
6.629,69.3685,0.004555
6.661,69.3062,0.004555
6.691,69.2482,0.004555
6.723,69.1892,0.004555
6.753,69.1319,0.004555
6.786,69.0731,0.004413
6.816,69.0157,0.004413
6.847,68.9611,0.004413
6.878,68.9066,0.004413
6.908,68.8532,0.004413
6.941,68.7978,0.004413
6.971,68.7459,0.004413
7.003,68.6919,0.004413
7.034,68.6418,0.004225
7.068,68.5842,0.004225
7.095,68.5427,0.004225
7.127,68.4921,0.004225
7.158,68.4441,0.004225
7.188,68.3967,0.004225
7.219,68.3488,0.004225
7.250,68.3040,0.004225
7.282,68.2577,0.004188
7.312,68.2135,0.004188
7.343,68.1700,0.004188
7.374,68.1258,0.004188
7.405,68.0840,0.004188
7.436,68.0416,0.004188
7.466,68.0019,0.004188
7.497,67.9611,0.004188
7.528,67.9229,0.004197
7.559,67.8831,0.004197
7.590,67.8458,0.004197
7.621,67.8068,0.004197
7.653,67.7700,0.004197
7.685,67.7325,0.004197
7.713,67.6997,0.004197
7.744,67.6655,0.004197
7.774,67.6327,0.004244
7.805,67.5995,0.004244
7.837,67.5660,0.004244
7.869,67.5334,0.004244
7.899,67.5036,0.004244
7.931,67.4723,0.004244
7.962,67.4432,0.004244
7.993,67.4142,0.004244
8.023,67.3870,0.004244
8.054,67.3591,0.004235
8.085,67.3334,0.004235
8.116,67.3068,0.004235
8.147,67.2823,0.004235
8.178,67.2572,0.004235
8.209,67.2340,0.004235
8.241,67.2099,0.004235
8.273,67.1872,0.004225
8.303,67.1659,0.004225
8.333,67.1463,0.004225
8.365,67.1255,0.004225
8.396,67.1067,0.004225
8.432,67.0843,0.004225
8.458,67.0694,0.004225
8.490,67.0519,0.004225
8.521,67.0359,0.004282
8.552,67.0203,0.004282
8.582,67.0055,0.004282
8.613,66.9910,0.004282
8.645,66.9776,0.004282
8.676,66.9645,0.004282
8.707,66.9526,0.004282
8.737,66.9414,0.004282
8.769,66.9310,0.004319
8.801,66.9208,0.004319
8.831,66.9119,0.004319
8.863,66.9031,0.004319
8.893,66.8958,0.004319
8.925,66.8886,0.004319
8.956,66.8826,0.004319
8.986,66.8772,0.004319
9.018,66.8724,0.004235
9.048,66.8684,0.004235
9.080,66.8650,0.004235
9.112,66.8625,0.004235
9.143,66.8608,0.004235
9.176,66.8595,0.004235
9.204,66.8593,0.004235
9.235,66.8593,0.004235
9.265,66.8593,0.004235
9.296,66.8593,0.004235
9.327,66.8593,0.004235
9.359,66.8593,0.004235
9.391,66.8593,0.004235
9.423,66.8593,0.004235
9.454,66.8593,0.004235
9.485,66.8593,0.004235
9.515,66.8593,0.004235
9.546,66.8593,0.004319
9.577,66.8593,0.004319
9.607,66.8593,0.004319
9.639,66.8593,0.004319
9.670,66.8593,0.004319
9.702,66.8593,0.004319
9.733,66.8593,0.004319
9.764,66.8593,0.004319
9.796,66.8593,0.004376
9.827,66.8593,0.004376
9.858,66.8593,0.004376
9.887,66.8593,0.004376
9.918,66.8598,0.004376
9.950,66.8610,0.004376
9.981,66.8630,0.004376
10.012,66.8656,0.004376
10.043,66.8688,0.004385
10.076,66.8733,0.004385
10.104,66.8779,0.004385
10.136,66.8835,0.004385
10.167,66.8898,0.004385
10.198,66.8968,0.004385
10.228,66.9044,0.004385
10.262,66.9139,0.004385
10.291,66.9224,0.004301
10.322,66.9325,0.004301
10.354,66.9433,0.004301
10.384,66.9544,0.004301
10.416,66.9668,0.004301
10.447,66.9801,0.004301
10.480,66.9947,0.004301
10.509,67.0078,0.004301
10.540,67.0226,0.004235
10.571,67.0389,0.004235
10.602,67.0548,0.004235
10.634,67.0730,0.004235
10.665,67.0906,0.004235
10.697,67.1100,0.004235
10.727,67.1289,0.004235
10.758,67.1493,0.004235
10.787,67.1686,0.004263
10.819,67.1909,0.004263
10.850,67.2139,0.004263
10.881,67.2366,0.004263
10.913,67.2604,0.004263
10.944,67.2852,0.004263
10.974,67.3104,0.004263
11.005,67.3363,0.004263
11.036,67.3620,0.004263
11.066,67.3899,0.004263
11.097,67.4170,0.004263
11.129,67.4470,0.004263
11.160,67.4761,0.004263
11.191,67.5077,0.004263
11.223,67.5386,0.004263
11.254,67.5712,0.004263
11.286,67.6039,0.004263
11.316,67.6369,0.004263
11.347,67.6703,0.004263
11.377,67.7034,0.004263
11.408,67.7395,0.004263
11.440,67.7766,0.004263
11.471,67.8140,0.004263
11.502,67.8512,0.004253
11.533,67.8896,0.004253
11.564,67.9286,0.004253
11.595,67.9684,0.004253
11.625,68.0092,0.004253
11.657,68.0502,0.004253
11.687,68.0923,0.004253
11.719,68.1348,0.004253
11.750,68.1797,0.004253
11.782,68.2233,0.004253
11.813,68.2699,0.004253
11.844,68.3150,0.004253
11.876,68.3623,0.004253
11.906,68.4095,0.004253
11.937,68.4566,0.004253
11.968,68.5057,0.004253
11.999,68.5541,0.004253
12.030,68.6036,0.004253
12.060,68.6535,0.004253
12.091,68.7058,0.004253
12.123,68.7574,0.004253
12.159,68.8206,0.004253
12.185,68.8653,0.004253
12.215,68.9182,0.004253
12.247,68.9739,0.004253
12.279,69.0329,0.004216
12.308,69.0860,0.004216
12.340,69.1432,0.004216
12.370,69.1996,0.004216
12.401,69.2584,0.004216
12.433,69.3202,0.004216
12.463,69.3788,0.004216
12.493,69.4375,0.004216
12.525,69.4981,0.004216
12.555,69.5546,0.004253
12.587,69.6130,0.004253
12.617,69.6698,0.004253
12.648,69.7237,0.004253
12.678,69.7778,0.004253
12.709,69.8338,0.004253
12.740,69.8863,0.004253
12.770,69.9392,0.004253
12.801,69.9898,0.004413
12.832,70.0434,0.004413
12.864,70.0940,0.004413
12.895,70.1460,0.004413
12.925,70.1929,0.004413
12.956,70.2429,0.004413
12.987,70.2912,0.004413
13.020,70.3418,0.004470
13.049,70.3849,0.004470
13.080,70.4317,0.004470
13.112,70.4769,0.004470
13.143,70.5223,0.004470
13.176,70.5681,0.004470
13.205,70.6089,0.004470
13.237,70.6521,0.004470
13.267,70.6940,0.004461
13.300,70.7350,0.004461
13.331,70.7756,0.004461
13.361,70.8129,0.004461
13.391,70.8519,0.004461
13.423,70.8909,0.004461
13.453,70.9266,0.004461
13.485,70.9635,0.004461
13.516,71.0002,0.004517
13.547,71.0345,0.004517
13.578,71.0694,0.004517
13.609,71.1025,0.004517
13.639,71.1349,0.004517
13.670,71.1665,0.004517
13.701,71.1988,0.004517
13.733,71.2291,0.004517
13.764,71.2599,0.004526
13.796,71.2888,0.004526
13.827,71.3176,0.004526
13.858,71.3454,0.004526
13.889,71.3728,0.004526
13.920,71.3989,0.004526
13.950,71.4239,0.004526
13.981,71.4485,0.004526
14.011,71.4722,0.004526
14.043,71.4958,0.004526
14.073,71.5181,0.004526
14.105,71.5407,0.004526
14.137,71.5618,0.004526
14.168,71.5832,0.004526
14.198,71.6013,0.004526
14.229,71.6211,0.004526
14.260,71.6394,0.004508
14.292,71.6570,0.004508
14.323,71.6740,0.004508
14.353,71.6894,0.004508
14.385,71.7051,0.004508
14.417,71.7201,0.004508
14.448,71.7342,0.004508
14.478,71.7468,0.004508
14.509,71.7592,0.004470
14.541,71.7714,0.004470
14.572,71.7822,0.004470
14.602,71.7921,0.004470
14.633,71.8018,0.004470
14.665,71.8106,0.004470
14.694,71.8183,0.004470
14.725,71.8257,0.004470
14.756,71.8324,0.004461
14.788,71.8383,0.004461
14.819,71.8434,0.004461
14.850,71.8480,0.004461
14.880,71.8516,0.004461
14.911,71.8546,0.004461
14.943,71.8568,0.004461
14.974,71.8584,0.004461
15.005,71.8592,0.004461
15.035,71.8593,0.004442
15.065,71.8593,0.004442
15.096,71.8593,0.004442
15.128,71.8593,0.004442
15.158,71.8593,0.004442
15.189,71.8593,0.004442
15.219,71.8593,0.004442
15.250,71.8593,0.004366
15.282,71.8593,0.004366
15.313,71.8593,0.004366
15.344,71.8593,0.004366
15.376,71.8593,0.004366
15.407,71.8593,0.004366
15.439,71.8593,0.004366
15.470,71.8593,0.004366
15.502,71.8593,0.004366
15.533,71.8593,0.004404
15.565,71.8593,0.004404
15.596,71.8593,0.004404
15.627,71.8593,0.004404
15.658,71.8593,0.004404
15.690,71.8593,0.004404
15.721,71.8593,0.004404
15.753,71.8593,0.004404
15.783,71.8593,0.004404
15.815,71.8593,0.004404
15.845,71.8593,0.004404
15.877,71.8593,0.004404
15.908,71.8593,0.004404
15.939,71.8593,0.004404
15.971,71.8593,0.004404
16.001,71.8593,0.004404
16.033,71.8593,0.004348
16.064,71.8593,0.004348
16.095,71.8593,0.004348
16.126,71.8593,0.004348
16.158,71.8593,0.004348
16.188,71.8593,0.004348
16.219,71.8593,0.004348
16.250,71.8593,0.004348
16.282,71.8593,0.004385
16.313,71.8593,0.004385
16.344,71.8593,0.004385
16.375,71.8593,0.004385
16.405,71.8593,0.004385
16.436,71.8593,0.004385
16.467,71.8593,0.004385
16.498,71.8593,0.004385
16.528,71.8593,0.004395
16.560,71.8593,0.004395
16.591,71.8593,0.004395
16.622,71.8593,0.004395
16.654,71.8593,0.004395
16.685,71.8593,0.004395
16.718,71.8593,0.004395
16.749,71.8593,0.004357
16.778,71.8593,0.004357
16.809,71.8593,0.004357
16.840,71.8593,0.004357
16.871,71.8593,0.004357
16.902,71.8593,0.004357
16.933,71.8593,0.004357
16.964,71.8593,0.004357
16.994,71.8593,0.004357
17.025,71.8593,0.004357
17.056,71.8593,0.004348
17.089,71.8593,0.004348
17.118,71.8593,0.004348
17.150,71.8593,0.004348
17.180,71.8593,0.004348
17.211,71.8593,0.004348
17.242,71.8593,0.004348
17.274,71.8593,0.004348
17.304,71.8593,0.004376
17.335,71.8593,0.004376
17.365,71.8593,0.004376
17.395,71.8593,0.004376
17.427,71.8593,0.004376
17.457,71.8593,0.004376
17.488,71.8593,0.004376
17.520,71.8593,0.004376
17.550,71.8593,0.004366
17.583,71.8593,0.004366
17.614,71.8593,0.004366
17.645,71.8593,0.004366
17.676,71.8593,0.004366
17.707,71.8593,0.004366
17.738,71.8593,0.004366
17.768,71.8593,0.004366
17.798,71.8593,0.004366
17.829,71.8593,0.004395
17.860,71.8593,0.004395
17.891,71.8593,0.004395
17.922,71.8593,0.004395
17.953,71.8593,0.004395
17.984,71.8593,0.004395
18.015,71.8593,0.004395
18.046,71.8593,0.004395
18.077,71.8593,0.004395
18.108,71.8593,0.004395
18.139,71.8593,0.004395
18.170,71.8593,0.004395
18.202,71.8593,0.004395
18.233,71.8593,0.004395
18.266,71.8593,0.004395
18.295,71.8593,0.004366
18.327,71.8593,0.004366
18.358,71.8593,0.004366
18.390,71.8593,0.004366
18.419,71.8593,0.004366
18.450,71.8593,0.004366
18.482,71.8593,0.004366
18.511,71.8593,0.004395
18.542,71.8593,0.004395
18.573,71.8593,0.004395
18.604,71.8593,0.004395
18.635,71.8593,0.004395
18.668,71.8593,0.004395
18.696,71.8593,0.004395
18.727,71.8593,0.004395
18.757,71.8593,0.004395
18.788,71.8593,0.004404
18.820,71.8593,0.004404
18.851,71.8593,0.004404
18.882,71.8593,0.004404
18.914,71.8593,0.004404
18.944,71.8593,0.004404
18.975,71.8593,0.004404
19.007,71.8593,0.004376
19.037,71.8593,0.004376
19.069,71.8593,0.004376
19.100,71.8593,0.004376
19.131,71.8593,0.004376
19.162,71.8593,0.004376
19.193,71.8593,0.004376
19.225,71.8593,0.004376
19.256,71.8593,0.004395
19.286,71.8592,0.004395
19.318,71.8584,0.004395
19.349,71.8568,0.004395
19.380,71.8547,0.004395
19.410,71.8517,0.004395
19.442,71.8481,0.004395
19.474,71.8434,0.004395
19.505,71.8382,0.004498
19.537,71.8320,0.004498
19.569,71.8254,0.004498
19.600,71.8178,0.004498
19.631,71.8097,0.004498
19.661,71.8009,0.004498
19.693,71.7912,0.004498
19.724,71.7812,0.004498
19.756,71.7699,0.004489
19.787,71.7580,0.004489
19.819,71.7450,0.004489
19.849,71.7322,0.004489
19.880,71.7179,0.004489
19.910,71.7042,0.004489
19.943,71.6878,0.004489
19.973,71.6717,0.004489
20.004,71.6550,0.004413
20.035,71.6374,0.004413
20.066,71.6188,0.004413
20.098,71.5995,0.004413
20.128,71.5798,0.004413
20.159,71.5598,0.004413
20.191,71.5377,0.004413
20.222,71.5160,0.004413
20.254,71.4927,0.004413
20.284,71.4694,0.004442
20.316,71.4451,0.004442
20.347,71.4199,0.004442
20.376,71.3951,0.004442
20.407,71.3692,0.004442
20.439,71.3404,0.004442
20.467,71.3163,0.004442
20.501,71.2851,0.004461
20.532,71.2554,0.004461
20.562,71.2265,0.004461
20.594,71.1958,0.004461
20.624,71.1649,0.004461
20.656,71.1318,0.004461
20.687,71.0983,0.004461
20.719,71.0646,0.004461
20.749,71.0301,0.004489
20.781,70.9950,0.004489
20.811,70.9591,0.004489
20.842,70.9238,0.004489
20.873,70.8857,0.004489
20.904,70.8486,0.004489
20.935,70.8081,0.004489
20.967,70.7689,0.004489
20.999,70.7272,0.004489
21.030,70.6867,0.004489
21.060,70.6449,0.004489
21.091,70.6032,0.004489
21.123,70.5584,0.004489
21.156,70.5102,0.004489
21.185,70.4707,0.004489
21.216,70.4256,0.004489
21.246,70.3797,0.004489
21.278,70.3323,0.004461
21.309,70.2854,0.004461
21.340,70.2368,0.004461
21.370,70.1895,0.004461
21.401,70.1401,0.004461
21.431,70.0918,0.004461
21.462,70.0385,0.004461
21.492,69.9880,0.004461
21.524,69.9353,0.004470
21.555,69.8821,0.004470
21.587,69.8259,0.004470
21.616,69.7755,0.004470
21.647,69.7190,0.004470
21.678,69.6626,0.004470
21.709,69.6068,0.004470
21.740,69.5484,0.004470
21.772,69.4883,0.004470
21.802,69.4319,0.004517
21.833,69.3718,0.004517
21.863,69.3132,0.004517
21.894,69.2520,0.004517
21.925,69.1944,0.004517
21.956,69.1353,0.004517
21.986,69.0792,0.004517
22.018,69.0204,0.004517
22.048,68.9658,0.004517
22.079,68.9097,0.004404
22.110,68.8566,0.004404
22.141,68.8020,0.004404
22.173,68.7452,0.004404
22.204,68.6932,0.004404
22.235,68.6415,0.004404
22.266,68.5908,0.004404
22.297,68.5401,0.004282
22.328,68.4895,0.004282
22.358,68.4427,0.004282
22.389,68.3935,0.004282
22.419,68.3477,0.004282
22.455,68.2935,0.004282
22.482,68.2534,0.004282
22.512,68.2093,0.004282
22.543,68.1653,0.004310
22.574,68.1210,0.004310
22.603,68.0794,0.004310
22.637,68.0329,0.004310
22.668,67.9901,0.004310
22.699,67.9503,0.004310
22.729,67.9110,0.004310
22.760,67.8718,0.004253
22.790,67.8333,0.004253
22.821,67.7947,0.004253
22.852,67.7574,0.004253
22.883,67.7206,0.004253
22.914,67.6858,0.004253
22.944,67.6506,0.004253
22.975,67.6166,0.004253
23.007,67.5809,0.004282
23.038,67.5479,0.004282
23.072,67.5123,0.004282
23.100,67.4843,0.004282
23.129,67.4550,0.004282
23.162,67.4231,0.004282
23.194,67.3926,0.004282
23.225,67.3632,0.004282
23.255,67.3364,0.004272
23.286,67.3090,0.004272
23.317,67.2828,0.004272
23.348,67.2570,0.004272
23.379,67.2314,0.004272
23.410,67.2074,0.004272
23.441,67.1829,0.004272
23.473,67.1598,0.004272
23.504,67.1372,0.004272
23.535,67.1159,0.004188
23.566,67.0951,0.004188
23.597,67.0756,0.004188
23.628,67.0561,0.004188
23.655,67.0400,0.004188
23.689,67.0198,0.004188
23.721,67.0027,0.004188
23.752,66.9859,0.004197
23.783,66.9701,0.004197
23.814,66.9550,0.004197
23.845,66.9410,0.004197
23.876,66.9279,0.004197
23.907,66.9150,0.004197
23.938,66.9027,0.004197
23.969,66.8918,0.004197
23.999,66.8814,0.004197
24.029,66.8717,0.004225
24.060,66.8625,0.004225
24.091,66.8543,0.004225
24.122,66.8463,0.004225
24.154,66.8393,0.004225
24.185,66.8328,0.004225
24.215,66.8277,0.004225
24.246,66.8227,0.004225
24.278,66.8187,0.004235
24.309,66.8153,0.004235
24.341,66.8127,0.004235
24.373,66.8108,0.004235
24.402,66.8097,0.004235
24.432,66.8093,0.004235
24.463,66.8093,0.004235
24.494,66.8093,0.004216
24.526,66.8093,0.004216
24.557,66.8093,0.004216
24.588,66.8094,0.004216
24.620,66.8103,0.004216
24.651,66.8119,0.004216
24.682,66.8143,0.004216
24.713,66.8174,0.004216
24.745,66.8212,0.004216
24.777,66.8258,0.004244
24.807,66.8309,0.004244
24.839,66.8372,0.004244
24.869,66.8437,0.004244
24.901,66.8514,0.004244
24.933,66.8597,0.004244
24.964,66.8688,0.004244
24.994,66.8780,0.004244
25.026,66.8884,0.004244
25.055,66.8992,0.004272
25.086,66.9110,0.004272
25.117,66.9237,0.004272
25.147,66.9364,0.004272
25.179,66.9508,0.004272
25.209,66.9650,0.004272
25.241,66.9808,0.004272
25.271,66.9967,0.004263
25.302,67.0133,0.004263
25.333,67.0312,0.004263
25.364,67.0493,0.004263
25.395,67.0688,0.004263
25.427,67.0882,0.004263
25.457,67.1087,0.004263
25.488,67.1297,0.004263
25.520,67.1521,0.004263
25.551,67.1751,0.004235
25.582,67.1985,0.004235
25.613,67.2222,0.004235
25.643,67.2474,0.004235
25.674,67.2723,0.004235
25.705,67.2990,0.004235
25.736,67.3260,0.004235
25.766,67.3530,0.004235
25.797,67.3806,0.004235
25.828,67.4106,0.004216
25.860,67.4410,0.004216
25.891,67.4725,0.004216
25.923,67.5038,0.004216
25.954,67.5367,0.004216
25.985,67.5690,0.004216
26.016,67.6034,0.004216
26.046,67.6364,0.004272
26.078,67.6729,0.004272
26.109,67.7077,0.004272
26.141,67.7456,0.004272
26.171,67.7819,0.004272
26.203,67.8216,0.004272
26.234,67.8594,0.004272
26.264,67.9001,0.004272
26.295,67.9387,0.004301
26.326,67.9795,0.004301
26.357,68.0199,0.004301
26.388,68.0631,0.004301
26.420,68.1070,0.004301
26.450,68.1506,0.004301
26.481,68.1948,0.004301
26.507,68.2326,0.004301
26.543,68.2856,0.004244
26.577,68.3369,0.004244
26.605,68.3808,0.004244
26.637,68.4299,0.004244
26.668,68.4781,0.004244
26.700,68.5295,0.004244
26.729,68.5769,0.004244
26.760,68.6290,0.004244
26.791,68.6803,0.004216
26.824,68.7358,0.004216
26.853,68.7853,0.004216
26.884,68.8396,0.004216
26.915,68.8950,0.004216
26.946,68.9486,0.004216
26.977,69.0074,0.004216
27.008,69.0629,0.004216
27.046,69.1338,0.004216
27.086,69.2103,0.004244
27.117,69.2686,0.004244
27.147,69.3267,0.004244
27.178,69.3863,0.004244
27.210,69.4468,0.004244
27.240,69.5050,0.004244
27.272,69.5634,0.004244
27.303,69.6202,0.004310
27.334,69.6755,0.004310
27.364,69.7298,0.004310
27.395,69.7846,0.004310
27.426,69.8383,0.004310
27.457,69.8923,0.004310
27.489,69.9449,0.004310
27.520,69.9987,0.004432
27.553,70.0513,0.004432
27.582,70.1000,0.004432
27.612,70.1469,0.004432
27.644,70.1984,0.004432
27.676,70.2458,0.004432
27.707,70.2945,0.004432
27.740,70.3427,0.004432
27.769,70.3865,0.004498
27.800,70.4318,0.004498
27.832,70.4767,0.004498
27.863,70.5208,0.004498
27.894,70.5633,0.004498
27.925,70.6069,0.004498
27.957,70.6483,0.004498
27.986,70.6872,0.004498
28.018,70.7277,0.004508
28.050,70.7683,0.004508
28.081,70.8077,0.004508
28.111,70.8449,0.004508
28.143,70.8820,0.004508
28.174,70.9190,0.004508
28.205,70.9541,0.004508
28.236,70.9894,0.004508
28.267,71.0231,0.004508
28.298,71.0572,0.004526
28.328,71.0886,0.004526
28.359,71.1211,0.004526
28.391,71.1526,0.004526
28.421,71.1830,0.004526
28.452,71.2120,0.004526
28.484,71.2427,0.004526
28.512,71.2683,0.004526
28.547,71.2991,0.004526
28.578,71.3263,0.004517
28.609,71.3523,0.004517
28.641,71.3786,0.004517
28.672,71.4028,0.004517
28.703,71.4268,0.004517
28.735,71.4504,0.004517
28.766,71.4732,0.004517
28.797,71.4953,0.004470
28.828,71.5159,0.004470
28.858,71.5357,0.004470
28.889,71.5553,0.004470
28.920,71.5740,0.004470
28.951,71.5927,0.004470
28.981,71.6094,0.004470
29.012,71.6258,0.004470
29.043,71.6416,0.004470
29.074,71.6571,0.004442
29.104,71.6710,0.004442
29.135,71.6848,0.004442
29.165,71.6976,0.004442
29.198,71.7108,0.004442
29.228,71.7219,0.004442
29.259,71.7329,0.004442
29.290,71.7431,0.004479
29.320,71.7525,0.004479
29.351,71.7612,0.004479
29.382,71.7690,0.004479
29.413,71.7763,0.004479
29.445,71.7830,0.004479
29.475,71.7889,0.004479
29.506,71.7938,0.004479
29.537,71.7984,0.004517
29.568,71.8019,0.004517
29.598,71.8047,0.004517
29.629,71.8070,0.004517
29.662,71.8085,0.004517
29.691,71.8092,0.004517
29.721,71.8093,0.004517
29.752,71.8093,0.004517
29.783,71.8093,0.004498
29.815,71.8093,0.004498
29.845,71.8093,0.004498
29.876,71.8093,0.004498
29.907,71.8093,0.004498
29.938,71.8093,0.004498
29.969,71.8093,0.004498
30.000,71.8093,0.004498
30.031,71.8093,0.004348
30.064,71.8093,0.004348
30.093,71.8093,0.004348
30.125,71.8093,0.004348
30.156,71.8093,0.004348
30.186,71.8093,0.004348
30.217,71.8093,0.004348
30.248,71.8093,0.004348
30.279,71.8093,0.004319
30.310,71.8093,0.004319
30.341,71.8093,0.004319
30.372,71.8093,0.004319
30.403,71.8093,0.004319
30.436,71.8093,0.004319
30.464,71.8093,0.004319
30.495,71.8093,0.004319
30.525,71.8093,0.004366
30.558,71.8093,0.004366
30.587,71.8093,0.004366
30.619,71.8093,0.004366
30.649,71.8093,0.004366
30.680,71.8093,0.004366
30.711,71.8093,0.004366
30.742,71.8093,0.004366
30.774,71.8093,0.004366
30.805,71.8093,0.004366
30.836,71.8093,0.004366
30.867,71.8093,0.004366
30.899,71.8093,0.004366
30.930,71.8093,0.004366
30.961,71.8093,0.004366
30.992,71.8093,0.004366
31.021,71.8093,0.004395
31.052,71.8093,0.004395
31.084,71.8093,0.004395
31.114,71.8093,0.004395
31.145,71.8093,0.004395
31.176,71.8093,0.004395
31.208,71.8093,0.004395
31.240,71.8093,0.004395
31.272,71.8093,0.004385
31.303,71.8093,0.004385
31.334,71.8093,0.004385
31.366,71.8093,0.004385
31.397,71.8093,0.004385
31.428,71.8093,0.004385
31.460,71.8093,0.004385
31.490,71.8093,0.004385
31.521,71.8093,0.004338
31.552,71.8093,0.004338
31.583,71.8093,0.004338
31.615,71.8093,0.004338
31.645,71.8093,0.004338
31.677,71.8093,0.004338
31.707,71.8093,0.004338
31.739,71.8093,0.004338
31.770,71.8093,0.004319
31.800,71.8093,0.004319
31.832,71.8093,0.004319
31.863,71.8093,0.004319
31.893,71.8093,0.004319
31.924,71.8093,0.004319
31.955,71.8093,0.004319
31.986,71.8093,0.004319
32.018,71.8093,0.004348
32.050,71.8093,0.004348
32.081,71.8093,0.004348
32.112,71.8093,0.004348
32.144,71.8093,0.004348
32.175,71.8093,0.004348
32.206,71.8093,0.004348
32.238,71.8093,0.004348
32.269,71.8093,0.004348
32.300,71.8093,0.004376
32.330,71.8093,0.004376
32.362,71.8093,0.004376
32.391,71.8093,0.004376
32.423,71.8093,0.004376
32.454,71.8093,0.004376
32.487,71.8093,0.004376
32.516,71.8093,0.004357
32.548,71.8093,0.004357
32.579,71.8093,0.004357
32.612,71.8093,0.004357
32.640,71.8093,0.004357
32.671,71.8093,0.004357
32.705,71.8093,0.004357
32.734,71.8093,0.004357
32.766,71.8093,0.004338
32.797,71.8093,0.004338
32.828,71.8093,0.004338
32.859,71.8093,0.004338
32.891,71.8093,0.004338
32.920,71.8093,0.004338
32.950,71.8093,0.004338
32.981,71.8093,0.004338
33.011,71.8093,0.004338
33.042,71.8093,0.004338
33.073,71.8093,0.004338
33.105,71.8093,0.004338
33.136,71.8093,0.004338
33.167,71.8093,0.004338
33.199,71.8093,0.004338
33.229,71.8093,0.004338
33.261,71.8093,0.004338
33.291,71.8093,0.004338
33.323,71.8093,0.004338
33.354,71.8093,0.004338
33.384,71.8093,0.004338
33.416,71.8093,0.004338
33.446,71.8093,0.004338
33.477,71.8093,0.004338
33.509,71.8093,0.004338
33.540,71.8093,0.004395
33.571,71.8093,0.004395
33.603,71.8093,0.004395
33.635,71.8093,0.004395
33.663,71.8093,0.004395
33.694,71.8093,0.004395
33.725,71.8093,0.004395
33.760,71.8093,0.004395
33.787,71.8093,0.004357
33.818,71.8093,0.004357
33.849,71.8093,0.004357
33.881,71.8093,0.004357
33.910,71.8093,0.004357
33.941,71.8093,0.004357
33.972,71.8093,0.004357
34.003,71.8093,0.004357
34.034,71.8093,0.004329
34.065,71.8093,0.004329
34.095,71.8093,0.004329
34.127,71.8093,0.004329
34.158,71.8093,0.004329
34.188,71.8093,0.004329
34.219,71.8093,0.004329
34.250,71.8093,0.004329
34.280,71.8093,0.004329
34.311,71.8091,0.004329
34.343,71.8081,0.004329
34.374,71.8062,0.004329
34.404,71.8039,0.004329
34.436,71.8006,0.004329
34.466,71.7969,0.004329
34.498,71.7921,0.004329
34.529,71.7869,0.004385
34.560,71.7805,0.004385
34.591,71.7739,0.004385
34.622,71.7662,0.004385
34.653,71.7582,0.004385
34.684,71.7489,0.004385
34.714,71.7396,0.004385
34.744,71.7296,0.004385
34.775,71.7184,0.004508
34.806,71.7064,0.004508
34.837,71.6939,0.004508
34.869,71.6801,0.004508
34.898,71.6669,0.004508
34.930,71.6522,0.004508
34.961,71.6366,0.004508
34.991,71.6201,0.004508
35.022,71.6033,0.004508
35.053,71.5857,0.004498
35.085,71.5674,0.004498
35.117,71.5469,0.004498
35.146,71.5290,0.004498
35.177,71.5083,0.004498
35.208,71.4871,0.004498
35.238,71.4653,0.004498
35.269,71.4430,0.004498
35.300,71.4188,0.004461
35.331,71.3947,0.004461
35.365,71.3666,0.004461
35.397,71.3411,0.004461
35.425,71.3177,0.004461
35.456,71.2898,0.004461
35.490,71.2592,0.004461
35.519,71.2324,0.004470
35.550,71.2038,0.004470
35.580,71.1737,0.004470
35.610,71.1444,0.004470
35.642,71.1122,0.004470
35.672,71.0806,0.004470
35.705,71.0460,0.004470
35.735,71.0132,0.004470
35.767,70.9784,0.004470
35.796,70.9454,0.004526
35.826,70.9099,0.004526
35.857,70.8738,0.004526
35.894,70.8294,0.004526
35.934,70.7805,0.004526
35.964,70.7417,0.004526
35.995,70.7017,0.004526
36.026,70.6619,0.004526
36.057,70.6213,0.004536
36.089,70.5780,0.004536
36.119,70.5363,0.004536
36.150,70.4929,0.004536
36.181,70.4493,0.004536
36.212,70.4033,0.004536
36.243,70.3570,0.004536
36.274,70.3119,0.004489
36.306,70.2634,0.004489
36.337,70.2157,0.004489
36.369,70.1658,0.004489
36.400,70.1152,0.004489
36.433,70.0616,0.004489
36.462,70.0154,0.004489
36.495,69.9611,0.004489
36.524,69.9120,0.004489
36.557,69.8532,0.004470
36.586,69.8051,0.004470
36.619,69.7467,0.004470
36.647,69.6976,0.004470
36.679,69.6389,0.004470
36.710,69.5838,0.004470
36.741,69.5261,0.004470
36.773,69.4675,0.004470
36.804,69.4065,0.004461
36.834,69.3498,0.004461
36.866,69.2876,0.004461
36.896,69.2295,0.004461
36.927,69.1697,0.004461
36.957,69.1114,0.004461
36.989,69.0534,0.004461
37.019,68.9956,0.004461
37.052,68.9355,0.004385
37.083,68.8799,0.004385
37.115,68.8251,0.004385
37.145,68.7705,0.004385
37.176,68.7188,0.004385
37.206,68.6655,0.004385
37.237,68.6149,0.004385
37.269,68.5599,0.004282
37.300,68.5107,0.004282
37.331,68.4592,0.004282
37.363,68.4101,0.004282
37.394,68.3597,0.004282
37.426,68.3098,0.004282
37.457,68.2634,0.004282
37.489,68.2165,0.004282
37.520,68.1710,0.004301
37.550,68.1264,0.004301
37.581,68.0811,0.004301
37.612,68.0386,0.004301
37.643,67.9952,0.004301
37.674,67.9539,0.004301
37.705,67.9126,0.004301
37.736,67.8727,0.004301
37.767,67.8320,0.004301
37.798,67.7936,0.004301
37.829,67.7535,0.004301
37.861,67.7163,0.004301
37.892,67.6782,0.004301
37.923,67.6423,0.004301
37.955,67.6062,0.004301
37.986,67.5712,0.004301
38.017,67.5365,0.004244
38.049,67.5029,0.004244
38.080,67.4707,0.004244
38.111,67.4381,0.004244
38.142,67.4075,0.004244
38.172,67.3782,0.004244
38.203,67.3488,0.004244
38.234,67.3195,0.004244
38.266,67.2908,0.004244
38.296,67.2631,0.004216
38.327,67.2370,0.004216
38.358,67.2115,0.004216
38.388,67.1860,0.004216
38.420,67.1614,0.004216
38.451,67.1377,0.004216
38.481,67.1155,0.004216
38.516,67.0894,0.004216
38.544,67.0706,0.004216
38.576,67.0491,0.004216
38.606,67.0292,0.004216
38.637,67.0100,0.004216
38.669,66.9905,0.004216
38.701,66.9723,0.004216
38.731,66.9550,0.004216
38.763,66.9387,0.004216
38.794,66.9229,0.004216
38.824,66.9080,0.004197
38.854,66.8940,0.004197
38.885,66.8803,0.004197
38.916,66.8675,0.004197
38.948,66.8548,0.004197
38.979,66.8433,0.004197
39.011,66.8324,0.004197
39.040,66.8232,0.004216
39.072,66.8133,0.004216
39.102,66.8053,0.004216
39.133,66.7975,0.004216
39.164,66.7905,0.004216
39.198,66.7834,0.004216
39.227,66.7783,0.004216
39.258,66.7734,0.004216
39.287,66.7695,0.004253
39.319,66.7659,0.004253
39.349,66.7633,0.004253
39.380,66.7612,0.004253
39.410,66.7600,0.004253
39.442,66.7593,0.004253
39.472,66.7593,0.004253
39.504,66.7593,0.004253
39.535,66.7593,0.004225
39.566,66.7593,0.004225
39.597,66.7593,0.004225
39.628,66.7593,0.004225
39.659,66.7593,0.004225
39.690,66.7593,0.004225
39.722,66.7593,0.004225
39.753,66.7593,0.004225
39.785,66.7593,0.004291
39.816,66.7593,0.004291
39.847,66.7593,0.004291
39.878,66.7593,0.004291
39.909,66.7593,0.004291
39.940,66.7593,0.004291
39.970,66.7593,0.004291
40.001,66.7593,0.004291
40.032,66.7593,0.004404
40.063,66.7597,0.004404
40.094,66.7609,0.004404
40.126,66.7629,0.004404
40.156,66.7655,0.004404
40.187,66.7688,0.004404
40.218,66.7729,0.004404
40.249,66.7778,0.004404
40.280,66.7831,0.004272
40.312,66.7896,0.004272
40.342,66.7963,0.004272
40.373,66.8041,0.004272
40.405,66.8127,0.004272
40.434,66.8217,0.004272
40.465,66.8316,0.004272
40.497,66.8423,0.004272
40.528,66.8537,0.004225
40.558,66.8656,0.004225
40.590,66.8788,0.004225
40.621,66.8919,0.004225
40.652,66.9064,0.004225
40.683,66.9216,0.004225
40.713,66.9366,0.004225
40.744,66.9531,0.004225
40.774,66.9696,0.004272
40.809,66.9904,0.004272
40.836,67.0065,0.004272
40.866,67.0247,0.004272
40.900,67.0471,0.004272
40.928,67.0654,0.004272
40.959,67.0868,0.004272
40.990,67.1090,0.004272
41.021,67.1320,0.004244
41.051,67.1548,0.004244
41.083,67.1798,0.004244
41.113,67.2047,0.004244
41.145,67.2303,0.004244
41.176,67.2573,0.004244
41.207,67.2849,0.004244
41.238,67.3132,0.004244
41.269,67.3419,0.004244
41.300,67.3710,0.004206
41.331,67.4013,0.004206
41.363,67.4325,0.004206
41.394,67.4648,0.004206
41.425,67.4965,0.004206
41.455,67.5294,0.004206
41.486,67.5628,0.004206
41.516,67.5962,0.004206
41.546,67.6306,0.004169
41.577,67.6666,0.004169
41.608,67.7023,0.004169
41.638,67.7407,0.004169
41.670,67.7786,0.004169
41.701,67.8184,0.004169
41.732,67.8569,0.004169
41.763,67.8989,0.004169
41.794,67.9388,0.004197
41.825,67.9813,0.004197
41.856,68.0230,0.004197
41.888,68.0684,0.004197
41.919,68.1109,0.004197
41.950,68.1558,0.004197
41.981,68.2023,0.004197
42.013,68.2494,0.004197
42.042,68.2940,0.004197
42.074,68.3422,0.004216
42.105,68.3906,0.004216
42.136,68.4405,0.004216
42.167,68.4897,0.004216
42.199,68.5416,0.004216
42.230,68.5935,0.004216
42.260,68.6433,0.004216
42.291,68.6968,0.004244
42.322,68.7489,0.004244
42.352,68.8026,0.004244
42.386,68.8639,0.004244
42.415,68.9136,0.004244
42.446,68.9705,0.004244
42.476,69.0264,0.004244
42.511,69.0938,0.004244
42.538,69.1429,0.004253
42.569,69.2019,0.004253
42.599,69.2593,0.004253
42.630,69.3207,0.004253
42.661,69.3792,0.004253
42.693,69.4397,0.004253
42.724,69.4962,0.004253
42.759,69.5628,0.004253
42.787,69.6118,0.004253
42.818,69.6679,0.004357
42.849,69.7220,0.004357
42.881,69.7773,0.004357
42.915,69.8376,0.004357
42.944,69.8858,0.004357
42.975,69.9378,0.004357
43.009,69.9930,0.004526
43.037,70.0396,0.004526
43.068,70.0885,0.004526
43.099,70.1371,0.004526
43.129,70.1831,0.004526
43.159,70.2311,0.004526
43.190,70.2775,0.004526
43.222,70.3261,0.004526
43.251,70.3673,0.004526
43.281,70.4105,0.004508
43.313,70.4557,0.004508
43.343,70.4978,0.004508
43.375,70.5421,0.004508
43.406,70.5826,0.004508
43.437,70.6239,0.004508
43.468,70.6650,0.004508
43.500,70.7046,0.004451
43.530,70.7438,0.004451
43.562,70.7820,0.004451
43.593,70.8186,0.004451
43.624,70.8555,0.004451
43.655,70.8913,0.004451
43.686,70.9270,0.004451
43.717,70.9611,0.004451
43.747,70.9949,0.004451
43.778,71.0269,0.004536
43.808,71.0595,0.004536
43.840,71.0906,0.004536
43.871,71.1221,0.004536
43.902,71.1525,0.004536
43.932,71.1809,0.004536
43.964,71.2094,0.004536
43.995,71.2373,0.004536
44.024,71.2639,0.004536
44.056,71.2903,0.004517
44.086,71.3157,0.004517
44.117,71.3403,0.004517
44.148,71.3649,0.004517
44.179,71.3881,0.004517
44.209,71.4110,0.004517
44.240,71.4328,0.004517
44.272,71.4545,0.004442
44.303,71.4756,0.004442
44.335,71.4960,0.004442
44.366,71.5153,0.004442
44.396,71.5335,0.004442
44.427,71.5507,0.004442
44.459,71.5686,0.004442
44.490,71.5847,0.004442
44.521,71.6008,0.004461
44.551,71.6147,0.004461
44.582,71.6290,0.004461
44.613,71.6425,0.004461
44.644,71.6548,0.004461
44.674,71.6663,0.004461
44.705,71.6779,0.004461
44.735,71.6879,0.004461
44.765,71.6977,0.004461
44.796,71.7068,0.004461
44.827,71.7151,0.004451
44.859,71.7228,0.004451
44.891,71.7301,0.004451
44.921,71.7361,0.004451
44.954,71.7419,0.004451
44.982,71.7461,0.004451
45.013,71.7502,0.004451
45.044,71.7534,0.004432
45.077,71.7561,0.004432
45.107,71.7579,0.004432
45.142,71.7591,0.004432
45.170,71.7593,0.004432
45.201,71.7593,0.004432
45.231,71.7593,0.004432
45.265,71.7593,0.004432
45.293,71.7593,0.004442
45.325,71.7593,0.004442
45.356,71.7593,0.004442
45.386,71.7593,0.004442
45.419,71.7593,0.004442
45.447,71.7593,0.004442
45.478,71.7593,0.004442
45.509,71.7593,0.004442
45.540,71.7593,0.004376
45.571,71.7593,0.004376
45.601,71.7593,0.004376
45.632,71.7593,0.004376
45.664,71.7593,0.004376
45.694,71.7593,0.004376
45.725,71.7593,0.004376
45.756,71.7593,0.004338
45.785,71.7593,0.004338
45.818,71.7593,0.004338
45.849,71.7593,0.004338
45.880,71.7593,0.004338
45.911,71.7593,0.004338
45.940,71.7593,0.004338
45.971,71.7593,0.004338
46.001,71.7593,0.004376
46.032,71.7593,0.004376
46.064,71.7593,0.004376
46.097,71.7593,0.004376
46.126,71.7593,0.004376
46.158,71.7593,0.004376
46.191,71.7593,0.004376
46.220,71.7593,0.004376
46.251,71.7593,0.004376
46.284,71.7593,0.004376
46.312,71.7593,0.004376
46.345,71.7593,0.004376
46.375,71.7593,0.004376
46.405,71.7593,0.004376
46.437,71.7593,0.004376
46.468,71.7593,0.004376
46.498,71.7593,0.004376
46.528,71.7593,0.004376
46.560,71.7593,0.004376
46.590,71.7593,0.004376
46.623,71.7593,0.004376
46.653,71.7593,0.004376
46.685,71.7593,0.004376
46.716,71.7593,0.004376
46.747,71.7593,0.004376
46.778,71.7593,0.004376
46.809,71.7593,0.004338
46.841,71.7593,0.004338
46.871,71.7593,0.004338
46.903,71.7593,0.004338
46.934,71.7593,0.004338
46.965,71.7593,0.004338
46.995,71.7593,0.004338
47.027,71.7593,0.004301
47.058,71.7593,0.004301
47.089,71.7593,0.004301
47.121,71.7593,0.004301
47.153,71.7593,0.004301
47.184,71.7593,0.004301
47.215,71.7593,0.004301
47.247,71.7593,0.004301
47.277,71.7593,0.004338
47.308,71.7593,0.004338
47.339,71.7593,0.004338
47.371,71.7593,0.004338
47.402,71.7593,0.004338
47.433,71.7593,0.004338
47.464,71.7593,0.004338
47.496,71.7593,0.004338
47.527,71.7593,0.004423
47.557,71.7593,0.004423
47.588,71.7593,0.004423
47.619,71.7593,0.004423
47.650,71.7593,0.004423
47.681,71.7593,0.004423
47.713,71.7593,0.004423
47.745,71.7593,0.004423
47.774,71.7593,0.004395
47.804,71.7593,0.004395
47.835,71.7593,0.004395
47.866,71.7593,0.004395
47.898,71.7593,0.004395
47.928,71.7593,0.004395
47.958,71.7593,0.004395
47.990,71.7593,0.004395
48.020,71.7593,0.004395
48.050,71.7593,0.004357
48.081,71.7593,0.004357
48.113,71.7593,0.004357
48.143,71.7593,0.004357
48.174,71.7593,0.004357
48.205,71.7593,0.004357
48.236,71.7593,0.004357
48.267,71.7593,0.004376
48.298,71.7593,0.004376
48.328,71.7593,0.004376
48.360,71.7593,0.004376
48.390,71.7593,0.004376
48.421,71.7593,0.004376
48.452,71.7593,0.004376
48.478,71.7593,0.004376
48.514,71.7593,0.004376
48.546,71.7593,0.004366
48.575,71.7593,0.004366
48.607,71.7593,0.004366
48.637,71.7593,0.004366
48.669,71.7593,0.004366
48.698,71.7593,0.004366
48.731,71.7593,0.004366
48.760,71.7593,0.004366
48.791,71.7593,0.004366
48.822,71.7593,0.004366
48.853,71.7593,0.004366
48.884,71.7593,0.004366
48.915,71.7593,0.004366
48.947,71.7593,0.004366
48.978,71.7593,0.004366
49.009,71.7593,0.004376
49.040,71.7593,0.004376
49.071,71.7593,0.004376
49.102,71.7593,0.004376
49.133,71.7593,0.004376
49.165,71.7593,0.004376
49.196,71.7593,0.004376
49.227,71.7593,0.004376
49.258,71.7593,0.004357
49.288,71.7593,0.004357
49.325,71.7593,0.004357
49.366,71.7593,0.004357
49.397,71.7593,0.004357
49.428,71.7593,0.004357
49.459,71.7593,0.004357
49.491,71.7593,0.004357
49.521,71.7593,0.004357
49.551,71.7593,0.004329
49.583,71.7593,0.004329
49.613,71.7593,0.004329
49.645,71.7593,0.004329
49.676,71.7593,0.004329
49.706,71.7593,0.004329
49.738,71.7593,0.004329
49.769,71.7593,0.004329
49.798,71.7591,0.004329
49.829,71.7582,0.004329
49.861,71.7565,0.004329
49.891,71.7541,0.004329
49.924,71.7509,0.004329
49.954,71.7473,0.004329
49.985,71.7426,0.004329
50.015,71.7375,0.004413
50.046,71.7316,0.004413
50.077,71.7247,0.004413
50.108,71.7174,0.004413
50.138,71.7092,0.004413
50.169,71.7004,0.004413
50.200,71.6906,0.004413
50.231,71.6806,0.004413
50.261,71.6698,0.004508
50.292,71.6579,0.004508
50.324,71.6454,0.004508
50.356,71.6315,0.004508
50.386,71.6182,0.004508
50.416,71.6036,0.004508
50.448,71.5882,0.004508
50.479,71.5716,0.004508
50.509,71.5551,0.004451
50.541,71.5375,0.004451
50.571,71.5192,0.004451
50.602,71.5008,0.004451
50.633,71.4809,0.004451
50.664,71.4602,0.004451
50.695,71.4386,0.004451
50.725,71.4175,0.004451
50.756,71.3948,0.004451
50.787,71.3718,0.004442
50.818,71.3477,0.004442
50.848,71.3234,0.004442
50.880,71.2972,0.004442
50.911,71.2711,0.004442
50.941,71.2450,0.004442
50.975,71.2141,0.004442
51.003,71.1888,0.004498
51.034,71.1594,0.004498
51.065,71.1299,0.004498
51.096,71.0992,0.004498
51.126,71.0689,0.004498
51.156,71.0365,0.004498
51.187,71.0047,0.004498
51.217,70.9723,0.004498
51.248,70.9373,0.004451
51.279,70.9032,0.004451
51.310,70.8672,0.004451
51.341,70.8316,0.004451
51.371,70.7956,0.004451
51.403,70.7552,0.004451
51.434,70.7180,0.004451
51.465,70.6779,0.004451
51.496,70.6385,0.004451
51.527,70.5967,0.004508
51.558,70.5556,0.004508
51.589,70.5133,0.004508
51.621,70.4692,0.004508
51.652,70.4261,0.004508
51.683,70.3814,0.004508
51.716,70.3341,0.004508
51.745,70.2905,0.004508
51.783,70.2329,0.004508
51.823,70.1708,0.004583
51.857,70.1181,0.004583
51.887,70.0715,0.004583
51.917,70.0230,0.004583
51.949,69.9701,0.004583
51.979,69.9212,0.004583
52.012,69.8640,0.004583
52.040,69.8169,0.004517
52.072,69.7621,0.004517
52.102,69.7087,0.004517
52.134,69.6537,0.004517
52.165,69.5965,0.004517
52.197,69.5392,0.004517
52.227,69.4818,0.004517
52.258,69.4248,0.004517
52.290,69.3662,0.004461
52.320,69.3079,0.004461
52.351,69.2485,0.004461
52.381,69.1877,0.004461
52.412,69.1302,0.004461
52.444,69.0694,0.004461
52.474,69.0123,0.004461
52.505,68.9539,0.004461
52.536,68.8982,0.004348
52.566,68.8444,0.004348
52.598,68.7874,0.004348
52.628,68.7327,0.004348
52.660,68.6785,0.004348
52.692,68.6233,0.004348
52.723,68.5716,0.004348
52.753,68.5192,0.004348
52.784,68.4695,0.004235
52.817,68.4170,0.004235
52.847,68.3682,0.004235
52.878,68.3198,0.004235
52.909,68.2707,0.004235
52.940,68.2241,0.004235
52.971,68.1787,0.004235
53.001,68.1323,0.004235
53.031,68.0892,0.004235
53.063,68.0442,0.004272
53.094,68.0009,0.004272
53.124,67.9573,0.004272
53.155,67.9156,0.004272
53.188,67.8721,0.004272
53.218,67.8329,0.004272
53.249,67.7917,0.004272
53.280,67.7533,0.004253
53.311,67.7146,0.004253
53.341,67.6780,0.004253
53.373,67.6397,0.004253
53.403,67.6034,0.004253
53.433,67.5692,0.004253
53.464,67.5337,0.004253
53.496,67.4991,0.004253
53.526,67.4661,0.004253
53.557,67.4339,0.004216
53.587,67.4028,0.004216
53.619,67.3710,0.004216
53.651,67.3394,0.004216
53.682,67.3085,0.004216
53.711,67.2816,0.004216
53.744,67.2513,0.004216
53.773,67.2249,0.004188
53.805,67.1978,0.004188
53.835,67.1723,0.004188
53.871,67.1424,0.004188
53.896,67.1220,0.004188
53.927,67.0978,0.004188
53.958,67.0747,0.004188
53.990,67.0514,0.004188
54.021,67.0293,0.004197
54.051,67.0094,0.004197
54.081,66.9889,0.004197
54.113,66.9688,0.004197
54.143,66.9503,0.004197
54.174,66.9316,0.004197
54.206,66.9140,0.004197
54.236,66.8972,0.004197
54.267,66.8814,0.004216
54.297,66.8661,0.004216
54.328,66.8516,0.004216
54.359,66.8373,0.004216
54.391,66.8240,0.004216
54.421,66.8115,0.004216
54.453,66.7995,0.004216
54.483,66.7885,0.004216
54.513,66.7786,0.004188
54.545,66.7685,0.004188
54.576,66.7598,0.004188
54.606,66.7518,0.004188
54.637,66.7443,0.004188
54.668,66.7374,0.004188
54.698,66.7316,0.004188
54.729,66.7262,0.004188
54.760,66.7216,0.004197
54.792,66.7178,0.004197
54.822,66.7147,0.004197
54.853,66.7122,0.004197
54.884,66.7106,0.004197
54.915,66.7096,0.004197
54.946,66.7094,0.004197
54.977,66.7094,0.004197
55.009,66.7094,0.004197
55.040,66.7094,0.004197
55.071,66.7094,0.004197
55.102,66.7094,0.004197
55.133,66.7094,0.004197
55.165,66.7094,0.004197
55.195,66.7094,0.004197
55.226,66.7094,0.004197
55.257,66.7094,0.004197
55.288,66.7094,0.004197
55.320,66.7094,0.004272
55.351,66.7094,0.004272
55.381,66.7094,0.004272
55.412,66.7094,0.004272
55.443,66.7094,0.004272
55.475,66.7094,0.004272
55.505,66.7094,0.004272
55.536,66.7094,0.004357
55.567,66.7094,0.004357
55.599,66.7094,0.004357
55.629,66.7094,0.004357
55.659,66.7094,0.004357
55.690,66.7095,0.004357
55.725,66.7105,0.004357
55.753,66.7118,0.004357
55.783,66.7139,0.004366
55.813,66.7170,0.004366
55.844,66.7205,0.004366
55.875,66.7251,0.004366
55.906,66.7301,0.004366
55.935,66.7356,0.004366
55.966,66.7421,0.004366
55.997,66.7494,0.004366
56.028,66.7575,0.004310
56.060,66.7662,0.004310
56.091,66.7758,0.004310
56.121,66.7859,0.004310
56.152,66.7968,0.004310
56.184,66.8084,0.004310
56.215,66.8209,0.004310
56.245,66.8341,0.004310
56.277,66.8476,0.004235
56.307,66.8622,0.004235
56.338,66.8773,0.004235
56.372,66.8948,0.004235
56.401,66.9105,0.004235
56.433,66.9286,0.004235
56.463,66.9462,0.004235
56.494,66.9652,0.004235
56.526,66.9856,0.004225
56.556,67.0053,0.004225
56.587,67.0270,0.004225
56.618,67.0484,0.004225
56.650,67.0710,0.004225
56.680,67.0940,0.004225
56.711,67.1179,0.004225
56.742,67.1432,0.004225
56.774,67.1687,0.004150
56.804,67.1948,0.004150
56.835,67.2214,0.004150
56.867,67.2497,0.004150
56.897,67.2771,0.004150
56.927,67.3060,0.004150
56.959,67.3360,0.004150
56.989,67.3659,0.004150
57.020,67.3968,0.004169
57.052,67.4302,0.004169
57.082,67.4624,0.004169
57.113,67.4955,0.004169
57.143,67.5287,0.004169
57.178,67.5685,0.004169
57.206,67.6006,0.004169
57.237,67.6373,0.004169
57.267,67.6734,0.004216
57.299,67.7112,0.004216
57.330,67.7495,0.004216
57.362,67.7903,0.004216
57.392,67.8285,0.004216
57.424,67.8713,0.004216
57.453,67.9099,0.004216
57.485,67.9541,0.004216
57.515,67.9962,0.004235
57.546,68.0389,0.004235
57.577,68.0835,0.004235
57.609,68.1297,0.004235
57.639,68.1736,0.004235
57.670,68.2214,0.004235
57.701,68.2682,0.004235
57.736,68.3254,0.004235
57.764,68.3666,0.004244
57.795,68.4147,0.004244
57.826,68.4665,0.004244
57.857,68.5158,0.004244
57.888,68.5685,0.004244
57.919,68.6217,0.004244
57.951,68.6745,0.004244
57.982,68.7290,0.004244
58.012,68.7823,0.004253
58.047,68.8445,0.004253
58.073,68.8930,0.004253
58.104,68.9477,0.004253
58.135,69.0063,0.004253
58.167,69.0649,0.004253
58.198,69.1241,0.004253
58.228,69.1825,0.004253
58.262,69.2492,0.004253
58.290,69.3034,0.004253
58.321,69.3612,0.004253
58.353,69.4195,0.004253
58.383,69.4767,0.004253
58.414,69.5347,0.004253
58.444,69.5884,0.004253
58.476,69.6444,0.004253
58.507,69.6992,0.004348
58.538,69.7516,0.004348
58.569,69.8062,0.004348
58.600,69.8573,0.004348
58.631,69.9094,0.004348
58.662,69.9605,0.004348
58.693,70.0115,0.004348
58.725,70.0617,0.004348
58.756,70.1087,0.004489
58.786,70.1558,0.004489
58.817,70.2028,0.004489
58.848,70.2496,0.004489
58.879,70.2949,0.004489
58.910,70.3399,0.004489
58.941,70.3837,0.004489
58.972,70.4275,0.004489
59.002,70.4694,0.004489
59.033,70.5114,0.004479
59.063,70.5517,0.004479
59.095,70.5941,0.004479
59.126,70.6332,0.004479
59.157,70.6730,0.004479
59.188,70.7111,0.004479
59.221,70.7513,0.004479
59.249,70.7848,0.004479
59.281,70.8218,0.004479
59.312,70.8572,0.004479
59.346,70.8966,0.004479
59.375,70.9278,0.004479
59.405,70.9609,0.004479
59.436,70.9934,0.004479
59.468,71.0256,0.004479
59.499,71.0564,0.004461
59.530,71.0876,0.004461
59.560,71.1162,0.004461
59.592,71.1462,0.004461
59.623,71.1737,0.004461
59.654,71.2022,0.004461
59.686,71.2291,0.004461
59.716,71.2552,0.004461
59.746,71.2791,0.004461
59.776,71.3037,0.004461
59.807,71.3271,0.004404
59.837,71.3499,0.004404
59.869,71.3723,0.004404
59.899,71.3938,0.004404
59.930,71.4149,0.004404
59.955,71.4313,0.004404
59.991,71.4544,0.004404
60.023,71.4735,0.004404
60.054,71.4915,0.004442
60.085,71.5092,0.004442
60.115,71.5253,0.004442
60.145,71.5409,0.004442
60.177,71.5567,0.004442
60.207,71.5708,0.004442
60.239,71.5848,0.004442
60.269,71.5981,0.004461
60.301,71.6103,0.004461
60.331,71.6219,0.004461
60.362,71.6326,0.004461
60.392,71.6426,0.004461
60.423,71.6521,0.004461
60.454,71.6609,0.004461
60.486,71.6691,0.004461
60.517,71.6764,0.004461
60.548,71.6829,0.004470
60.579,71.6889,0.004470
60.610,71.6939,0.004470
60.641,71.6982,0.004470
60.671,71.7018,0.004470
60.701,71.7048,0.004470
60.732,71.7069,0.004470
60.763,71.7085,0.004470
60.794,71.7092,0.004461
60.825,71.7094,0.004461
60.856,71.7094,0.004461
60.887,71.7094,0.004461
60.918,71.7094,0.004461
60.950,71.7094,0.004461
60.980,71.7094,0.004461
61.012,71.7094,0.004461
61.042,71.7094,0.004423
61.073,71.7094,0.004423
61.104,71.7094,0.004423
61.135,71.7094,0.004423
61.165,71.7094,0.004423
61.197,71.7094,0.004423
61.227,71.7094,0.004423
61.259,71.7094,0.004423
61.290,71.7094,0.004357
61.320,71.7094,0.004357
61.352,71.7094,0.004357
61.386,71.7094,0.004357
61.415,71.7094,0.004357
61.446,71.7094,0.004357
61.476,71.7094,0.004357
61.508,71.7094,0.004357
61.538,71.7094,0.004319
61.569,71.7094,0.004319
61.599,71.7094,0.004319
61.630,71.7094,0.004319
61.660,71.7094,0.004319
61.691,71.7094,0.004319
61.722,71.7094,0.004319
61.754,71.7094,0.004319
61.784,71.7094,0.004319
61.816,71.7094,0.004366
61.847,71.7094,0.004366
61.878,71.7094,0.004366
61.909,71.7094,0.004366
61.939,71.7094,0.004366
61.970,71.7094,0.004366
62.001,71.7094,0.004366
62.032,71.7094,0.004366
62.063,71.7094,0.004366
62.095,71.7094,0.004366
62.126,71.7094,0.004366
62.158,71.7094,0.004366
62.189,71.7094,0.004366
62.221,71.7094,0.004366
62.253,71.7094,0.004366
62.283,71.7094,0.004338
62.314,71.7094,0.004338
62.346,71.7094,0.004338
62.377,71.7094,0.004338
62.409,71.7094,0.004338
62.439,71.7094,0.004338
62.470,71.7094,0.004338
62.501,71.7094,0.004338
62.532,71.7094,0.004338
62.563,71.7094,0.004338
62.593,71.7094,0.004338
62.625,71.7094,0.004338
62.656,71.7094,0.004338
62.686,71.7094,0.004338
62.717,71.7094,0.004338
62.750,71.7094,0.004338
62.780,71.7094,0.004338
62.811,71.7094,0.004338
62.842,71.7094,0.004338
62.873,71.7094,0.004338
62.905,71.7094,0.004338
62.936,71.7094,0.004338
62.967,71.7094,0.004338
62.998,71.7094,0.004338
63.029,71.7094,0.004366
63.060,71.7094,0.004366
63.091,71.7094,0.004366
63.121,71.7094,0.004366
63.153,71.7094,0.004366
63.184,71.7094,0.004366
63.214,71.7094,0.004366
63.245,71.7094,0.004395
63.276,71.7094,0.004395
63.307,71.7094,0.004395
63.338,71.7094,0.004395
63.370,71.7094,0.004395
63.401,71.7094,0.004395
63.431,71.7094,0.004395
63.462,71.7094,0.004395
63.494,71.7094,0.004395
63.525,71.7094,0.004310
63.556,71.7094,0.004310
63.587,71.7094,0.004310
63.617,71.7094,0.004310
63.649,71.7094,0.004310
63.680,71.7094,0.004310
63.711,71.7094,0.004310
63.742,71.7094,0.004310
63.774,71.7094,0.004301
63.804,71.7094,0.004301
63.836,71.7094,0.004301
63.866,71.7094,0.004301
63.897,71.7094,0.004301
63.928,71.7094,0.004301
63.959,71.7094,0.004301
63.990,71.7094,0.004301
64.021,71.7094,0.004301
64.052,71.7094,0.004338
64.084,71.7094,0.004338
64.115,71.7094,0.004338
64.145,71.7094,0.004338
64.176,71.7094,0.004338
64.207,71.7094,0.004338
64.239,71.7094,0.004338
64.270,71.7094,0.004338
64.301,71.7094,0.004272
64.333,71.7094,0.004272
64.364,71.7094,0.004272
64.395,71.7094,0.004272
64.427,71.7094,0.004272
64.458,71.7094,0.004272
64.489,71.7094,0.004272
64.520,71.7094,0.004291
64.551,71.7094,0.004291
64.584,71.7094,0.004291
64.613,71.7094,0.004291
64.649,71.7094,0.004291
64.675,71.7094,0.004291
64.706,71.7094,0.004291
64.739,71.7094,0.004291
64.767,71.7094,0.004291
64.798,71.7094,0.004366
64.829,71.7094,0.004366
64.860,71.7094,0.004366
64.891,71.7094,0.004366
64.921,71.7094,0.004366
64.953,71.7094,0.004366
64.986,71.7094,0.004366
65.015,71.7094,0.004366
65.046,71.7094,0.004366
65.077,71.7094,0.004376
65.107,71.7094,0.004376
65.138,71.7094,0.004376
65.169,71.7094,0.004376
65.201,71.7094,0.004376
65.231,71.7094,0.004376
65.263,71.7094,0.004376
65.292,71.7094,0.004338
65.324,71.7094,0.004338
65.354,71.7094,0.004338
65.385,71.7094,0.004338
65.416,71.7094,0.004338
65.447,71.7089,0.004338
65.479,71.7074,0.004338
65.509,71.7056,0.004338
65.540,71.7028,0.004348
65.573,71.6991,0.004348
65.604,71.6950,0.004348
65.633,71.6904,0.004348
65.664,71.6848,0.004348
65.697,71.6780,0.004348
65.725,71.6714,0.004348
65.757,71.6635,0.004348
65.787,71.6550,0.004451
65.818,71.6459,0.004451
65.849,71.6362,0.004451
65.879,71.6258,0.004451
65.910,71.6146,0.004451
65.941,71.6022,0.004451
65.972,71.5896,0.004451
66.003,71.5755,0.004451
66.035,71.5613,0.004517
66.065,71.5460,0.004517
66.097,71.5304,0.004517
66.128,71.5138,0.004517
66.159,71.4965,0.004517
66.191,71.4779,0.004517
66.223,71.4588,0.004517
66.254,71.4390,0.004461
66.285,71.4186,0.004461
66.317,71.3973,0.004461
66.348,71.3756,0.004461
66.380,71.3527,0.004461
66.410,71.3300,0.004461
66.440,71.3064,0.004461
66.471,71.2822,0.004461
66.502,71.2570,0.004432
66.534,71.2305,0.004432
66.565,71.2038,0.004432
66.595,71.1774,0.004432
66.626,71.1482,0.004432
66.658,71.1193,0.004432
66.689,71.0887,0.004432
66.720,71.0592,0.004432
66.752,71.0266,0.004461
66.782,70.9961,0.004461
66.813,70.9634,0.004461
66.843,70.9314,0.004461
66.874,70.8971,0.004461
66.904,70.8629,0.004461
66.936,70.8277,0.004461
66.966,70.7912,0.004461
66.997,70.7550,0.004461
67.028,70.7163,0.004461
67.059,70.6782,0.004432
67.090,70.6393,0.004432
67.121,70.5993,0.004432
67.153,70.5569,0.004432
67.184,70.5171,0.004432
67.217,70.4727,0.004432
67.247,70.4304,0.004432
67.278,70.3871,0.004432
67.307,70.3460,0.004423
67.339,70.2990,0.004423
67.370,70.2541,0.004423
67.400,70.2083,0.004423
67.431,70.1628,0.004423
67.462,70.1139,0.004423
67.492,70.0657,0.004423
67.523,70.0178,0.004423
67.555,69.9671,0.004461
67.586,69.9145,0.004461
67.617,69.8638,0.004461
67.649,69.8102,0.004461
67.679,69.7591,0.004461
67.711,69.7025,0.004461
67.741,69.6508,0.004461
67.773,69.5938,0.004461
67.803,69.5408,0.004461
67.834,69.4846,0.004508
67.865,69.4258,0.004508
67.896,69.3673,0.004508
67.928,69.3080,0.004508
67.959,69.2494,0.004508
67.990,69.1893,0.004508
68.020,69.1309,0.004508
68.051,69.0710,0.004508
68.082,69.0104,0.004508
68.114,68.9517,0.004508
68.145,68.8935,0.004508
68.176,68.8364,0.004508
68.208,68.7802,0.004508
68.239,68.7250,0.004508
68.270,68.6698,0.004508
68.302,68.6153,0.004329
68.332,68.5631,0.004329
68.363,68.5113,0.004329
68.394,68.4590,0.004329
68.425,68.4080,0.004329
68.456,68.3579,0.004329
68.487,68.3091,0.004329
68.518,68.2601,0.004329
68.550,68.2115,0.004188
68.580,68.1649,0.004188
68.611,68.1183,0.004188
68.642,68.0730,0.004188
68.674,68.0276,0.004188
68.706,67.9811,0.004188
68.737,67.9384,0.004188
68.768,67.8944,0.004188
68.799,67.8536,0.004169
68.831,67.8103,0.004169
68.861,67.7704,0.004169
68.895,67.7273,0.004169
68.924,67.6900,0.004169
68.955,67.6532,0.004169
68.986,67.6148,0.004169
69.016,67.5788,0.004169
69.047,67.5435,0.004235
69.078,67.5079,0.004235
69.108,67.4735,0.004235
69.140,67.4387,0.004235
69.171,67.4056,0.004235
69.202,67.3716,0.004235
69.235,67.3391,0.004235
69.265,67.3090,0.004235
69.296,67.2787,0.004291
69.327,67.2486,0.004291
69.358,67.2203,0.004291
69.388,67.1924,0.004291
69.418,67.1656,0.004291
69.450,67.1380,0.004291
69.481,67.1119,0.004291
69.507,67.0911,0.004291
69.542,67.0626,0.004216
69.573,67.0384,0.004216
69.605,67.0156,0.004216
69.635,66.9934,0.004216
69.666,66.9723,0.004216
69.698,66.9495,0.004216
69.727,66.9316,0.004216
69.758,66.9121,0.004216
69.789,66.8929,0.004197
69.820,66.8752,0.004197
69.851,66.8576,0.004197
69.881,66.8413,0.004197
69.912,66.8253,0.004197
69.944,66.8102,0.004197
69.975,66.7956,0.004197
70.005,66.7819,0.004197
70.037,66.7688,0.004235
70.068,66.7564,0.004235
70.100,66.7447,0.004235
70.131,66.7340,0.004235
70.161,66.7241,0.004235
70.193,66.7147,0.004235
70.224,66.7061,0.004235
70.255,66.6979,0.004235
70.286,66.6910,0.004244
70.317,66.6845,0.004244
70.347,66.6790,0.004244
70.378,66.6740,0.004244
70.409,66.6697,0.004244
70.439,66.6663,0.004244
70.470,66.6635,0.004244
70.501,66.6614,0.004244
70.532,66.6600,0.004244
70.564,66.6594,0.004216
70.595,66.6594,0.004216
70.626,66.6594,0.004216
70.657,66.6594,0.004216
70.689,66.6594,0.004216
70.720,66.6594,0.004216
70.750,66.6594,0.004216
70.784,66.6594,0.004216
70.811,66.6594,0.004310
70.843,66.6594,0.004310
70.874,66.6594,0.004310
70.904,66.6594,0.004310
70.935,66.6594,0.004310
70.967,66.6594,0.004310
70.998,66.6594,0.004310
71.029,66.6594,0.004385
71.060,66.6594,0.004385
71.092,66.6594,0.004385
71.121,66.6594,0.004385
71.155,66.6594,0.004385
71.185,66.6595,0.004385
71.215,66.6604,0.004385
71.246,66.6620,0.004385
71.277,66.6642,0.004366
71.308,66.6673,0.004366
71.338,66.6709,0.004366
71.369,66.6755,0.004366
71.400,66.6807,0.004366
71.431,66.6867,0.004366
71.462,66.6934,0.004366
71.494,66.7007,0.004366
71.525,66.7090,0.004319
71.556,66.7179,0.004319
71.587,66.7272,0.004319
71.618,66.7378,0.004319
71.650,66.7490,0.004319
71.679,66.7601,0.004319
71.712,66.7736,0.004319
71.742,66.7862,0.004319
71.774,66.8004,0.004235
71.805,66.8151,0.004235
71.836,66.8308,0.004235
71.867,66.8473,0.004235
71.898,66.8640,0.004235
71.929,66.8811,0.004235
71.960,66.8995,0.004235
71.991,66.9185,0.004235
72.023,66.9388,0.004235
72.053,66.9589,0.004216
72.084,66.9801,0.004216
72.115,67.0020,0.004216
72.146,67.0251,0.004216
72.177,67.0479,0.004216
72.208,67.0729,0.004216
72.235,67.0942,0.004216
72.271,67.1240,0.004178
72.301,67.1493,0.004178
72.333,67.1769,0.004178
72.363,67.2052,0.004178
72.395,67.2331,0.004178
72.425,67.2619,0.004178
72.457,67.2928,0.004178
72.488,67.3235,0.004178
72.519,67.3554,0.004206
72.550,67.3871,0.004206
72.581,67.4214,0.004206
72.612,67.4542,0.004206
72.644,67.4895,0.004206
72.675,67.5243,0.004206
72.706,67.5604,0.004206
72.737,67.5966,0.004206
72.768,67.6342,0.004244
72.801,67.6746,0.004244
72.831,67.7125,0.004244
72.861,67.7508,0.004244
72.894,67.7929,0.004244
72.925,67.8336,0.004244
72.955,67.8747,0.004244
72.987,67.9175,0.004244
73.017,67.9608,0.004225
73.049,68.0058,0.004225
73.081,68.0505,0.004225
73.111,68.0971,0.004225
73.143,68.1429,0.004225
73.174,68.1891,0.004225
73.205,68.2377,0.004225
73.236,68.2849,0.004225
73.268,68.3358,0.004225
73.298,68.3842,0.004188
73.329,68.4350,0.004188
73.360,68.4874,0.004188
73.391,68.5381,0.004188
73.423,68.5917,0.004188
73.453,68.6454,0.004188
73.485,68.6994,0.004188
73.517,68.7602,0.004188
73.546,68.8086,0.004188
73.577,68.8651,0.004188
73.607,68.9202,0.004188
73.638,68.9776,0.004188
73.669,69.0368,0.004188
73.701,69.0975,0.004188
73.730,69.1539,0.004188
73.760,69.2118,0.004188
73.793,69.2745,0.004225
73.824,69.3333,0.004225
73.855,69.3897,0.004225
73.885,69.4469,0.004225
73.916,69.5020,0.004225
73.947,69.5580,0.004225
73.977,69.6111,0.004225
74.010,69.6692,0.004225
74.040,69.7204,0.004385
74.073,69.7771,0.004385
74.102,69.8257,0.004385
74.133,69.8772,0.004385
74.165,69.9290,0.004385
74.196,69.9791,0.004385
74.227,70.0290,0.004385
74.258,70.0767,0.004385
74.290,70.1242,0.004564
74.321,70.1721,0.004564
74.352,70.2176,0.004564
74.383,70.2640,0.004564
74.413,70.3067,0.004564
74.444,70.3507,0.004564
74.474,70.3921,0.004564
74.504,70.4339,0.004564
74.535,70.4750,0.004564
74.566,70.5179,0.004564
74.598,70.5580,0.004564
74.630,70.5997,0.004564
74.660,70.6377,0.004564
74.691,70.6759,0.004564
74.722,70.7131,0.004564
74.753,70.7497,0.004564
74.784,70.7863,0.004545
74.815,70.8214,0.004545
74.846,70.8562,0.004545
74.877,70.8891,0.004545
74.908,70.9224,0.004545
74.938,70.9534,0.004545
74.969,70.9852,0.004545
75.001,71.0174,0.004545
75.031,71.0471,0.004555
75.062,71.0768,0.004555
75.093,71.1049,0.004555
75.124,71.1329,0.004555
75.155,71.1598,0.004555
75.186,71.1871,0.004555
75.217,71.2125,0.004555
75.249,71.2383,0.004555
75.279,71.2619,0.004470
75.310,71.2861,0.004470
75.341,71.3088,0.004470
75.372,71.3307,0.004470
75.403,71.3522,0.004470
75.433,71.3729,0.004470
75.464,71.3927,0.004470
75.495,71.4122,0.004470
75.527,71.4311,0.004432
75.558,71.4488,0.004432
75.589,71.4661,0.004432
75.621,71.4830,0.004432
75.652,71.4985,0.004432
75.682,71.5130,0.004432
75.712,71.5272,0.004432
75.744,71.5409,0.004432
75.775,71.5535,0.004451
75.806,71.5656,0.004451
75.837,71.5772,0.004451
75.873,71.5892,0.004451
75.900,71.5979,0.004451
75.930,71.6068,0.004451
75.961,71.6150,0.004451
75.992,71.6228,0.004451
76.024,71.6297,0.004423
76.055,71.6359,0.004423
76.086,71.6416,0.004423
76.117,71.6462,0.004423
76.147,71.6501,0.004423
76.179,71.6535,0.004423
76.209,71.6560,0.004423
76.241,71.6579,0.004423
76.271,71.6590,0.004461
76.301,71.6594,0.004461
76.332,71.6594,0.004461
76.363,71.6594,0.004461
76.395,71.6594,0.004461
76.426,71.6594,0.004461
76.457,71.6594,0.004461
76.487,71.6594,0.004461
76.519,71.6594,0.004451
76.550,71.6594,0.004451
76.581,71.6594,0.004451
76.612,71.6594,0.004451
76.643,71.6594,0.004451
76.675,71.6594,0.004451
76.705,71.6594,0.004451
76.737,71.6594,0.004451
76.769,71.6594,0.004385
76.799,71.6594,0.004385
76.830,71.6594,0.004385
76.862,71.6594,0.004385
76.894,71.6594,0.004385
76.925,71.6594,0.004385
76.956,71.6594,0.004385
76.987,71.6594,0.004385
77.018,71.6594,0.004357
77.050,71.6594,0.004357
77.080,71.6594,0.004357
77.110,71.6594,0.004357
77.140,71.6594,0.004357
77.172,71.6594,0.004357
77.203,71.6594,0.004357
77.235,71.6594,0.004357
77.266,71.6594,0.004357
77.297,71.6594,0.004376
77.328,71.6594,0.004376
77.359,71.6594,0.004376
77.391,71.6594,0.004376
77.422,71.6594,0.004376
77.453,71.6594,0.004376
77.483,71.6594,0.004376
77.516,71.6594,0.004376
77.545,71.6594,0.004376
77.579,71.6594,0.004395
77.608,71.6594,0.004395
77.638,71.6594,0.004395
77.669,71.6594,0.004395
77.701,71.6594,0.004395
77.731,71.6594,0.004395
77.763,71.6594,0.004395
77.793,71.6594,0.004366
77.825,71.6594,0.004366
77.856,71.6594,0.004366
77.887,71.6594,0.004366
77.918,71.6594,0.004366
77.949,71.6594,0.004366
77.980,71.6594,0.004366
78.011,71.6594,0.004366
78.041,71.6594,0.004338
78.072,71.6594,0.004338
78.104,71.6594,0.004338
78.134,71.6594,0.004338
78.166,71.6594,0.004338
78.196,71.6594,0.004338
78.227,71.6594,0.004338
78.258,71.6594,0.004338
78.289,71.6594,0.004338
78.322,71.6594,0.004338
78.351,71.6594,0.004338
78.382,71.6594,0.004338
78.413,71.6594,0.004338
78.443,71.6594,0.004338
78.475,71.6594,0.004338
78.505,71.6594,0.004338
78.536,71.6594,0.004357
78.569,71.6594,0.004357
78.599,71.6594,0.004357
78.631,71.6594,0.004357
78.661,71.6594,0.004357
78.691,71.6594,0.004357
78.723,71.6594,0.004357
78.753,71.6594,0.004357
78.784,71.6594,0.004357
78.815,71.6594,0.004348
78.846,71.6594,0.004348
78.878,71.6594,0.004348
78.909,71.6594,0.004348
78.941,71.6594,0.004348
78.973,71.6594,0.004348
79.008,71.6594,0.004348
79.035,71.6594,0.004348
79.065,71.6594,0.004395
79.097,71.6594,0.004395
79.127,71.6594,0.004395
79.158,71.6594,0.004395
79.188,71.6594,0.004395
79.220,71.6594,0.004395
79.249,71.6594,0.004395
79.281,71.6594,0.004376
79.312,71.6594,0.004376
79.343,71.6594,0.004376
79.377,71.6594,0.004376
79.405,71.6594,0.004376
79.436,71.6594,0.004376
79.468,71.6594,0.004376
79.498,71.6594,0.004376
79.529,71.6594,0.004366
79.561,71.6594,0.004366
79.591,71.6594,0.004366
79.622,71.6594,0.004366
79.652,71.6594,0.004366
79.685,71.6594,0.004366
79.714,71.6594,0.004366
79.745,71.6594,0.004366
79.776,71.6594,0.004376
79.812,71.6594,0.004376
79.852,71.6594,0.004376
79.883,71.6594,0.004376
79.914,71.6594,0.004376
79.945,71.6594,0.004376
79.976,71.6594,0.004376
80.006,71.6594,0.004376
80.038,71.6594,0.004366
80.070,71.6594,0.004366
80.101,71.6594,0.004366
80.133,71.6594,0.004366
80.163,71.6594,0.004366
80.193,71.6594,0.004366
80.225,71.6594,0.004366
80.257,71.6594,0.004366
80.287,71.6594,0.004385
80.318,71.6594,0.004385
80.350,71.6594,0.004385
80.382,71.6594,0.004385
80.412,71.6594,0.004385
80.443,71.6594,0.004385
80.474,71.6594,0.004385
80.505,71.6594,0.004385
80.536,71.6594,0.004376
80.568,71.6594,0.004376
80.598,71.6594,0.004376
80.629,71.6594,0.004376
80.660,71.6594,0.004376
80.692,71.6594,0.004376
80.722,71.6594,0.004376
80.754,71.6594,0.004376
80.785,71.6594,0.004376
80.815,71.6594,0.004376
80.846,71.6594,0.004376
80.876,71.6594,0.004376
80.908,71.6594,0.004376
80.938,71.6591,0.004376
80.970,71.6581,0.004376
81.002,71.6564,0.004376
81.033,71.6539,0.004357
81.065,71.6506,0.004357
81.095,71.6469,0.004357
81.128,71.6419,0.004357
81.158,71.6367,0.004357
81.190,71.6302,0.004357
81.221,71.6237,0.004357
81.252,71.6160,0.004357
81.283,71.6075,0.004366
81.314,71.5985,0.004366
81.345,71.5884,0.004366
81.377,71.5779,0.004366
81.408,71.5666,0.004366
81.440,71.5543,0.004366
81.470,71.5419,0.004366
81.501,71.5287,0.004366
81.532,71.5145,0.004451
81.564,71.4989,0.004451
81.594,71.4840,0.004451
81.626,71.4669,0.004451
81.657,71.4499,0.004451
81.689,71.4314,0.004451
81.720,71.4127,0.004451
81.751,71.3938,0.004451
81.781,71.3740,0.004479
81.813,71.3528,0.004479
81.843,71.3322,0.004479
81.874,71.3096,0.004479
81.906,71.2863,0.004479
81.937,71.2629,0.004479
81.968,71.2376,0.004479
81.999,71.2130,0.004479
82.030,71.1871,0.004526
82.061,71.1606,0.004526
82.092,71.1328,0.004526
82.124,71.1041,0.004526
82.155,71.0760,0.004526
82.185,71.0472,0.004526
82.216,71.0166,0.004526
82.246,70.9870,0.004526
82.277,70.9553,0.004517
82.308,70.9227,0.004517
82.339,70.8903,0.004517
82.370,70.8555,0.004517
82.401,70.8214,0.004517
82.432,70.7855,0.004517
82.462,70.7505,0.004517
82.495,70.7122,0.004517
82.526,70.6751,0.004517
82.557,70.6366,0.004517
82.589,70.5969,0.004517
82.620,70.5561,0.004517
82.650,70.5166,0.004517
82.681,70.4766,0.004517
82.713,70.4334,0.004517
82.743,70.3917,0.004517
82.774,70.3487,0.004545
82.805,70.3045,0.004545
82.837,70.2582,0.004545
82.867,70.2138,0.004545
82.898,70.1681,0.004545
82.931,70.1178,0.004545
82.962,70.0699,0.004545
82.994,70.0200,0.004545
83.023,69.9738,0.004451
83.055,69.9230,0.004451
83.086,69.8721,0.004451
83.117,69.8204,0.004451
83.149,69.7676,0.004451
83.180,69.7133,0.004451
83.212,69.6581,0.004451
83.242,69.6055,0.004451
83.273,69.5502,0.004451
83.305,69.4949,0.004489
83.336,69.4377,0.004489
83.367,69.3798,0.004489
83.397,69.3235,0.004489
83.429,69.2624,0.004489
83.461,69.2022,0.004489
83.490,69.1448,0.004489
83.522,69.0837,0.004489
83.553,69.0236,0.004489
83.583,68.9658,0.004545
83.614,68.9084,0.004545
83.644,68.8515,0.004545
83.676,68.7949,0.004545
83.707,68.7383,0.004545
83.738,68.6824,0.004545
83.770,68.6264,0.004545
83.801,68.5738,0.004366
83.833,68.5180,0.004366
83.864,68.4655,0.004366
83.895,68.4138,0.004366
83.926,68.3636,0.004366
83.958,68.3109,0.004366
83.988,68.2634,0.004366
84.019,68.2150,0.004366
84.051,68.1656,0.004235
84.083,68.1170,0.004235
84.114,68.0710,0.004235
84.144,68.0260,0.004235
84.175,67.9799,0.004235
84.207,67.9355,0.004235
84.238,67.8908,0.004235
84.270,67.8488,0.004235
84.301,67.8045,0.004282
84.333,67.7623,0.004282
84.365,67.7208,0.004282
84.394,67.6826,0.004282
84.426,67.6429,0.004282
84.457,67.6047,0.004282
84.488,67.5662,0.004282
84.518,67.5310,0.004282
84.549,67.4950,0.004253
84.581,67.4582,0.004253
84.612,67.4242,0.004253
84.643,67.3891,0.004253
84.674,67.3565,0.004253
84.705,67.3231,0.004253
84.736,67.2914,0.004253
84.766,67.2609,0.004216
84.797,67.2309,0.004216
84.829,67.2011,0.004216
84.860,67.1718,0.004216
84.891,67.1436,0.004216
84.922,67.1154,0.004216
84.954,67.0880,0.004216
84.986,67.0615,0.004216
85.017,67.0364,0.004216
85.048,67.0111,0.004206
85.080,66.9869,0.004206
85.111,66.9639,0.004206
85.143,66.9413,0.004206
85.174,66.9196,0.004206
85.204,66.8987,0.004206
85.236,66.8782,0.004206
85.266,66.8595,0.004197
85.296,66.8409,0.004197
85.327,66.8232,0.004197
85.358,66.8058,0.004197
85.390,66.7890,0.004197
85.421,66.7731,0.004197
85.452,66.7583,0.004197
85.483,66.7440,0.004197
85.514,66.7302,0.004216
85.545,66.7174,0.004216
85.576,66.7051,0.004216
85.607,66.6936,0.004216
85.638,66.6828,0.004216
85.670,66.6728,0.004216
85.700,66.6637,0.004216
85.729,66.6558,0.004216
85.762,66.6472,0.004263
85.793,66.6403,0.004263
85.824,66.6341,0.004263
85.854,66.6284,0.004263
85.885,66.6237,0.004263
85.916,66.6193,0.004263
85.948,66.6158,0.004263
85.978,66.6132,0.004263
86.009,66.6113,0.004263
86.041,66.6099,0.004244
86.071,66.6094,0.004244
86.102,66.6094,0.004244
86.133,66.6094,0.004244
86.165,66.6094,0.004244
86.196,66.6094,0.004244
86.228,66.6094,0.004244
86.259,66.6094,0.004244
86.290,66.6094,0.004310
86.321,66.6094,0.004310
86.352,66.6094,0.004310
86.384,66.6094,0.004310
86.415,66.6094,0.004310
86.446,66.6094,0.004310
86.477,66.6094,0.004310
86.508,66.6094,0.004376
86.539,66.6094,0.004376
86.570,66.6094,0.004376
86.601,66.6094,0.004376
86.633,66.6094,0.004376
86.663,66.6095,0.004376
86.694,66.6104,0.004376
86.725,66.6119,0.004376
86.756,66.6141,0.004376
86.787,66.6172,0.004338
86.818,66.6208,0.004338
86.849,66.6253,0.004338
86.879,66.6302,0.004338
86.912,66.6367,0.004338
86.940,66.6428,0.004338
86.971,66.6499,0.004338
87.002,66.6580,0.004272
87.034,66.6671,0.004272
87.065,66.6767,0.004272
87.097,66.6868,0.004272
87.127,66.6978,0.004272
87.159,66.7097,0.004272
87.189,66.7220,0.004272
87.220,66.7349,0.004272
87.251,66.7487,0.004272
87.282,66.7636,0.004272
87.313,66.7792,0.004216
87.344,66.7949,0.004216
87.375,66.8115,0.004216
87.405,66.8287,0.004216
87.437,66.8480,0.004216
87.466,66.8656,0.004216
87.500,66.8870,0.004216
87.528,66.9048,0.004216
87.559,66.9266,0.004216
87.589,66.9472,0.004216
87.621,66.9705,0.004216
87.651,66.9931,0.004216
87.681,67.0171,0.004216
87.712,67.0414,0.004216
87.746,67.0695,0.004216
87.775,67.0928,0.004216
87.806,67.1209,0.004216
87.837,67.1478,0.004216
87.868,67.1764,0.004216
87.899,67.2052,0.004216
87.929,67.2348,0.004216
87.960,67.2650,0.004216
87.990,67.2951,0.004216
88.021,67.3274,0.004235
88.058,67.3667,0.004235
88.098,67.4103,0.004235
88.130,67.4452,0.004235
88.161,67.4815,0.004235
88.193,67.5177,0.004235
88.227,67.5574,0.004235
88.255,67.5913,0.004235
88.289,67.6344,0.004225
88.316,67.6677,0.004225
88.349,67.7120,0.004225
88.379,67.7490,0.004225
88.408,67.7871,0.004225
88.440,67.8303,0.004225
88.470,67.8720,0.004225
88.501,67.9151,0.004235
88.532,67.9591,0.004235
88.566,68.0083,0.004235
88.595,68.0494,0.004235
88.626,68.0968,0.004235
88.660,68.1482,0.004235
88.689,68.1922,0.004235
88.720,68.2410,0.004235
88.750,68.2878,0.004235
88.784,68.3432,0.004188
88.813,68.3907,0.004188
88.844,68.4417,0.004188
88.876,68.4964,0.004188
88.906,68.5471,0.004188
88.939,68.6029,0.004188
88.969,68.6553,0.004188
89.000,68.7090,0.004188
89.032,68.7669,0.004169
89.062,68.8230,0.004169
89.094,68.8821,0.004169
89.126,68.9415,0.004169
89.155,68.9959,0.004169
89.187,69.0567,0.004169
89.221,69.1247,0.004169
89.250,69.1792,0.004169
89.280,69.2365,0.004235
89.312,69.2955,0.004235
89.342,69.3532,0.004235
89.373,69.4093,0.004235
89.404,69.4654,0.004235
89.435,69.5200,0.004235
89.465,69.5738,0.004235
89.497,69.6300,0.004235
89.528,69.6821,0.004348
89.558,69.7345,0.004348
89.589,69.7865,0.004348
89.625,69.8450,0.004348
89.651,69.8861,0.004348
89.682,69.9374,0.004348
89.713,69.9872,0.004348
89.744,70.0348,0.004348
89.775,70.0816,0.004508
89.806,70.1282,0.004508
89.837,70.1739,0.004508
89.869,70.2217,0.004508
89.899,70.2649,0.004508
89.931,70.3106,0.004508
89.960,70.3497,0.004508
89.991,70.3927,0.004508
90.023,70.4349,0.004564
90.052,70.4736,0.004564
90.082,70.5133,0.004564
90.113,70.5528,0.004564
90.144,70.5907,0.004564
90.176,70.6301,0.004564
90.206,70.6671,0.004564
90.237,70.7039,0.004564
90.269,70.7397,0.004545
90.299,70.7742,0.004545
90.330,70.8091,0.004545
90.361,70.8428,0.004545
90.392,70.8754,0.004545
90.423,70.9082,0.004545
90.454,70.9392,0.004545
90.485,70.9708,0.004545
90.516,71.0007,0.004545
90.547,71.0297,0.004517
90.579,71.0592,0.004517
90.610,71.0881,0.004517
90.640,71.1138,0.004517
90.671,71.1402,0.004517
90.702,71.1666,0.004517
90.736,71.1945,0.004517
90.765,71.2165,0.004470
90.796,71.2394,0.004470
90.826,71.2623,0.004470
90.857,71.2843,0.004470
90.888,71.3055,0.004470
90.919,71.3265,0.004470
90.950,71.3458,0.004470
90.983,71.3661,0.004470
91.012,71.3840,0.004489
91.043,71.4013,0.004489
91.075,71.4189,0.004489
91.106,71.4354,0.004489
91.137,71.4506,0.004489
91.168,71.4655,0.004489
91.198,71.4794,0.004489
91.229,71.4931,0.004489
91.260,71.5058,0.004470
91.291,71.5174,0.004470
91.322,71.5285,0.004470
91.352,71.5390,0.004470
91.384,71.5487,0.004470
91.414,71.5576,0.004470
91.445,71.5657,0.004470
91.477,71.5737,0.004470
91.507,71.5803,0.004451
91.538,71.5865,0.004451
91.570,71.5919,0.004451
91.601,71.5967,0.004451
91.631,71.6005,0.004451
91.663,71.6039,0.004451
91.694,71.6063,0.004451
91.725,71.6080,0.004451
91.756,71.6091,0.004479
91.787,71.6094,0.004479
91.818,71.6094,0.004479
91.850,71.6094,0.004479
91.882,71.6094,0.004479
91.910,71.6094,0.004479
91.941,71.6094,0.004479
91.973,71.6094,0.004479
92.004,71.6094,0.004479
92.035,71.6094,0.004479
92.067,71.6094,0.004385
92.098,71.6094,0.004385
92.129,71.6094,0.004385
92.159,71.6094,0.004385
92.191,71.6094,0.004385
92.221,71.6094,0.004385
