Elapsed Time (s),Position (mm),Force (N)
-0.024,77.4094,0.004611
0.006,77.4094,0.004611
0.037,77.4094,0.004611
0.068,77.4094,0.004517
0.099,77.4094,0.004517
0.129,77.4094,0.004517
0.161,77.4094,0.004517
0.193,77.4094,0.004517
0.223,77.4094,0.004517
0.254,77.4094,0.004517
0.285,77.4094,0.004442
0.317,77.4094,0.004442
0.348,77.4094,0.004442
0.379,77.4094,0.004442
0.410,77.4094,0.004442
0.441,77.4094,0.004442
0.472,77.4094,0.004442
0.503,77.4094,0.004442
0.534,77.4094,0.004442
0.567,77.4094,0.004517
0.596,77.4094,0.004517
0.627,77.4094,0.004517
0.658,77.4094,0.004517
0.688,77.4094,0.004517
0.719,77.4094,0.004517
0.750,77.4094,0.004517
0.780,77.4094,0.004517
0.810,77.4094,0.004526
0.844,77.4094,0.004526
0.873,77.4094,0.004526
0.903,77.4094,0.004526
0.935,77.4094,0.004526
0.967,77.4094,0.004526
0.998,77.4094,0.004526
1.029,77.4094,0.004470
1.062,77.4094,0.004470
1.090,77.4094,0.004470
1.122,77.4094,0.004470
1.152,77.4094,0.004470
1.183,77.4094,0.004470
1.218,77.4094,0.004470
1.245,77.4094,0.004470
1.276,77.4094,0.004470
1.307,77.4094,0.004461
1.338,77.4094,0.004461
1.366,77.4094,0.004461
1.401,77.4094,0.004461
1.431,77.4094,0.004461
1.463,77.4094,0.004461
1.494,77.4094,0.004461
1.525,77.4094,0.004461
1.556,77.4094,0.004451
1.586,77.4094,0.004451
1.617,77.4094,0.004451
1.648,77.4094,0.004451
1.678,77.4094,0.004451
1.709,77.4094,0.004451
1.741,77.4094,0.004451
1.771,77.4094,0.004451
1.802,77.4094,0.004451
1.833,77.4094,0.004442
1.864,77.4094,0.004442
1.894,77.4094,0.004442
1.926,77.4094,0.004442
1.957,77.4094,0.004442
1.989,77.4094,0.004442
2.019,77.4094,0.004442
2.050,77.4094,0.004442
2.081,77.4094,0.004413
2.112,77.4094,0.004413
2.143,77.4094,0.004413
2.175,77.4094,0.004413
2.205,77.4094,0.004413
2.237,77.4094,0.004413
2.268,77.4094,0.004413
2.299,77.4094,0.004413
2.330,77.4094,0.004451
2.360,77.4094,0.004451
2.391,77.4094,0.004451
2.422,77.4094,0.004451
2.453,77.4094,0.004451
2.484,77.4094,0.004451
2.515,77.4094,0.004451
2.546,77.4094,0.004451
2.577,77.4094,0.004470
2.608,77.4094,0.004470
2.638,77.4094,0.004470
2.669,77.4094,0.004470
2.699,77.4094,0.004470
2.730,77.4094,0.004470
2.761,77.4094,0.004470
2.792,77.4094,0.004470
2.823,77.4094,0.004451
2.854,77.4094,0.004451
2.885,77.4094,0.004451
2.917,77.4094,0.004451
2.948,77.4094,0.004451
2.976,77.4094,0.004451
3.012,77.4094,0.004451
3.042,77.4094,0.004451
3.076,77.4094,0.004451
3.106,77.4094,0.004508
3.136,77.4094,0.004508
3.168,77.4094,0.004508
3.200,77.4094,0.004508
3.231,77.4094,0.004508
3.263,77.4094,0.004508
3.294,77.4094,0.004508
3.325,77.4094,0.004508
3.356,77.4094,0.004508
3.387,77.4094,0.004508
3.418,77.4094,0.004508
3.448,77.4094,0.004508
3.480,77.4094,0.004508
3.510,77.4094,0.004508
3.542,77.4094,0.004508
3.573,77.4094,0.004442
3.605,77.4094,0.004442
3.636,77.4094,0.004442
3.667,77.4094,0.004442
3.699,77.4094,0.004442
3.729,77.4094,0.004442
3.760,77.4094,0.004442
3.791,77.4094,0.004442
3.823,77.4094,0.004413
3.853,77.4094,0.004413
3.884,77.4094,0.004413
3.915,77.4094,0.004413
3.947,77.4094,0.004413
3.978,77.4094,0.004413
4.009,77.4094,0.004413
4.040,77.4094,0.004413
4.073,77.4094,0.004470
4.103,77.4091,0.004470
4.134,77.4082,0.004470
4.169,77.4064,0.004470
4.196,77.4043,0.004470
4.228,77.4010,0.004470
4.259,77.3972,0.004470
4.289,77.3927,0.004470
4.319,77.3878,0.004536
4.350,77.3817,0.004536
4.381,77.3752,0.004536
4.413,77.3676,0.004536
4.442,77.3597,0.004536
4.473,77.3508,0.004536
4.504,77.3413,0.004536
4.535,77.3310,0.004536
4.566,77.3199,0.004536
4.597,77.3084,0.004573
4.627,77.2964,0.004573
4.658,77.2830,0.004573
4.689,77.2693,0.004573
4.719,77.2548,0.004573
4.750,77.2398,0.004573
4.781,77.2238,0.004573
4.812,77.2066,0.004630
4.843,77.1888,0.004630
4.873,77.1717,0.004630
4.905,77.1523,0.004630
4.935,77.1333,0.004630
4.966,77.1129,0.004630
4.996,77.0921,0.004630
5.027,77.0701,0.004630
5.058,77.0478,0.004602
5.088,77.0249,0.004602
5.120,77.0008,0.004602
5.150,76.9761,0.004602
5.182,76.9505,0.004602
5.213,76.9233,0.004602
5.245,76.8966,0.004602
5.275,76.8687,0.004602
5.305,76.8418,0.004564
5.336,76.8128,0.004564
5.367,76.7827,0.004564
5.401,76.7488,0.004564
5.430,76.7200,0.004564
5.462,76.6874,0.004564
5.493,76.6534,0.004564
5.525,76.6198,0.004564
5.555,76.5863,0.004573
5.586,76.5511,0.004573
5.617,76.5151,0.004573
5.649,76.4783,0.004573
5.679,76.4423,0.004573
5.710,76.4041,0.004573
5.740,76.3672,0.004573
5.772,76.3260,0.004573
5.802,76.2872,0.004564
5.834,76.2460,0.004564
5.864,76.2061,0.004564
5.896,76.1612,0.004564
5.927,76.1181,0.004564
5.958,76.0736,0.004564
5.988,76.0319,0.004564
6.018,75.9872,0.004564
6.050,75.9419,0.004602
6.081,75.8937,0.004602
6.112,75.8455,0.004602
6.143,75.7985,0.004602
6.174,75.7509,0.004602
6.205,75.7013,0.004602
6.236,75.6516,0.004602
6.267,75.5999,0.004602
6.298,75.5481,0.004611
6.329,75.4947,0.004611
6.361,75.4410,0.004611
6.393,75.3853,0.004611
6.423,75.3326,0.004611
6.454,75.2765,0.004611
6.486,75.2193,0.004611
6.518,75.1614,0.004611
6.549,75.1043,0.004583
6.579,75.0453,0.004583
6.610,74.9877,0.004583
6.645,74.9208,0.004583
6.672,74.8679,0.004583
6.703,74.8072,0.004583
6.735,74.7473,0.004583
6.766,74.6882,0.004583
6.797,74.6297,0.004536
6.827,74.5734,0.004536
6.858,74.5169,0.004536
6.889,74.4622,0.004536
6.920,74.4069,0.004536
6.951,74.3518,0.004536
6.982,74.2979,0.004536
7.014,74.2449,0.004536
7.044,74.1929,0.004423
7.076,74.1423,0.004423
7.106,74.0912,0.004423
7.137,74.0417,0.004423
7.169,73.9926,0.004423
7.200,73.9441,0.004423
7.231,73.8969,0.004423
7.263,73.8486,0.004423
7.293,73.8041,0.004423
7.323,73.7590,0.004310
7.355,73.7138,0.004310
7.387,73.6673,0.004310
7.417,73.6256,0.004310
7.448,73.5834,0.004310
7.479,73.5416,0.004310
7.510,73.4994,0.004310
7.542,73.4590,0.004310
7.575,73.4164,0.004319
7.604,73.3800,0.004319
7.636,73.3411,0.004319
7.668,73.3026,0.004319
7.697,73.2675,0.004319
7.728,73.2315,0.004319
7.758,73.1973,0.004319
7.789,73.1630,0.004319
7.820,73.1287,0.004319
7.851,73.0962,0.004338
7.883,73.0623,0.004338
7.914,73.0311,0.004338
7.945,72.9997,0.004338
7.977,72.9677,0.004338
8.007,72.9409,0.004338
8.038,72.9120,0.004338
8.068,72.8847,0.004338
8.099,72.8574,0.004319
8.131,72.8297,0.004319
8.162,72.8046,0.004319
8.194,72.7787,0.004319
8.226,72.7536,0.004319
8.257,72.7297,0.004319
8.289,72.7056,0.004319
8.320,72.6846,0.004329
8.351,72.6626,0.004329
8.379,72.6441,0.004329
8.413,72.6223,0.004329
8.443,72.6032,0.004329
8.474,72.5853,0.004329
8.505,72.5671,0.004329
8.535,72.5507,0.004329
8.566,72.5344,0.004319
8.596,72.5190,0.004319
8.627,72.5043,0.004319
8.658,72.4901,0.004319
8.690,72.4766,0.004319
8.721,72.4634,0.004319
8.752,72.4516,0.004319
8.783,72.4404,0.004319
8.814,72.4301,0.004319
8.845,72.4201,0.004348
8.876,72.4111,0.004348
8.909,72.4022,0.004348
8.939,72.3951,0.004348
8.970,72.3883,0.004348
9.001,72.3822,0.004348
9.032,72.3767,0.004348
9.063,72.3720,0.004423
9.095,72.3680,0.004423
9.125,72.3648,0.004423
9.156,72.3625,0.004423
9.187,72.3607,0.004423
9.219,72.3596,0.004423
9.249,72.3594,0.004423
9.280,72.3594,0.004423
9.311,72.3594,0.004432
9.342,72.3594,0.004432
9.372,72.3597,0.004432
9.403,72.3609,0.004432
9.434,72.3626,0.004432
9.465,72.3651,0.004432
9.496,72.3684,0.004432
9.527,72.3725,0.004432
9.558,72.3770,0.004432
9.589,72.3827,0.004432
9.619,72.3886,0.004432
9.651,72.3956,0.004432
9.680,72.4029,0.004432
9.711,72.4112,0.004432
9.742,72.4201,0.004432
9.774,72.4302,0.004432
9.805,72.4407,0.004385
9.836,72.4523,0.004385
9.868,72.4643,0.004385
9.899,72.4773,0.004385
9.930,72.4908,0.004385
9.960,72.5041,0.004385
9.993,72.5201,0.004385
10.026,72.5363,0.004385
10.056,72.5523,0.004319
10.086,72.5692,0.004319
10.117,72.5871,0.004319
10.149,72.6059,0.004319
10.180,72.6254,0.004319
10.211,72.6459,0.004319
10.242,72.6663,0.004319
10.273,72.6879,0.004319
10.304,72.7102,0.004319
10.335,72.7334,0.004301
10.366,72.7571,0.004301
10.397,72.7815,0.004301
10.428,72.8063,0.004301
10.460,72.8331,0.004301
10.491,72.8594,0.004301
10.522,72.8865,0.004301
10.554,72.9152,0.004301
10.585,72.9443,0.004291
10.615,72.9733,0.004291
10.646,73.0032,0.004291
10.677,73.0348,0.004291
10.708,73.0659,0.004291
10.739,73.0987,0.004291
10.771,73.1331,0.004291
10.800,73.1651,0.004338
10.832,73.2005,0.004338
10.862,73.2346,0.004338
10.893,73.2713,0.004338
10.924,73.3075,0.004338
10.955,73.3458,0.004338
10.985,73.3821,0.004338
11.016,73.4216,0.004338
11.048,73.4613,0.004338
11.079,73.5024,0.004376
11.110,73.5433,0.004376
11.141,73.5855,0.004376
11.172,73.6268,0.004376
11.202,73.6694,0.004376
11.233,73.7132,0.004376
11.264,73.7579,0.004376
11.295,73.8040,0.004404
11.326,73.8490,0.004404
11.357,73.8968,0.004404
11.388,73.9445,0.004404
11.419,73.9924,0.004404
11.450,74.0417,0.004404
11.481,74.0918,0.004404
11.512,74.1422,0.004404
11.543,74.1931,0.004404
11.573,74.2428,0.004395
11.605,74.2974,0.004395
11.635,74.3511,0.004395
11.667,74.4053,0.004395
11.698,74.4624,0.004395
11.728,74.5164,0.004395
11.760,74.5737,0.004395
11.791,74.6302,0.004338
11.822,74.6884,0.004338
11.852,74.7458,0.004338
11.883,74.8046,0.004338
11.914,74.8654,0.004338
11.945,74.9243,0.004338
11.977,74.9853,0.004338
12.008,75.0430,0.004338
12.039,75.1025,0.004395
12.070,75.1577,0.004395
12.097,75.2067,0.004395
12.132,75.2704,0.004395
12.164,75.3258,0.004395
12.195,75.3800,0.004395
12.225,75.4322,0.004395
12.256,75.4840,0.004395
12.287,75.5373,0.004395
12.318,75.5870,0.004555
12.348,75.6369,0.004555
12.379,75.6864,0.004555
12.410,75.7352,0.004555
12.442,75.7846,0.004555
12.472,75.8303,0.004555
12.503,75.8764,0.004555
12.533,75.9217,0.004555
12.565,75.9687,0.004611
12.596,76.0127,0.004611
12.626,76.0560,0.004611
12.657,76.0993,0.004611
12.688,76.1411,0.004611
12.718,76.1825,0.004611
12.750,76.2238,0.004611
12.781,76.2642,0.004658
12.811,76.3038,0.004658
12.843,76.3428,0.004658
12.874,76.3822,0.004658
12.904,76.4173,0.004658
12.934,76.4536,0.004658
12.965,76.4882,0.004658
12.996,76.5251,0.004658
13.028,76.5590,0.004658
13.059,76.5935,0.004649
13.089,76.6253,0.004649
13.120,76.6576,0.004649
13.151,76.6891,0.004649
13.183,76.7210,0.004649
13.214,76.7517,0.004649
13.246,76.7813,0.004649
13.277,76.8096,0.004649
13.308,76.8386,0.004649
13.339,76.8648,0.004649
13.371,76.8918,0.004649
13.401,76.9172,0.004649
13.433,76.9430,0.004649
13.463,76.9663,0.004649
13.494,76.9899,0.004649
13.525,77.0125,0.004649
13.556,77.0347,0.004649
13.586,77.0554,0.004677
13.618,77.0768,0.004677
13.648,77.0962,0.004677
13.679,77.1154,0.004677
13.711,77.1346,0.004677
13.740,77.1510,0.004677
13.771,77.1683,0.004677
13.803,77.1851,0.004620
13.833,77.2001,0.004620
13.864,77.2148,0.004620
13.896,77.2295,0.004620
13.926,77.2424,0.004620
13.957,77.2552,0.004620
13.988,77.2670,0.004620
14.020,77.2788,0.004620
14.051,77.2892,0.004602
14.082,77.2987,0.004602
14.112,77.3075,0.004602
14.143,77.3160,0.004602
14.174,77.3235,0.004602
14.205,77.3305,0.004602
14.235,77.3364,0.004602
14.267,77.3419,0.004602
14.297,77.3465,0.004620
14.329,77.3506,0.004620
14.360,77.3538,0.004620
14.391,77.3563,0.004620
14.422,77.3580,0.004620
14.454,77.3591,0.004620
14.485,77.3594,0.004620
14.516,77.3594,0.004620
14.547,77.3594,0.004620
14.578,77.3594,0.004620
14.609,77.3594,0.004611
14.640,77.3594,0.004611
14.670,77.3594,0.004611
14.701,77.3594,0.004611
14.732,77.3594,0.004611
14.764,77.3594,0.004611
14.793,77.3594,0.004611
14.825,77.3594,0.004545
14.856,77.3594,0.004545
14.887,77.3594,0.004545
14.919,77.3594,0.004545
14.950,77.3594,0.004545
14.981,77.3594,0.004545
15.013,77.3594,0.004545
15.042,77.3594,0.004545
15.074,77.3594,0.004545
15.105,77.3594,0.004470
15.135,77.3594,0.004470
15.167,77.3594,0.004470
15.197,77.3594,0.004470
15.228,77.3594,0.004470
15.260,77.3594,0.004470
15.290,77.3594,0.004470
15.321,77.3594,0.004470
15.351,77.3594,0.004470
15.382,77.3594,0.004470
15.413,77.3594,0.004470
15.444,77.3594,0.004470
15.475,77.3594,0.004470
15.506,77.3594,0.004470
15.538,77.3594,0.004470
15.569,77.3594,0.004479
15.599,77.3594,0.004479
15.631,77.3594,0.004479
15.662,77.3594,0.004479
15.692,77.3594,0.004479
15.723,77.3594,0.004479
15.754,77.3594,0.004479
15.785,77.3594,0.004479
15.816,77.3594,0.004479
15.846,77.3594,0.004479
15.877,77.3594,0.004479
15.909,77.3594,0.004479
15.939,77.3594,0.004479
15.971,77.3594,0.004479
16.002,77.3594,0.004479
16.033,77.3594,0.004479
16.064,77.3594,0.004479
16.095,77.3594,0.004461
16.126,77.3594,0.004461
16.157,77.3594,0.004461
16.188,77.3594,0.004461
16.219,77.3594,0.004461
16.250,77.3594,0.004461
16.282,77.3594,0.004461
16.313,77.3594,0.004461
16.347,77.3594,0.004461
16.374,77.3594,0.004461
16.406,77.3594,0.004461
16.438,77.3594,0.004461
16.469,77.3594,0.004461
16.499,77.3594,0.004461
16.531,77.3594,0.004461
16.563,77.3594,0.004461
16.593,77.3594,0.004508
16.624,77.3594,0.004508
16.658,77.3594,0.004508
16.685,77.3594,0.004508
16.716,77.3594,0.004508
16.748,77.3594,0.004508
16.785,77.3594,0.004508
16.825,77.3594,0.004508
16.856,77.3594,0.004498
16.887,77.3594,0.004498
16.918,77.3594,0.004498
16.948,77.3594,0.004498
16.980,77.3594,0.004498
17.012,77.3594,0.004498
17.044,77.3594,0.004498
17.074,77.3594,0.004470
17.109,77.3594,0.004470
17.136,77.3594,0.004470
17.168,77.3594,0.004470
17.198,77.3594,0.004470
17.229,77.3594,0.004470
17.260,77.3594,0.004470
17.291,77.3594,0.004470
17.322,77.3594,0.004470
17.353,77.3594,0.004508
17.385,77.3594,0.004508
17.416,77.3594,0.004508
17.449,77.3594,0.004508
17.478,77.3594,0.004508
17.510,77.3594,0.004508
17.543,77.3594,0.004508
17.571,77.3594,0.004498
17.603,77.3594,0.004498
17.633,77.3594,0.004498
17.664,77.3594,0.004498
17.695,77.3594,0.004498
17.726,77.3594,0.004498
17.757,77.3594,0.004498
17.788,77.3594,0.004498
17.820,77.3594,0.004461
17.851,77.3594,0.004461
17.882,77.3594,0.004461
17.914,77.3594,0.004461
17.944,77.3594,0.004461
17.976,77.3594,0.004461
18.007,77.3594,0.004461
18.038,77.3594,0.004461
18.069,77.3594,0.004451
18.100,77.3594,0.004451
18.131,77.3594,0.004451
18.163,77.3594,0.004451
18.194,77.3594,0.004451
18.226,77.3594,0.004451
18.258,77.3594,0.004451
18.288,77.3594,0.004451
18.319,77.3594,0.004451
18.349,77.3594,0.004451
18.380,77.3594,0.004451
18.411,77.3594,0.004451
18.442,77.3594,0.004451
18.474,77.3594,0.004451
18.504,77.3594,0.004451
18.535,77.3594,0.004451
18.566,77.3594,0.004461
18.596,77.3594,0.004461
18.628,77.3594,0.004461
18.659,77.3594,0.004461
18.691,77.3594,0.004461
18.721,77.3594,0.004461
18.752,77.3594,0.004461
18.783,77.3589,0.004461
18.815,77.3576,0.004479
18.846,77.3558,0.004479
18.877,77.3532,0.004479
18.907,77.3499,0.004479
18.939,77.3457,0.004479
18.970,77.3408,0.004479
19.003,77.3349,0.004479
19.033,77.3287,0.004479
19.064,77.3218,0.004620
19.095,77.3141,0.004620
19.126,77.3054,0.004620
19.156,77.2965,0.004620
19.188,77.2862,0.004620
19.219,77.2757,0.004620
19.252,77.2636,0.004620
19.282,77.2517,0.004620
19.312,77.2392,0.004620
19.344,77.2254,0.004686
19.376,77.2104,0.004686
19.407,77.1955,0.004686
19.439,77.1790,0.004686
19.469,77.1624,0.004686
19.500,77.1459,0.004686
19.532,77.1273,0.004686
19.563,77.1090,0.004686
19.594,77.0891,0.004602
19.624,77.0692,0.004602
19.655,77.0491,0.004602
19.686,77.0269,0.004602
19.716,77.0053,0.004602
19.749,76.9801,0.004602
19.779,76.9574,0.004602
19.811,76.9324,0.004602
19.841,76.9080,0.004620
19.873,76.8809,0.004620
19.902,76.8560,0.004620
19.933,76.8283,0.004620
19.964,76.8006,0.004620
19.994,76.7720,0.004620
20.025,76.7424,0.004620
20.057,76.7122,0.004620
20.086,76.6823,0.004639
20.118,76.6507,0.004639
20.149,76.6176,0.004639
20.181,76.5832,0.004639
20.212,76.5494,0.004639
20.243,76.5145,0.004639
20.274,76.4787,0.004639
20.305,76.4432,0.004639
20.337,76.4053,0.004677
20.367,76.3682,0.004677
20.398,76.3308,0.004677
20.430,76.2898,0.004677
20.460,76.2515,0.004677
20.491,76.2100,0.004677
20.522,76.1699,0.004677
20.552,76.1287,0.004677
20.583,76.0854,0.004658
20.614,76.0414,0.004658
20.645,75.9990,0.004658
20.676,75.9534,0.004658
20.707,75.9078,0.004658
20.738,75.8613,0.004658
20.769,75.8150,0.004658
20.800,75.7655,0.004658
20.831,75.7185,0.004602
20.862,75.6689,0.004602
20.893,75.6193,0.004602
20.924,75.5674,0.004602
20.955,75.5170,0.004602
20.987,75.4638,0.004602
21.018,75.4107,0.004602
21.049,75.3573,0.004602
21.080,75.3031,0.004573
21.111,75.2460,0.004573
21.142,75.1922,0.004573
21.173,75.1348,0.004573
21.204,75.0788,0.004573
21.235,75.0203,0.004573
21.266,74.9599,0.004573
21.298,74.8995,0.004573
21.329,74.8395,0.004573
21.360,74.7799,0.004573
21.390,74.7205,0.004573
21.421,74.6626,0.004573
21.452,74.6042,0.004573
21.483,74.5476,0.004573
21.514,74.4902,0.004573
21.545,74.4351,0.004573
21.574,74.3826,0.004442
21.605,74.3275,0.004442
21.637,74.2733,0.004442
21.667,74.2198,0.004442
21.698,74.1687,0.004442
21.729,74.1169,0.004442
21.761,74.0653,0.004442
21.792,74.0156,0.004442
21.823,73.9657,0.004291
21.854,73.9165,0.004291
21.885,73.8686,0.004291
21.917,73.8205,0.004291
21.947,73.7734,0.004291
21.978,73.7293,0.004291
22.009,73.6843,0.004291
22.040,73.6399,0.004291
22.072,73.5940,0.004272
22.102,73.5520,0.004272
22.133,73.5112,0.004272
22.164,73.4690,0.004272
22.195,73.4284,0.004272
22.227,73.3869,0.004272
22.257,73.3493,0.004272
22.288,73.3104,0.004272
22.319,73.2738,0.004319
22.351,73.2345,0.004319
22.380,73.2001,0.004319
22.413,73.1622,0.004319
22.444,73.1281,0.004319
22.474,73.0949,0.004319
22.505,73.0618,0.004319
22.535,73.0293,0.004319
22.567,72.9964,0.004329
22.597,72.9666,0.004329
22.629,72.9357,0.004329
22.659,72.9056,0.004329
22.691,72.8764,0.004329
22.723,72.8468,0.004329
22.754,72.8191,0.004329
22.785,72.7921,0.004329
22.816,72.7663,0.004329
22.847,72.7404,0.004272
22.878,72.7168,0.004272
22.910,72.6914,0.004272
22.938,72.6699,0.004272
22.970,72.6467,0.004272
23.001,72.6255,0.004272
23.033,72.6036,0.004272
23.064,72.5831,0.004301
23.095,72.5641,0.004301
23.125,72.5449,0.004301
23.161,72.5244,0.004301
23.187,72.5094,0.004301
23.219,72.4926,0.004301
23.249,72.4771,0.004301
23.281,72.4617,0.004301
23.311,72.4475,0.004319
23.342,72.4334,0.004319
23.372,72.4208,0.004319
23.404,72.4084,0.004319
23.433,72.3969,0.004319
23.464,72.3862,0.004319
23.494,72.3766,0.004319
23.525,72.3671,0.004319
23.555,72.3584,0.004348
23.585,72.3506,0.004348
23.617,72.3429,0.004348
23.648,72.3364,0.004348
23.679,72.3303,0.004348
23.710,72.3253,0.004348
23.741,72.3207,0.004348
23.774,72.3170,0.004348
23.803,72.3141,0.004348
23.834,72.3119,0.004376
23.867,72.3103,0.004376
23.896,72.3095,0.004376
23.923,72.3094,0.004376
23.958,72.3094,0.004376
23.989,72.3094,0.004376
24.019,72.3094,0.004376
24.051,72.3094,0.004338
24.082,72.3095,0.004338
24.113,72.3104,0.004338
24.144,72.3120,0.004338
24.175,72.3142,0.004338
24.205,72.3172,0.004338
24.236,72.3209,0.004338
24.268,72.3255,0.004338
24.299,72.3307,0.004338
24.330,72.3365,0.004319
24.361,72.3434,0.004319
24.392,72.3507,0.004319
24.423,72.3589,0.004319
24.455,72.3680,0.004319
24.486,72.3776,0.004319
24.517,72.3878,0.004319
24.548,72.3991,0.004301
24.579,72.4107,0.004301
24.611,72.4237,0.004301
24.642,72.4369,0.004301
24.673,72.4509,0.004301
24.703,72.4657,0.004301
24.735,72.4808,0.004301
24.766,72.4972,0.004301
24.796,72.5137,0.004301
24.827,72.5310,0.004357
24.858,72.5491,0.004357
24.888,72.5681,0.004357
24.920,72.5881,0.004357
24.951,72.6089,0.004357
24.982,72.6297,0.004357
25.013,72.6519,0.004357
25.043,72.6743,0.004338
25.075,72.6980,0.004338
25.106,72.7223,0.004338
25.136,72.7464,0.004338
25.168,72.7734,0.004338
25.200,72.7998,0.004338
25.231,72.8269,0.004338
25.263,72.8556,0.004338
25.294,72.8841,0.004366
25.325,72.9144,0.004366
25.355,72.9422,0.004366
25.386,72.9730,0.004366
25.416,73.0042,0.004366
25.447,73.0358,0.004366
25.478,73.0687,0.004366
25.510,73.1034,0.004366
25.541,73.1376,0.004442
25.571,73.1722,0.004442
25.602,73.2069,0.004442
25.632,73.2427,0.004442
25.663,73.2804,0.004442
25.693,73.3172,0.004442
25.725,73.3568,0.004442
25.756,73.3962,0.004442
25.787,73.4360,0.004338
25.819,73.4783,0.004338
25.849,73.5185,0.004338
25.881,73.5629,0.004338
25.912,73.6054,0.004338
25.943,73.6506,0.004338
25.974,73.6941,0.004338
26.006,73.7415,0.004338
26.037,73.7856,0.004338
26.068,73.8333,0.004319
26.099,73.8795,0.004319
26.130,73.9296,0.004319
26.162,73.9794,0.004319
26.191,74.0267,0.004319
26.222,74.0759,0.004319
26.253,74.1272,0.004319
26.284,74.1790,0.004319
26.316,74.2326,0.004357
26.346,74.2848,0.004357
26.378,74.3406,0.004357
26.408,74.3932,0.004357
26.438,74.4474,0.004357
26.468,74.5029,0.004357
26.499,74.5589,0.004357
26.530,74.6166,0.004357
26.561,74.6743,0.004357
26.591,74.7323,0.004357
26.623,74.7928,0.004329
26.653,74.8510,0.004329
26.684,74.9113,0.004329
26.715,74.9678,0.004329
26.746,75.0270,0.004329
26.776,75.0825,0.004329
26.807,75.1384,0.004329
26.838,75.1952,0.004385
26.868,75.2482,0.004385
26.900,75.3036,0.004385
26.932,75.3604,0.004385
26.963,75.4127,0.004385
26.995,75.4654,0.004385
27.025,75.5156,0.004385
27.056,75.5675,0.004385
27.088,75.6196,0.004508
27.119,75.6683,0.004508
27.150,75.7161,0.004508
27.181,75.7642,0.004508
27.212,75.8112,0.004508
27.243,75.8574,0.004508
27.274,75.9033,0.004508
27.306,75.9489,0.004508
27.337,75.9937,0.004564
27.368,76.0372,0.004564
27.399,76.0796,0.004564
27.430,76.1220,0.004564
27.462,76.1640,0.004564
27.493,76.2048,0.004564
27.525,76.2446,0.004564
27.555,76.2838,0.004620
27.586,76.3214,0.004620
27.617,76.3594,0.004620
27.648,76.3953,0.004620
27.680,76.4323,0.004620
27.710,76.4673,0.004620
27.740,76.5006,0.004620
27.771,76.5355,0.004620
27.802,76.5677,0.004611
27.833,76.6002,0.004611
27.863,76.6314,0.004611
27.894,76.6624,0.004611
27.925,76.6930,0.004611
27.957,76.7231,0.004611
27.988,76.7523,0.004611
28.019,76.7802,0.004611
28.050,76.8076,0.004611
28.081,76.8343,0.004583
28.113,76.8604,0.004583
28.143,76.8852,0.004583
28.175,76.9099,0.004583
28.206,76.9341,0.004583
28.237,76.9572,0.004583
28.267,76.9791,0.004583
28.299,77.0007,0.004583
28.329,77.0209,0.004583
28.360,77.0409,0.004583
28.391,77.0611,0.004583
28.422,77.0791,0.004583
28.453,77.0977,0.004583
28.484,77.1144,0.004583
28.515,77.1310,0.004583
28.546,77.1465,0.004536
28.576,77.1616,0.004536
28.608,77.1761,0.004536
28.639,77.1898,0.004536
28.672,77.2031,0.004536
28.702,77.2153,0.004536
28.733,77.2264,0.004536
28.765,77.2376,0.004536
28.797,77.2473,0.004498
28.829,77.2568,0.004498
28.859,77.2649,0.004498
28.890,77.2726,0.004498
28.921,77.2796,0.004498
28.953,77.2859,0.004498
28.984,77.2915,0.004498
29.015,77.2962,0.004498
29.045,77.3001,0.004498
29.076,77.3034,0.004536
29.107,77.3060,0.004536
29.138,77.3079,0.004536
29.170,77.3090,0.004536
29.201,77.3094,0.004536
29.231,77.3094,0.004536
29.263,77.3094,0.004536
29.294,77.3094,0.004536
29.325,77.3094,0.004545
29.356,77.3094,0.004545
29.388,77.3094,0.004545
29.418,77.3094,0.004545
29.449,77.3094,0.004545
29.481,77.3094,0.004545
29.512,77.3094,0.004545
29.544,77.3094,0.004526
29.575,77.3094,0.004526
29.606,77.3094,0.004526
29.637,77.3094,0.004526
29.669,77.3094,0.004526
29.700,77.3094,0.004526
29.730,77.3094,0.004526
29.761,77.3094,0.004526
29.792,77.3094,0.004526
29.823,77.3094,0.004479
29.854,77.3094,0.004479
29.885,77.3094,0.004479
29.916,77.3094,0.004479
29.948,77.3094,0.004479
29.977,77.3094,0.004479
30.008,77.3094,0.004479
30.039,77.3094,0.004479
30.069,77.3094,0.004461
30.100,77.3094,0.004461
30.130,77.3094,0.004461
30.162,77.3094,0.004461
30.193,77.3094,0.004461
30.225,77.3094,0.004461
30.256,77.3094,0.004461
30.287,77.3094,0.004461
30.318,77.3094,0.004451
30.349,77.3094,0.004451
30.382,77.3094,0.004451
30.412,77.3094,0.004451
30.443,77.3094,0.004451
30.474,77.3094,0.004451
30.505,77.3094,0.004451
30.537,77.3094,0.004451
30.568,77.3094,0.004423
30.600,77.3094,0.004423
30.631,77.3094,0.004423
30.662,77.3094,0.004423
30.693,77.3094,0.004423
30.724,77.3094,0.004423
30.756,77.3094,0.004423
30.788,77.3094,0.004423
30.819,77.3094,0.004432
30.850,77.3094,0.004432
30.881,77.3094,0.004432
30.912,77.3094,0.004432
30.943,77.3094,0.004432
30.976,77.3094,0.004432
31.004,77.3094,0.004432
31.036,77.3094,0.004432
31.067,77.3094,0.004432
31.097,77.3094,0.004461
31.129,77.3094,0.004461
31.160,77.3094,0.004461
31.190,77.3094,0.004461
31.221,77.3094,0.004461
31.253,77.3094,0.004461
31.283,77.3094,0.004461
31.313,77.3094,0.004470
31.344,77.3094,0.004470
31.375,77.3094,0.004470
31.406,77.3094,0.004470
31.438,77.3094,0.004470
31.468,77.3094,0.004470
31.499,77.3094,0.004470
31.530,77.3094,0.004470
31.561,77.3094,0.004461
31.595,77.3094,0.004461
31.623,77.3094,0.004461
31.654,77.3094,0.004461
31.685,77.3094,0.004461
31.715,77.3094,0.004461
31.749,77.3094,0.004461
31.778,77.3094,0.004461
31.808,77.3094,0.004470
31.839,77.3094,0.004470
31.869,77.3094,0.004470
31.901,77.3094,0.004470
31.932,77.3094,0.004470
31.964,77.3094,0.004470
31.994,77.3094,0.004470
32.025,77.3094,0.004470
32.055,77.3094,0.004489
32.087,77.3094,0.004489
32.117,77.3094,0.004489
32.149,77.3094,0.004489
32.180,77.3094,0.004489
32.211,77.3094,0.004489
32.241,77.3094,0.004489
32.272,77.3094,0.004489
32.303,77.3094,0.004489
32.335,77.3094,0.004489
32.366,77.3094,0.004489
32.399,77.3094,0.004489
32.428,77.3094,0.004489
32.458,77.3094,0.004489
32.489,77.3094,0.004489
32.520,77.3094,0.004489
32.551,77.3094,0.004489
32.582,77.3094,0.004489
32.613,77.3094,0.004489
32.645,77.3094,0.004489
32.674,77.3094,0.004489
32.705,77.3094,0.004489
32.736,77.3094,0.004489
32.767,77.3094,0.004489
32.799,77.3094,0.004479
32.830,77.3094,0.004479
32.861,77.3094,0.004479
32.892,77.3094,0.004479
32.924,77.3094,0.004479
32.955,77.3094,0.004479
32.985,77.3094,0.004479
33.016,77.3094,0.004479
33.048,77.3094,0.004479
33.079,77.3094,0.004451
33.110,77.3094,0.004451
33.141,77.3094,0.004451
33.172,77.3094,0.004451
33.203,77.3094,0.004451
33.234,77.3094,0.004451
33.265,77.3094,0.004451
33.296,77.3094,0.004423
33.326,77.3094,0.004423
33.357,77.3094,0.004423
33.388,77.3094,0.004423
33.419,77.3094,0.004423
33.444,77.3094,0.004423
33.482,77.3094,0.004423
33.512,77.3094,0.004423
33.543,77.3094,0.004432
33.569,77.3094,0.004432
33.605,77.3094,0.004432
33.636,77.3094,0.004432
33.667,77.3094,0.004432
33.700,77.3094,0.004432
33.729,77.3094,0.004432
33.760,77.3094,0.004432
33.791,77.3094,0.004432
33.822,77.3094,0.004432
33.853,77.3094,0.004432
33.884,77.3094,0.004432
33.914,77.3094,0.004432
33.945,77.3094,0.004432
33.976,77.3094,0.004432
34.007,77.3094,0.004432
34.038,77.3094,0.004404
34.069,77.3094,0.004404
34.099,77.3094,0.004404
34.129,77.3094,0.004404
34.162,77.3094,0.004404
34.191,77.3094,0.004404
34.222,77.3093,0.004404
34.253,77.3085,0.004404
34.284,77.3069,0.004404
34.315,77.3048,0.004413
34.346,77.3018,0.004413
34.377,77.2981,0.004413
34.409,77.2935,0.004413
34.440,77.2883,0.004413
34.477,77.2812,0.004413
34.503,77.2755,0.004413
34.534,77.2685,0.004413
34.564,77.2605,0.004498
34.597,77.2512,0.004498
34.626,77.2423,0.004498
34.658,77.2316,0.004498
34.689,77.2207,0.004498
34.720,77.2088,0.004498
34.751,77.1962,0.004498
34.781,77.1835,0.004498
34.812,77.1700,0.004573
34.844,77.1549,0.004573
34.873,77.1400,0.004573
34.905,77.1236,0.004573
34.935,77.1071,0.004573
34.966,77.0900,0.004573
34.997,77.0718,0.004573
35.028,77.0532,0.004573
35.059,77.0331,0.004602
35.090,77.0131,0.004602
35.121,76.9914,0.004602
35.151,76.9703,0.004602
35.182,76.9472,0.004602
35.213,76.9247,0.004602
35.246,76.8985,0.004602
35.275,76.8762,0.004602
35.306,76.8500,0.004602
35.339,76.8221,0.004677
35.368,76.7969,0.004677
35.400,76.7690,0.004677
35.431,76.7400,0.004677
35.462,76.7113,0.004677
35.492,76.6817,0.004677
35.523,76.6508,0.004677
35.555,76.6191,0.004620
35.586,76.5872,0.004620
35.616,76.5551,0.004620
35.649,76.5206,0.004620
35.679,76.4865,0.004620
35.709,76.4526,0.004620
35.743,76.4142,0.004620
35.771,76.3812,0.004620
35.802,76.3434,0.004620
35.831,76.3081,0.004564
35.862,76.2688,0.004564
35.894,76.2294,0.004564
35.926,76.1864,0.004564
35.957,76.1475,0.004564
35.987,76.1064,0.004564
36.018,76.0642,0.004564
36.050,76.0208,0.004564
36.081,75.9761,0.004630
36.115,75.9278,0.004630
36.143,75.8880,0.004630
36.173,75.8434,0.004630
36.204,75.7973,0.004630
36.234,75.7505,0.004630
36.265,75.7032,0.004630
36.303,75.6420,0.004630
36.342,75.5804,0.004611
36.373,75.5290,0.004611
36.406,75.4767,0.004611
36.440,75.4178,0.004611
36.467,75.3720,0.004611
36.499,75.3158,0.004611
36.531,75.2613,0.004611
36.562,75.2043,0.004611
36.594,75.1491,0.004583
36.625,75.0920,0.004583
36.656,75.0343,0.004583
36.694,74.9634,0.004583
36.734,74.8882,0.004583
36.765,74.8288,0.004583
36.799,74.7616,0.004583
36.827,74.7074,0.004583
36.858,74.6496,0.004620
36.888,74.5907,0.004620
36.919,74.5335,0.004620
36.950,74.4769,0.004620
36.981,74.4188,0.004620
37.012,74.3637,0.004620
37.043,74.3094,0.004620
37.075,74.2544,0.004517
37.106,74.2005,0.004517
37.137,74.1473,0.004517
37.168,74.0953,0.004517
37.198,74.0457,0.004517
37.229,73.9941,0.004517
37.262,73.9420,0.004517
37.291,73.8953,0.004517
37.323,73.8469,0.004517
37.354,73.7985,0.004432
37.385,73.7519,0.004432
37.417,73.7042,0.004432
37.447,73.6604,0.004432
37.478,73.6158,0.004432
37.509,73.5703,0.004432
37.540,73.5275,0.004432
37.571,73.4855,0.004432
37.602,73.4422,0.004404
37.632,73.4033,0.004404
37.663,73.3625,0.004404
37.693,73.3244,0.004404
37.724,73.2856,0.004404
37.755,73.2460,0.004404
37.789,73.2058,0.004404
37.817,73.1725,0.004404
37.849,73.1340,0.004348
37.879,73.1015,0.004348
37.909,73.0682,0.004348
37.940,73.0328,0.004348
37.971,73.0003,0.004348
38.003,72.9676,0.004348
38.033,72.9361,0.004348
38.064,72.9056,0.004395
38.094,72.8751,0.004395
38.126,72.8460,0.004395
38.157,72.8166,0.004395
38.188,72.7887,0.004395
38.220,72.7607,0.004395
38.251,72.7338,0.004395
38.282,72.7079,0.004395
38.313,72.6826,0.004395
38.344,72.6581,0.004442
38.376,72.6340,0.004442
38.406,72.6116,0.004442
38.437,72.5889,0.004442
38.469,72.5671,0.004442
38.500,72.5461,0.004442
38.531,72.5261,0.004442
38.562,72.5062,0.004329
38.593,72.4882,0.004329
38.625,72.4696,0.004329
38.655,72.4530,0.004329
38.685,72.4371,0.004329
38.716,72.4215,0.004329
38.747,72.4064,0.004329
38.778,72.3925,0.004329
38.809,72.3788,0.004329
38.840,72.3659,0.004310
38.870,72.3539,0.004310
38.901,72.3427,0.004310
38.934,72.3316,0.004310
38.965,72.3215,0.004310
38.996,72.3125,0.004310
39.027,72.3041,0.004310
39.058,72.2962,0.004366
39.089,72.2892,0.004366
39.120,72.2830,0.004366
39.151,72.2775,0.004366
39.182,72.2728,0.004366
39.213,72.2687,0.004366
39.244,72.2654,0.004366
39.274,72.2628,0.004366
39.306,72.2609,0.004366
39.337,72.2597,0.004348
39.368,72.2593,0.004348
39.399,72.2593,0.004348
39.431,72.2593,0.004348
39.461,72.2593,0.004348
39.493,72.2593,0.004348
39.523,72.2593,0.004348
39.554,72.2595,0.004348
39.586,72.2605,0.004395
39.617,72.2623,0.004395
39.649,72.2649,0.004395
39.680,72.2681,0.004395
39.710,72.2718,0.004395
39.741,72.2765,0.004395
39.771,72.2817,0.004395
39.802,72.2877,0.004385
39.833,72.2946,0.004385
39.864,72.3021,0.004385
39.895,72.3105,0.004385
39.926,72.3193,0.004385
39.957,72.3291,0.004385
39.988,72.3394,0.004385
40.018,72.3506,0.004385
40.051,72.3627,0.004348
40.080,72.3750,0.004348
40.112,72.3884,0.004348
40.144,72.4029,0.004348
40.173,72.4169,0.004348
40.206,72.4339,0.004348
40.235,72.4483,0.004348
40.266,72.4658,0.004348
40.297,72.4831,0.004376
40.328,72.5022,0.004376
40.355,72.5185,0.004376
40.390,72.5404,0.004376
40.421,72.5613,0.004376
40.452,72.5825,0.004376
40.484,72.6052,0.004376
40.514,72.6276,0.004376
40.546,72.6514,0.004376
40.576,72.6756,0.004395
40.607,72.7007,0.004395
40.638,72.7257,0.004395
40.670,72.7538,0.004395
40.704,72.7828,0.004395
40.731,72.8075,0.004395
40.763,72.8367,0.004395
40.794,72.8659,0.004423
40.825,72.8964,0.004423
40.855,72.9255,0.004423
40.885,72.9567,0.004423
40.917,72.9892,0.004423
40.950,73.0255,0.004423
40.978,73.0558,0.004423
41.009,73.0890,0.004423
41.040,73.1255,0.004423
41.072,73.1617,0.004404
41.103,73.1978,0.004404
41.134,73.2355,0.004404
41.165,73.2739,0.004404
41.196,73.3134,0.004404
41.227,73.3532,0.004404
41.261,73.3963,0.004404
41.290,73.4346,0.004404
41.321,73.4759,0.004395
41.352,73.5189,0.004395
41.384,73.5628,0.004395
41.414,73.6059,0.004395
41.446,73.6516,0.004395
41.476,73.6950,0.004395
41.507,73.7427,0.004395
41.537,73.7871,0.004395
41.569,73.8370,0.004432
41.599,73.8830,0.004432
41.631,73.9336,0.004432
41.661,73.9813,0.004432
41.693,74.0343,0.004432
41.723,74.0835,0.004432
41.755,74.1361,0.004432
41.787,74.1907,0.004432
41.819,74.2465,0.004404
41.850,74.3018,0.004404
41.882,74.3560,0.004404
41.913,74.4116,0.004404
41.944,74.4690,0.004404
41.975,74.5261,0.004404
42.005,74.5834,0.004404
42.037,74.6413,0.004404
42.068,74.7018,0.004404
42.100,74.7623,0.004357
42.131,74.8240,0.004357
42.162,74.8819,0.004357
42.193,74.9424,0.004357
42.224,74.9983,0.004357
42.256,75.0581,0.004357
42.287,75.1138,0.004357
42.318,75.1695,0.004357
42.349,75.2227,0.004517
42.380,75.2776,0.004517
42.411,75.3310,0.004517
42.442,75.3834,0.004517
42.473,75.4368,0.004517
42.505,75.4887,0.004517
42.536,75.5385,0.004517
42.567,75.5889,0.004602
42.600,75.6395,0.004602
42.629,75.6858,0.004602
42.663,75.7379,0.004602
42.691,75.7803,0.004602
42.723,75.8278,0.004602
42.753,75.8707,0.004602
42.785,75.9169,0.004602
42.815,75.9594,0.004583
42.846,76.0034,0.004583
42.877,76.0453,0.004583
42.908,76.0871,0.004583
42.939,76.1283,0.004583
42.970,76.1681,0.004583
43.001,76.2076,0.004583
43.033,76.2481,0.004583
43.064,76.2851,0.004620
43.096,76.3237,0.004620
43.126,76.3596,0.004620
43.155,76.3938,0.004620
43.186,76.4283,0.004620
43.218,76.4637,0.004620
43.249,76.4973,0.004620
43.280,76.5306,0.004620
43.311,76.5621,0.004620
43.342,76.5944,0.004592
43.373,76.6244,0.004592
43.404,76.6549,0.004592
43.435,76.6836,0.004592
43.466,76.7127,0.004592
43.497,76.7404,0.004592
43.529,76.7686,0.004592
43.560,76.7953,0.004555
43.592,76.8207,0.004555
43.623,76.8462,0.004555
43.654,76.8696,0.004555
43.685,76.8937,0.004555
43.715,76.9159,0.004555
43.746,76.9377,0.004555
43.778,76.9594,0.004555
43.808,76.9794,0.004555
43.839,76.9991,0.004564
43.871,77.0186,0.004564
43.901,77.0368,0.004564
43.933,77.0545,0.004564
43.964,77.0715,0.004564
43.995,77.0880,0.004564
44.026,77.1033,0.004564
44.058,77.1184,0.004630
44.089,77.1325,0.004630
44.120,77.1456,0.004630
44.152,77.1587,0.004630
44.184,77.1706,0.004630
44.214,77.1815,0.004630
44.246,77.1919,0.004630
44.277,77.2012,0.004630
44.309,77.2104,0.004630
44.339,77.2184,0.004630
44.370,77.2257,0.004630
44.401,77.2322,0.004630
44.433,77.2384,0.004630
44.464,77.2435,0.004630
44.495,77.2480,0.004630
44.526,77.2516,0.004630
44.556,77.2546,0.004630
44.587,77.2568,0.004611
44.620,77.2584,0.004611
44.650,77.2592,0.004611
44.681,77.2593,0.004611
44.712,77.2593,0.004611
44.744,77.2593,0.004611
44.774,77.2593,0.004611
44.806,77.2593,0.004611
44.837,77.2593,0.004611
44.867,77.2593,0.004611
44.899,77.2593,0.004611
44.930,77.2593,0.004611
44.961,77.2593,0.004611
44.992,77.2593,0.004611
45.024,77.2593,0.004611
45.054,77.2593,0.004611
45.085,77.2593,0.004573
45.116,77.2593,0.004573
45.147,77.2593,0.004573
45.179,77.2593,0.004573
45.209,77.2593,0.004573
45.241,77.2593,0.004573
45.272,77.2593,0.004573
45.303,77.2593,0.004573
45.338,77.2593,0.004545
45.365,77.2593,0.004545
45.397,77.2593,0.004545
45.428,77.2593,0.004545
45.459,77.2593,0.004545
45.490,77.2593,0.004545
45.521,77.2593,0.004545
45.551,77.2593,0.004536
45.582,77.2593,0.004536
45.614,77.2593,0.004536
45.643,77.2593,0.004536
45.675,77.2593,0.004536
45.706,77.2593,0.004536
45.737,77.2593,0.004536
45.768,77.2593,0.004536
45.799,77.2593,0.004564
45.832,77.2593,0.004564
45.861,77.2593,0.004564
45.892,77.2593,0.004564
45.923,77.2593,0.004564
45.954,77.2593,0.004564
45.985,77.2593,0.004564
46.016,77.2593,0.004564
46.047,77.2593,0.004564
46.078,77.2593,0.004526
46.110,77.2593,0.004526
46.142,77.2593,0.004526
46.172,77.2593,0.004526
46.204,77.2593,0.004526
46.234,77.2593,0.004526
46.267,77.2593,0.004526
46.296,77.2593,0.004451
46.327,77.2593,0.004451
46.358,77.2593,0.004451
46.389,77.2593,0.004451
46.420,77.2593,0.004451
46.452,77.2593,0.004451
46.483,77.2593,0.004451
46.514,77.2593,0.004451
46.543,77.2593,0.004451
46.575,77.2593,0.004451
46.606,77.2593,0.004451
46.635,77.2593,0.004451
46.666,77.2593,0.004451
46.697,77.2593,0.004451
46.729,77.2593,0.004451
46.759,77.2593,0.004451
46.790,77.2593,0.004498
46.821,77.2593,0.004498
46.852,77.2593,0.004498
46.883,77.2593,0.004498
46.913,77.2593,0.004498
46.944,77.2593,0.004498
46.976,77.2593,0.004498
47.007,77.2593,0.004498
47.039,77.2593,0.004489
47.070,77.2593,0.004489
47.102,77.2593,0.004489
47.133,77.2593,0.004489
47.164,77.2593,0.004489
47.194,77.2593,0.004489
47.225,77.2593,0.004489
47.255,77.2593,0.004489
47.286,77.2593,0.004451
47.312,77.2593,0.004451
47.348,77.2593,0.004451
47.381,77.2593,0.004451
47.411,77.2593,0.004451
47.443,77.2593,0.004451
47.473,77.2593,0.004451
47.504,77.2593,0.004451
47.536,77.2593,0.004451
47.566,77.2593,0.004432
47.597,77.2593,0.004432
47.628,77.2593,0.004432
47.659,77.2593,0.004432
47.690,77.2593,0.004432
47.721,77.2593,0.004432
47.754,77.2593,0.004432
47.782,77.2593,0.004432
47.813,77.2593,0.004432
47.844,77.2593,0.004461
47.875,77.2593,0.004461
47.906,77.2593,0.004461
47.937,77.2593,0.004461
47.969,77.2593,0.004461
48.000,77.2593,0.004461
48.031,77.2593,0.004461
48.065,77.2593,0.004461
48.093,77.2593,0.004461
48.125,77.2593,0.004470
48.156,77.2593,0.004470
48.187,77.2593,0.004470
48.217,77.2593,0.004470
48.248,77.2593,0.004470
48.279,77.2593,0.004470
48.310,77.2593,0.004470
48.342,77.2593,0.004432
48.373,77.2593,0.004432
48.403,77.2593,0.004432
48.436,77.2593,0.004432
48.466,77.2593,0.004432
48.497,77.2593,0.004432
48.527,77.2593,0.004432
48.560,77.2593,0.004432
48.590,77.2593,0.004432
48.621,77.2593,0.004479
48.651,77.2593,0.004479
48.683,77.2593,0.004479
48.713,77.2593,0.004479
48.744,77.2593,0.004479
48.775,77.2593,0.004479
48.807,77.2593,0.004479
48.837,77.2593,0.004498
48.868,77.2593,0.004498
48.898,77.2593,0.004498
48.929,77.2593,0.004498
48.961,77.2593,0.004498
48.996,77.2593,0.004498
49.024,77.2593,0.004498
49.055,77.2593,0.004498
49.085,77.2593,0.004498
49.119,77.2593,0.004498
49.147,77.2593,0.004498
49.177,77.2593,0.004498
49.208,77.2593,0.004498
49.238,77.2593,0.004498
49.269,77.2593,0.004498
49.300,77.2593,0.004498
49.331,77.2593,0.004526
49.362,77.2593,0.004526
49.393,77.2593,0.004526
49.425,77.2593,0.004526
49.457,77.2593,0.004526
49.489,77.2593,0.004526
49.520,77.2593,0.004526
49.551,77.2593,0.004526
49.581,77.2593,0.004508
49.614,77.2593,0.004508
49.644,77.2593,0.004508
49.674,77.2590,0.004508
49.705,77.2580,0.004508
49.736,77.2562,0.004508
49.767,77.2540,0.004508
49.798,77.2506,0.004508
49.828,77.2469,0.004498
49.860,77.2420,0.004498
49.891,77.2368,0.004498
49.922,77.2305,0.004498
49.953,77.2239,0.004498
49.984,77.2161,0.004498
50.015,77.2079,0.004498
50.048,77.1983,0.004498
50.077,77.1892,0.004526
50.108,77.1787,0.004526
50.140,77.1674,0.004526
50.170,77.1556,0.004526
50.202,77.1430,0.004526
50.232,77.1299,0.004526
50.262,77.1158,0.004526
50.293,77.1012,0.004526
50.324,77.0857,0.004526
50.356,77.0692,0.004583
50.387,77.0519,0.004583
50.418,77.0342,0.004583
50.449,77.0160,0.004583
50.480,76.9967,0.004583
50.511,76.9770,0.004583
50.541,76.9560,0.004583
50.573,76.9350,0.004592
50.604,76.9124,0.004592
50.635,76.8896,0.004592
50.666,76.8661,0.004592
50.697,76.8419,0.004592
50.730,76.8155,0.004592
50.759,76.7912,0.004592
50.790,76.7646,0.004592
50.821,76.7380,0.004592
50.852,76.7094,0.004592
50.883,76.6813,0.004592
50.913,76.6524,0.004592
50.944,76.6218,0.004592
50.975,76.5920,0.004592
51.006,76.5602,0.004592
51.037,76.5282,0.004592
51.067,76.4953,0.004573
51.099,76.4618,0.004573
51.130,76.4267,0.004573
51.161,76.3914,0.004573
51.192,76.3548,0.004573
51.224,76.3175,0.004573
51.255,76.2807,0.004573
51.285,76.2439,0.004573
51.317,76.2042,0.004583
51.349,76.1633,0.004583
51.379,76.1242,0.004583
51.410,76.0830,0.004583
51.441,76.0415,0.004583
51.472,75.9987,0.004583
51.506,75.9511,0.004583
51.534,75.9120,0.004583
51.568,75.8624,0.004611
51.596,75.8216,0.004611
51.628,75.7747,0.004611
51.659,75.7278,0.004611
51.690,75.6800,0.004611
51.721,75.6314,0.004611
51.752,75.5826,0.004611
51.783,75.5308,0.004611
51.815,75.4791,0.004573
51.846,75.4292,0.004573
51.875,75.3797,0.004573
51.907,75.3269,0.004573
51.938,75.2727,0.004573
51.968,75.2185,0.004573
52.000,75.1638,0.004573
52.031,75.1066,0.004573
52.062,75.0514,0.004573
52.093,74.9930,0.004555
52.127,74.9315,0.004555
52.156,74.8751,0.004555
52.188,74.8137,0.004555
52.220,74.7530,0.004555
52.250,74.6953,0.004555
52.281,74.6348,0.004555
52.311,74.5773,0.004555
52.342,74.5204,0.004592
52.373,74.4619,0.004592
52.404,74.4053,0.004592
52.435,74.3486,0.004592
52.462,74.3013,0.004592
52.498,74.2382,0.004592
52.528,74.1846,0.004592
52.559,74.1323,0.004592
52.589,74.0802,0.004442
52.619,74.0296,0.004442
52.651,73.9777,0.004442
52.682,73.9288,0.004442
52.713,73.8770,0.004442
52.745,73.8276,0.004442
52.776,73.7801,0.004442
52.808,73.7312,0.004329
52.838,73.6848,0.004329
52.870,73.6374,0.004329
52.901,73.5924,0.004329
52.933,73.5465,0.004329
52.964,73.5024,0.004329
52.996,73.4577,0.004329
53.026,73.4164,0.004329
53.057,73.3759,0.004329
53.088,73.3354,0.004357
53.120,73.2943,0.004357
53.149,73.2566,0.004357
53.181,73.2164,0.004357
53.212,73.1792,0.004357
53.243,73.1425,0.004357
53.274,73.1047,0.004357
53.306,73.0682,0.004319
53.337,73.0342,0.004319
53.367,73.0002,0.004319
53.398,72.9672,0.004319
53.429,72.9343,0.004319
53.459,72.9028,0.004319
53.490,72.8717,0.004319
53.521,72.8414,0.004319
53.551,72.8118,0.004338
53.583,72.7815,0.004338
53.614,72.7539,0.004338
53.646,72.7245,0.004338
53.676,72.6978,0.004338
53.711,72.6686,0.004338
53.739,72.6461,0.004338
53.770,72.6213,0.004338
53.801,72.5964,0.004357
53.832,72.5729,0.004357
53.863,72.5511,0.004357
53.896,72.5272,0.004357
53.924,72.5083,0.004357
53.955,72.4874,0.004357
53.986,72.4679,0.004357
54.017,72.4487,0.004357
54.048,72.4309,0.004357
54.079,72.4128,0.004395
54.110,72.3958,0.004395
54.142,72.3800,0.004395
54.171,72.3651,0.004395
54.202,72.3506,0.004395
54.233,72.3362,0.004395
54.264,72.3233,0.004395
54.295,72.3107,0.004423
54.326,72.2991,0.004423
54.357,72.2881,0.004423
54.387,72.2778,0.004423
54.418,72.2682,0.004423
54.449,72.2594,0.004423
54.481,72.2508,0.004423
54.512,72.2435,0.004423
54.543,72.2367,0.004423
54.574,72.2310,0.004395
54.606,72.2255,0.004395
54.636,72.2210,0.004395
54.667,72.2172,0.004395
54.699,72.2143,0.004395
54.730,72.2119,0.004395
54.761,72.2103,0.004395
54.793,72.2094,0.004395
54.824,72.2093,0.004338
54.854,72.2093,0.004338
54.886,72.2093,0.004338
54.916,72.2093,0.004338
54.947,72.2093,0.004338
54.979,72.2098,0.004338
55.009,72.2109,0.004338
55.040,72.2128,0.004385
55.071,72.2155,0.004385
55.103,72.2188,0.004385
55.134,72.2231,0.004385
55.165,72.2280,0.004385
55.197,72.2336,0.004385
55.228,72.2402,0.004385
55.258,72.2469,0.004385
55.290,72.2548,0.004385
55.322,72.2636,0.004385
55.352,72.2727,0.004366
55.383,72.2823,0.004366
55.414,72.2931,0.004366
55.446,72.3048,0.004366
55.478,72.3177,0.004366
55.507,72.3298,0.004366
55.538,72.3431,0.004366
55.569,72.3573,0.004366
55.600,72.3725,0.004291
55.632,72.3890,0.004291
55.662,72.4049,0.004291
55.693,72.4221,0.004291
55.724,72.4400,0.004291
55.756,72.4595,0.004291
55.787,72.4789,0.004291
55.818,72.4988,0.004319
55.850,72.5201,0.004319
55.882,72.5424,0.004319
55.913,72.5654,0.004319
55.944,72.5881,0.004319
55.974,72.6111,0.004319
56.006,72.6366,0.004319
56.036,72.6616,0.004319
56.067,72.6878,0.004319
56.098,72.7146,0.004319
56.130,72.7425,0.004319
56.162,72.7712,0.004319
56.191,72.7994,0.004319
56.222,72.8285,0.004319
56.252,72.8584,0.004319
56.284,72.8902,0.004319
56.315,72.9222,0.004319
56.346,72.9551,0.004319
56.378,72.9898,0.004319
56.409,73.0225,0.004319
56.443,73.0618,0.004319
56.471,73.0927,0.004319
56.502,73.1293,0.004319
56.532,73.1642,0.004319
56.563,73.2022,0.004319
56.594,73.2410,0.004319
56.624,73.2784,0.004319
56.656,73.3196,0.004319
56.688,73.3610,0.004319
56.718,73.4025,0.004319
56.750,73.4447,0.004319
56.782,73.4900,0.004319
56.812,73.5318,0.004319
56.843,73.5763,0.004357
56.877,73.6240,0.004357
56.904,73.6646,0.004357
56.936,73.7116,0.004357
56.966,73.7572,0.004357
56.997,73.8063,0.004357
57.028,73.8535,0.004357
57.058,73.9025,0.004357
57.089,73.9520,0.004376
57.122,74.0048,0.004376
57.151,74.0544,0.004376
57.183,74.1080,0.004376
57.213,74.1596,0.004376
57.245,74.2144,0.004376
57.275,74.2675,0.004376
57.307,74.3243,0.004376
57.338,74.3791,0.004385
57.368,74.4348,0.004385
57.399,74.4918,0.004385
57.430,74.5507,0.004385
57.462,74.6103,0.004385
57.497,74.6789,0.004385
57.524,74.7298,0.004385
57.556,74.7925,0.004385
57.586,74.8504,0.004366
57.617,74.9068,0.004366
57.652,74.9732,0.004366
57.680,75.0240,0.004366
57.712,75.0803,0.004366
57.743,75.1367,0.004366
57.773,75.1897,0.004366
57.806,75.2474,0.004461
57.837,75.2997,0.004461
57.869,75.3540,0.004461
57.899,75.4036,0.004461
57.930,75.4544,0.004461
57.962,75.5073,0.004461
57.993,75.5553,0.004461
58.023,75.6021,0.004461
58.054,75.6512,0.004461
58.085,75.6982,0.004573
58.116,75.7451,0.004573
58.147,75.7906,0.004573
58.179,75.8357,0.004573
58.209,75.8795,0.004573
58.240,75.9233,0.004573
58.270,75.9652,0.004573
58.302,76.0094,0.004573
58.334,76.0512,0.004611
58.365,76.0917,0.004611
58.396,76.1313,0.004611
58.427,76.1714,0.004611
58.458,76.2091,0.004611
58.488,76.2468,0.004611
58.520,76.2843,0.004611
58.551,76.3201,0.004630
58.581,76.3554,0.004630
58.612,76.3895,0.004630
58.644,76.4255,0.004630
58.675,76.4588,0.004630
58.706,76.4920,0.004630
58.738,76.5241,0.004630
58.768,76.5555,0.004630
58.799,76.5846,0.004630
58.830,76.6144,0.004592
58.861,76.6443,0.004592
58.891,76.6708,0.004592
58.923,76.7001,0.004592
58.954,76.7267,0.004592
58.985,76.7528,0.004592
59.016,76.7777,0.004592
59.047,76.8024,0.004592
59.078,76.8264,0.004592
59.109,76.8500,0.004592
59.140,76.8720,0.004592
59.171,76.8948,0.004592
59.202,76.9152,0.004592
59.233,76.9357,0.004592
59.264,76.9549,0.004592
59.296,76.9745,0.004564
59.327,76.9926,0.004564
59.359,77.0105,0.004564
59.392,77.0287,0.004564
59.420,77.0425,0.004564
59.451,77.0580,0.004564
59.482,77.0725,0.004564
59.512,77.0857,0.004564
59.543,77.0989,0.004564
59.574,77.1113,0.004592
59.606,77.1231,0.004592
59.636,77.1338,0.004592
59.667,77.1437,0.004592
59.702,77.1544,0.004592
59.729,77.1617,0.004592
59.759,77.1695,0.004592
59.789,77.1766,0.004592
59.823,77.1836,0.004677
59.851,77.1888,0.004677
59.882,77.1939,0.004677
59.913,77.1983,0.004677
59.943,77.2020,0.004677
59.975,77.2048,0.004677
60.006,77.2071,0.004677
60.037,77.2086,0.004649
60.068,77.2092,0.004649
60.099,77.2093,0.004649
60.130,77.2093,0.004649
60.161,77.2093,0.004649
60.192,77.2093,0.004649
60.224,77.2093,0.004649
60.255,77.2093,0.004649
60.286,77.2093,0.004649
60.316,77.2093,0.004526
60.347,77.2093,0.004526
60.378,77.2093,0.004526
60.409,77.2093,0.004526
60.440,77.2093,0.004526
60.471,77.2093,0.004526
60.500,77.2093,0.004526
60.533,77.2093,0.004526
60.564,77.2093,0.004489
60.595,77.2093,0.004489
60.626,77.2093,0.004489
60.658,77.2093,0.004489
60.689,77.2093,0.004489
60.720,77.2093,0.004489
60.751,77.2093,0.004489
60.781,77.2093,0.004489
60.812,77.2093,0.004498
60.844,77.2093,0.004498
60.874,77.2093,0.004498
60.906,77.2093,0.004498
60.937,77.2093,0.004498
60.968,77.2093,0.004498
60.999,77.2093,0.004498
61.029,77.2093,0.004498
61.061,77.2093,0.004526
61.091,77.2093,0.004526
61.122,77.2093,0.004526
61.153,77.2093,0.004526
61.183,77.2093,0.004526
61.214,77.2093,0.004526
61.246,77.2093,0.004526
61.277,77.2093,0.004526
61.307,77.2093,0.004479
61.339,77.2093,0.004479
61.370,77.2093,0.004479
61.401,77.2093,0.004479
61.432,77.2093,0.004479
61.462,77.2093,0.004479
61.493,77.2093,0.004479
61.525,77.2093,0.004479
61.556,77.2093,0.004479
61.587,77.2093,0.004413
61.618,77.2093,0.004413
61.649,77.2093,0.004413
61.681,77.2093,0.004413
61.711,77.2093,0.004413
61.742,77.2093,0.004413
61.773,77.2093,0.004413
61.805,77.2093,0.004413
61.835,77.2093,0.004498
61.866,77.2093,0.004498
61.898,77.2093,0.004498
61.928,77.2093,0.004498
61.960,77.2093,0.004498
61.996,77.2093,0.004498
62.038,77.2093,0.004498
62.068,77.2093,0.004498
62.098,77.2093,0.004517
62.130,77.2093,0.004517
62.162,77.2093,0.004517
62.192,77.2093,0.004517
62.226,77.2093,0.004517
62.254,77.2093,0.004517
62.285,77.2093,0.004517
62.316,77.2093,0.004470
62.347,77.2093,0.004470
62.378,77.2093,0.004470
62.409,77.2093,0.004470
62.440,77.2093,0.004470
62.471,77.2093,0.004470
62.502,77.2093,0.004470
62.533,77.2093,0.004442
62.566,77.2093,0.004442
62.595,77.2093,0.004442
62.625,77.2093,0.004442
62.657,77.2093,0.004442
62.689,77.2093,0.004442
62.719,77.2093,0.004442
62.752,77.2093,0.004442
62.782,77.2093,0.004442
62.813,77.2093,0.004442
62.844,77.2093,0.004442
62.874,77.2093,0.004442
62.905,77.2093,0.004442
62.936,77.2093,0.004442
62.967,77.2093,0.004442
62.998,77.2093,0.004442
63.029,77.2093,0.004442
63.060,77.2093,0.004442
63.091,77.2093,0.004451
63.122,77.2093,0.004451
63.153,77.2093,0.004451
63.184,77.2093,0.004451
63.215,77.2093,0.004451
63.246,77.2093,0.004451
63.277,77.2093,0.004451
63.310,77.2093,0.004451
63.339,77.2093,0.004479
63.371,77.2093,0.004479
63.402,77.2093,0.004479
63.434,77.2093,0.004479
63.464,77.2093,0.004479
63.495,77.2093,0.004479
63.525,77.2093,0.004479
63.557,77.2093,0.004479
63.588,77.2093,0.004470
63.619,77.2093,0.004470
63.650,77.2093,0.004470
63.682,77.2093,0.004470
63.712,77.2093,0.004470
63.743,77.2093,0.004470
63.774,77.2093,0.004470
63.805,77.2093,0.004470
63.836,77.2093,0.004498
63.868,77.2093,0.004498
63.899,77.2093,0.004498
63.934,77.2093,0.004498
63.961,77.2093,0.004498
63.992,77.2093,0.004498
64.023,77.2093,0.004498
64.054,77.2093,0.004498
64.085,77.2093,0.004479
64.117,77.2093,0.004479
64.148,77.2093,0.004479
64.179,77.2093,0.004479
64.211,77.2093,0.004479
64.241,77.2093,0.004479
64.272,77.2093,0.004479
64.304,77.2093,0.004423
64.334,77.2093,0.004423
64.365,77.2087,0.004423
64.396,77.2073,0.004423
64.427,77.2053,0.004423
64.461,77.2022,0.004423
64.488,77.1991,0.004423
64.519,77.1949,0.004423
64.550,77.1900,0.004423
64.583,77.1838,0.004498
64.611,77.1780,0.004498
64.642,77.1711,0.004498
64.673,77.1633,0.004498
64.707,77.1537,0.004498
64.734,77.1457,0.004498
64.765,77.1356,0.004498
64.796,77.1248,0.004498
64.827,77.1134,0.004555
64.859,77.1010,0.004555
64.890,77.0883,0.004555
64.920,77.0751,0.004555
64.953,77.0596,0.004555
64.982,77.0457,0.004555
65.012,77.0296,0.004555
65.043,77.0137,0.004564
65.080,76.9929,0.004564
65.121,76.9691,0.004564
65.152,76.9497,0.004564
65.183,76.9296,0.004564
65.214,76.9099,0.004564
65.244,76.8883,0.004564
65.276,76.8667,0.004564
65.307,76.8429,0.004573
65.338,76.8206,0.004573
65.372,76.7935,0.004573
65.399,76.7724,0.004573
65.430,76.7460,0.004573
65.462,76.7194,0.004573
65.492,76.6926,0.004573
65.523,76.6650,0.004573
65.557,76.6342,0.004592
65.586,76.6057,0.004592
65.618,76.5762,0.004592
65.649,76.5452,0.004592
65.680,76.5138,0.004592
65.711,76.4814,0.004592
65.741,76.4484,0.004592
65.773,76.4156,0.004592
65.804,76.3798,0.004592
65.834,76.3463,0.004592
65.865,76.3094,0.004592
65.897,76.2721,0.004592
65.927,76.2367,0.004592
65.959,76.1975,0.004592
65.989,76.1598,0.004592
66.020,76.1212,0.004592
66.052,76.0799,0.004602
66.082,76.0396,0.004602
66.113,75.9978,0.004602
66.144,75.9549,0.004602
66.175,75.9129,0.004602
66.207,75.8677,0.004602
66.238,75.8220,0.004602
66.269,75.7776,0.004602
66.300,75.7304,0.004602
66.331,75.6854,0.004583
66.362,75.6364,0.004583
66.394,75.5862,0.004583
66.425,75.5390,0.004583
66.456,75.4884,0.004583
66.487,75.4391,0.004583
66.517,75.3896,0.004583
66.549,75.3357,0.004583
66.579,75.2840,0.004583
66.610,75.2321,0.004583
66.640,75.1802,0.004583
66.671,75.1260,0.004583
66.701,75.0706,0.004583
66.732,75.0143,0.004583
66.764,74.9543,0.004583
66.796,74.8973,0.004602
66.828,74.8376,0.004602
66.859,74.7776,0.004602
66.890,74.7177,0.004602
66.921,74.6565,0.004602
66.951,74.5981,0.004602
66.982,74.5408,0.004602
67.013,74.4818,0.004602
67.044,74.4236,0.004526
67.075,74.3673,0.004526
67.109,74.3042,0.004526
67.138,74.2522,0.004526
67.169,74.1969,0.004526
67.200,74.1442,0.004526
67.231,74.0910,0.004526
67.262,74.0373,0.004526
67.293,73.9864,0.004526
67.325,73.9329,0.004413
67.356,73.8827,0.004413
67.387,73.8329,0.004413
67.418,73.7844,0.004413
67.449,73.7350,0.004413
67.480,73.6874,0.004413
67.511,73.6415,0.004413
67.543,73.5935,0.004413
67.574,73.5483,0.004376
67.605,73.5031,0.004376
67.636,73.4604,0.004376
67.667,73.4172,0.004376
67.698,73.3755,0.004376
67.730,73.3317,0.004376
67.761,73.2910,0.004376
67.792,73.2497,0.004376
67.823,73.2107,0.004376
67.854,73.1721,0.004376
67.885,73.1336,0.004376
67.920,73.0925,0.004376
67.946,73.0616,0.004376
67.977,73.0262,0.004376
68.008,72.9905,0.004376
68.040,72.9557,0.004376
68.070,72.9217,0.004385
68.101,72.8897,0.004385
68.132,72.8571,0.004385
68.163,72.8256,0.004385
68.195,72.7943,0.004385
68.226,72.7639,0.004385
68.257,72.7343,0.004385
68.288,72.7066,0.004385
68.319,72.6781,0.004395
68.350,72.6507,0.004395
68.382,72.6244,0.004395
68.412,72.5987,0.004395
68.443,72.5738,0.004395
68.475,72.5495,0.004395
68.505,72.5262,0.004395
68.537,72.5030,0.004395
68.568,72.4808,0.004376
68.603,72.4567,0.004376
68.630,72.4390,0.004376
68.662,72.4188,0.004376
68.693,72.3995,0.004376
68.723,72.3819,0.004376
68.754,72.3641,0.004376
68.785,72.3476,0.004376
68.816,72.3312,0.004376
68.847,72.3160,0.004385
68.878,72.3011,0.004385
68.910,72.2867,0.004385
68.940,72.2737,0.004385
68.971,72.2609,0.004385
69.002,72.2494,0.004385
69.034,72.2382,0.004385
69.068,72.2268,0.004385
69.095,72.2185,0.004413
69.126,72.2093,0.004413
69.157,72.2014,0.004413
69.188,72.1939,0.004413
69.218,72.1873,0.004413
69.253,72.1806,0.004413
69.294,72.1738,0.004413
69.324,72.1697,0.004423
69.356,72.1661,0.004423
69.387,72.1633,0.004423
69.417,72.1613,0.004423
69.447,72.1601,0.004423
69.478,72.1593,0.004423
69.509,72.1593,0.004423
69.540,72.1593,0.004423
69.570,72.1593,0.004423
69.602,72.1593,0.004385
69.634,72.1598,0.004385
69.664,72.1609,0.004385
69.694,72.1628,0.004385
69.725,72.1654,0.004385
69.755,72.1687,0.004385
69.792,72.1735,0.004385
69.832,72.1800,0.004348
69.863,72.1857,0.004348
69.893,72.1922,0.004348
69.924,72.1994,0.004348
69.956,72.2077,0.004348
69.987,72.2165,0.004348
70.018,72.2258,0.004348
70.048,72.2358,0.004348
70.081,72.2476,0.004357
70.109,72.2578,0.004357
70.141,72.2707,0.004357
70.171,72.2835,0.004357
70.202,72.2971,0.004357
70.233,72.3120,0.004357
70.266,72.3279,0.004357
70.296,72.3434,0.004385
70.327,72.3601,0.004385
70.358,72.3776,0.004385
70.389,72.3962,0.004385
70.420,72.4146,0.004385
70.451,72.4348,0.004385
70.482,72.4545,0.004385
70.514,72.4766,0.004385
70.543,72.4967,0.004385
70.577,72.5212,0.004385
70.607,72.5435,0.004385
70.638,72.5680,0.004385
70.668,72.5919,0.004385
70.699,72.6187,0.004385
70.730,72.6431,0.004385
70.761,72.6700,0.004385
70.791,72.6972,0.004319
70.822,72.7260,0.004319
70.853,72.7555,0.004319
70.883,72.7840,0.004319
70.915,72.8155,0.004319
70.946,72.8462,0.004319
70.977,72.8787,0.004319
71.008,72.9114,0.004319
71.040,72.9461,0.004319
71.071,72.9801,0.004319
71.102,73.0158,0.004282
71.134,73.0509,0.004282
71.164,73.0879,0.004282
71.195,73.1245,0.004282
71.226,73.1617,0.004282
71.257,73.2005,0.004282
71.289,73.2407,0.004282
71.320,73.2807,0.004282
71.351,73.3213,0.004329
71.382,73.3636,0.004329
71.413,73.4053,0.004329
71.444,73.4483,0.004329
71.474,73.4915,0.004329
71.506,73.5357,0.004329
71.537,73.5812,0.004376
71.569,73.6279,0.004376
71.600,73.6759,0.004376
71.631,73.7225,0.004376
71.662,73.7701,0.004376
71.693,73.8195,0.004376
71.724,73.8685,0.004376
71.755,73.9185,0.004376
71.785,73.9687,0.004376
71.817,74.0214,0.004357
71.848,74.0745,0.004357
71.879,74.1266,0.004357
71.910,74.1807,0.004357
71.940,74.2347,0.004357
71.972,74.2909,0.004357
72.003,74.3468,0.004357
72.035,74.4049,0.004357
72.064,74.4616,0.004385
72.096,74.5197,0.004385
72.126,74.5768,0.004385
72.157,74.6364,0.004385
72.188,74.6981,0.004385
72.220,74.7588,0.004385
72.251,74.8169,0.004385
72.282,74.8747,0.004385
72.313,74.9320,0.004461
72.345,74.9900,0.004461
72.376,75.0456,0.004461
72.407,75.1013,0.004461
72.439,75.1573,0.004461
72.470,75.2104,0.004461
72.499,75.2608,0.004461
72.530,75.3125,0.004461
72.562,75.3657,0.004461
72.592,75.4147,0.004526
72.623,75.4658,0.004526
72.655,75.5148,0.004526
72.686,75.5649,0.004526
72.717,75.6123,0.004526
72.748,75.6593,0.004526
72.779,75.7049,0.004526
72.810,75.7505,0.004526
72.841,75.7959,0.004526
72.872,75.8406,0.004583
72.903,75.8834,0.004583
72.934,75.9258,0.004583
72.964,75.9671,0.004583
72.995,76.0085,0.004583
73.026,76.0492,0.004583
73.057,76.0888,0.004583
73.088,76.1282,0.004602
73.119,76.1659,0.004602
73.150,76.2035,0.004602
73.181,76.2419,0.004602
73.212,76.2770,0.004602
73.244,76.3136,0.004602
73.275,76.3480,0.004602
73.306,76.3817,0.004602
73.338,76.4160,0.004592
73.369,76.4494,0.004592
73.400,76.4803,0.004592
73.431,76.5117,0.004592
73.462,76.5419,0.004592
73.493,76.5716,0.004592
73.524,76.6003,0.004592
73.555,76.6289,0.004592
73.586,76.6558,0.004602
73.617,76.6831,0.004602
73.648,76.7087,0.004602
73.679,76.7339,0.004602
73.710,76.7587,0.004602
73.742,76.7832,0.004602
73.772,76.8055,0.004602
73.803,76.8279,0.004602
73.834,76.8493,0.004630
73.865,76.8705,0.004630
73.896,76.8906,0.004630
73.928,76.9100,0.004630
73.959,76.9291,0.004630
73.990,76.9471,0.004630
74.021,76.9647,0.004630
74.052,76.9810,0.004630
74.084,76.9970,0.004630
74.114,77.0116,0.004630
74.145,77.0261,0.004630
74.177,77.0398,0.004630
74.208,77.0527,0.004630
74.239,77.0651,0.004630
74.270,77.0763,0.004630
74.302,77.0870,0.004630
74.332,77.0969,0.004573
74.364,77.1062,0.004573
74.395,77.1144,0.004573
74.426,77.1222,0.004573
74.457,77.1292,0.004573
74.488,77.1355,0.004573
74.518,77.1408,0.004573
74.548,77.1456,0.004573
74.580,77.1498,0.004545
74.611,77.1531,0.004545
74.641,77.1557,0.004545
74.672,77.1576,0.004545
74.704,77.1588,0.004545
74.735,77.1593,0.004545
74.767,77.1593,0.004545
74.798,77.1593,0.004526
74.829,77.1593,0.004526
74.860,77.1593,0.004526
74.892,77.1593,0.004526
74.923,77.1593,0.004526
74.953,77.1593,0.004526
74.985,77.1593,0.004526
75.016,77.1593,0.004526
75.045,77.1593,0.004526
75.078,77.1593,0.004517
75.109,77.1593,0.004517
75.141,77.1593,0.004517
75.172,77.1593,0.004517
75.203,77.1593,0.004517
75.235,77.1593,0.004517
75.265,77.1593,0.004517
75.297,77.1593,0.004508
75.328,77.1593,0.004508
75.358,77.1593,0.004508
75.391,77.1593,0.004508
75.421,77.1593,0.004508
75.451,77.1593,0.004508
75.482,77.1593,0.004508
75.516,77.1593,0.004508
75.546,77.1593,0.004508
75.572,77.1593,0.004489
75.607,77.1593,0.004489
75.638,77.1593,0.004489
75.670,77.1593,0.004489
75.701,77.1593,0.004489
75.731,77.1593,0.004489
75.763,77.1593,0.004489
75.793,77.1593,0.004489
75.825,77.1593,0.004479
75.856,77.1593,0.004479
75.891,77.1593,0.004479
75.918,77.1593,0.004479
75.949,77.1593,0.004479
75.981,77.1593,0.004479
76.012,77.1593,0.004479
76.045,77.1593,0.004489
76.074,77.1593,0.004489
76.106,77.1593,0.004489
76.137,77.1593,0.004489
76.169,77.1593,0.004489
76.199,77.1593,0.004489
76.229,77.1593,0.004489
76.260,77.1593,0.004489
76.291,77.1593,0.004489
76.322,77.1593,0.004508
76.354,77.1593,0.004508
76.384,77.1593,0.004508
76.415,77.1593,0.004508
76.447,77.1593,0.004508
76.478,77.1593,0.004508
76.509,77.1593,0.004508
76.540,77.1593,0.004479
76.571,77.1593,0.004479
76.602,77.1593,0.004479
76.633,77.1593,0.004479
76.665,77.1593,0.004479
76.696,77.1593,0.004479
76.725,77.1593,0.004479
76.757,77.1593,0.004479
76.787,77.1593,0.004479
76.818,77.1593,0.004470
76.849,77.1593,0.004470
76.881,77.1593,0.004470
76.912,77.1593,0.004470
76.944,77.1593,0.004470
76.975,77.1593,0.004470
77.005,77.1593,0.004470
77.037,77.1593,0.004470
77.069,77.1593,0.004470
77.100,77.1593,0.004470
77.132,77.1593,0.004470
77.163,77.1593,0.004470
77.193,77.1593,0.004470
77.225,77.1593,0.004470
77.255,77.1593,0.004470
77.286,77.1593,0.004470
77.317,77.1593,0.004461
77.348,77.1593,0.004461
77.379,77.1593,0.004461
77.409,77.1593,0.004461
77.441,77.1593,0.004461
77.475,77.1593,0.004461
77.502,77.1593,0.004461
77.535,77.1593,0.004461
77.565,77.1593,0.004470
77.595,77.1593,0.004470
77.626,77.1593,0.004470
77.662,77.1593,0.004470
77.689,77.1593,0.004470
77.719,77.1593,0.004470
77.751,77.1593,0.004470
77.782,77.1593,0.004470
77.813,77.1593,0.004470
77.843,77.1593,0.004470
77.874,77.1593,0.004470
77.907,77.1593,0.004470
77.937,77.1593,0.004470
77.969,77.1593,0.004470
78.000,77.1593,0.004470
78.032,77.1593,0.004470
78.062,77.1593,0.004470
78.096,77.1593,0.004470
78.124,77.1593,0.004470
78.155,77.1593,0.004470
78.185,77.1593,0.004470
78.216,77.1593,0.004470
78.247,77.1593,0.004470
78.279,77.1593,0.004470
78.305,77.1593,0.004470
78.340,77.1593,0.004470
78.371,77.1593,0.004489
78.402,77.1593,0.004489
78.434,77.1593,0.004489
78.464,77.1593,0.004489
78.495,77.1593,0.004489
78.526,77.1593,0.004489
78.563,77.1593,0.004489
78.589,77.1593,0.004479
78.619,77.1593,0.004479
78.651,77.1593,0.004479
78.681,77.1593,0.004479
78.715,77.1593,0.004479
78.744,77.1593,0.004479
78.775,77.1593,0.004479
78.806,77.1593,0.004479
78.837,77.1593,0.004489
78.867,77.1593,0.004489
78.898,77.1593,0.004489
78.930,77.1593,0.004489
78.961,77.1593,0.004489
78.993,77.1593,0.004489
79.023,77.1593,0.004489
79.054,77.1588,0.004489
79.085,77.1576,0.004498
79.116,77.1556,0.004498
79.147,77.1530,0.004498
79.178,77.1494,0.004498
79.209,77.1453,0.004498
79.239,77.1405,0.004498
79.274,77.1343,0.004498
79.302,77.1287,0.004498
79.333,77.1216,0.004620
79.364,77.1138,0.004620
79.395,77.1054,0.004620
79.426,77.0958,0.004620
79.457,77.0859,0.004620
79.487,77.0757,0.004620
79.519,77.0641,0.004620
79.548,77.0524,0.004658
79.582,77.0379,0.004658
79.611,77.0255,0.004658
79.641,77.0114,0.004658
79.672,76.9967,0.004658
79.702,76.9812,0.004658
79.735,76.9644,0.004658
79.766,76.9467,0.004658
79.797,76.9288,0.004583
79.828,76.9099,0.004583
79.859,76.8908,0.004583
79.890,76.8707,0.004583
79.920,76.8505,0.004583
79.951,76.8290,0.004583
79.983,76.8060,0.004583
80.013,76.7835,0.004583
80.044,76.7600,0.004583
80.074,76.7359,0.004611
80.105,76.7112,0.004611
80.136,76.6851,0.004611
80.167,76.6585,0.004611
80.198,76.6310,0.004611
80.229,76.6025,0.004611
80.260,76.5738,0.004611
80.291,76.5444,0.004611
80.322,76.5142,0.004583
80.354,76.4825,0.004583
80.385,76.4508,0.004583
80.416,76.4177,0.004583
80.447,76.3841,0.004583
80.478,76.3513,0.004583
80.509,76.3162,0.004583
80.540,76.2815,0.004583
80.572,76.2433,0.004526
80.603,76.2066,0.004526
80.634,76.1689,0.004526
80.665,76.1315,0.004526
80.700,76.0860,0.004526
80.726,76.0532,0.004526
80.757,76.0117,0.004526
80.788,75.9714,0.004526
80.820,75.9283,0.004555
80.850,75.8868,0.004555
80.881,75.8447,0.004555
80.912,75.7985,0.004555
80.943,75.7544,0.004555
80.975,75.7082,0.004555
81.006,75.6612,0.004555
81.036,75.6156,0.004555
81.067,75.5680,0.004583
81.098,75.5192,0.004583
81.129,75.4715,0.004583
81.160,75.4203,0.004583
81.190,75.3720,0.004583
81.221,75.3197,0.004583
81.252,75.2667,0.004583
81.283,75.2157,0.004583
81.314,75.1625,0.004583
81.345,75.1083,0.004583
81.375,75.0537,0.004583
81.407,74.9965,0.004583
81.438,74.9412,0.004583
81.469,74.8831,0.004583
81.500,74.8259,0.004583
81.531,74.7662,0.004583
81.562,74.7079,0.004583
81.592,74.6469,0.004573
81.624,74.5877,0.004573
81.654,74.5278,0.004573
81.685,74.4707,0.004573
81.715,74.4123,0.004573
81.747,74.3552,0.004573
81.778,74.2972,0.004573
81.809,74.2418,0.004526
81.840,74.1864,0.004526
81.870,74.1338,0.004526
81.901,74.0794,0.004526
81.933,74.0246,0.004526
81.965,73.9694,0.004526
81.995,73.9197,0.004526
82.027,73.8659,0.004526
82.057,73.8194,0.004432
82.089,73.7683,0.004432
82.119,73.7205,0.004432
82.149,73.6740,0.004432
82.181,73.6251,0.004432
82.212,73.5798,0.004432
82.242,73.5342,0.004432
82.273,73.4892,0.004432
82.304,73.4447,0.004432
82.335,73.4018,0.004338
82.365,73.3583,0.004338
82.397,73.3155,0.004338
82.428,73.2738,0.004338
82.459,73.2334,0.004338
82.492,73.1907,0.004338
82.522,73.1522,0.004338
82.559,73.1067,0.004338
82.601,73.0559,0.004329
82.630,73.0207,0.004329
82.662,72.9844,0.004329
82.692,72.9497,0.004329
82.723,72.9154,0.004329
82.757,72.8787,0.004329
82.785,72.8475,0.004329
82.815,72.8166,0.004329
82.847,72.7845,0.004404
82.877,72.7535,0.004404
82.908,72.7237,0.004404
82.941,72.6926,0.004404
82.971,72.6647,0.004404
83.003,72.6356,0.004404
83.033,72.6095,0.004404
83.064,72.5825,0.004413
83.094,72.5577,0.004413
83.125,72.5328,0.004413
83.157,72.5071,0.004413
83.188,72.4831,0.004413
83.219,72.4606,0.004413
83.249,72.4390,0.004413
83.281,72.4169,0.004413
83.312,72.3963,0.004385
83.342,72.3764,0.004385
83.374,72.3571,0.004385
83.405,72.3374,0.004385
83.436,72.3201,0.004385
83.467,72.3024,0.004385
83.499,72.2863,0.004385
83.530,72.2706,0.004385
83.562,72.2553,0.004385
83.591,72.2417,0.004385
83.623,72.2278,0.004385
83.654,72.2150,0.004385
83.686,72.2022,0.004385
83.716,72.1916,0.004385
83.748,72.1806,0.004385
83.778,72.1712,0.004385
83.810,72.1618,0.004385
83.841,72.1534,0.004329
83.872,72.1458,0.004329
83.903,72.1387,0.004329
83.936,72.1323,0.004329
83.965,72.1272,0.004329
83.996,72.1225,0.004329
84.028,72.1184,0.004329
84.059,72.1150,0.004366
84.091,72.1124,0.004366
84.121,72.1108,0.004366
84.152,72.1097,0.004366
84.183,72.1093,0.004366
84.217,72.1093,0.004366
84.245,72.1093,0.004366
84.275,72.1093,0.004366
84.306,72.1093,0.004366
84.337,72.1093,0.004442
84.367,72.1096,0.004442
84.398,72.1106,0.004442
84.432,72.1126,0.004442
84.460,72.1148,0.004442
84.492,72.1180,0.004442
84.522,72.1219,0.004442
84.553,72.1265,0.004442
84.584,72.1319,0.004413
84.615,72.1382,0.004413
84.646,72.1451,0.004413
84.677,72.1524,0.004413
84.708,72.1606,0.004413
84.739,72.1696,0.004413
84.770,72.1794,0.004413
84.802,72.1902,0.004413
84.831,72.2006,0.004413
84.862,72.2124,0.004338
84.894,72.2257,0.004338
84.924,72.2384,0.004338
84.955,72.2523,0.004338
84.986,72.2676,0.004338
85.018,72.2832,0.004338
85.049,72.3001,0.004338
85.079,72.3163,0.004291
85.110,72.3338,0.004291
85.141,72.3522,0.004291
85.172,72.3718,0.004291
85.203,72.3917,0.004291
85.234,72.4116,0.004291
85.265,72.4339,0.004291
85.297,72.4559,0.004291
85.327,72.4790,0.004357
85.358,72.5025,0.004357
85.389,72.5264,0.004357
85.420,72.5514,0.004357
85.451,72.5768,0.004357
85.481,72.6026,0.004357
85.513,72.6302,0.004357
85.544,72.6586,0.004357
85.575,72.6864,0.004357
85.605,72.7152,0.004357
85.636,72.7455,0.004357
85.668,72.7771,0.004357
85.698,72.8078,0.004357
85.729,72.8400,0.004357
85.760,72.8723,0.004357
85.791,72.9066,0.004357
85.823,72.9415,0.004348
85.854,72.9769,0.004348
85.884,73.0126,0.004348
85.916,73.0492,0.004348
85.946,73.0859,0.004348
85.978,73.1247,0.004348
86.009,73.1639,0.004348
86.040,73.2032,0.004348
86.071,73.2438,0.004338
86.103,73.2866,0.004338
86.133,73.3259,0.004338
86.164,73.3700,0.004338
86.195,73.4122,0.004338
86.227,73.4572,0.004338
86.257,73.5011,0.004338
86.290,73.5489,0.004338
86.319,73.5922,0.004310
86.350,73.6383,0.004310
86.380,73.6846,0.004310
86.412,73.7347,0.004310
86.442,73.7815,0.004310
86.473,73.8318,0.004310
86.503,73.8806,0.004310
86.534,73.9321,0.004310
86.566,73.9846,0.004357
86.596,74.0367,0.004357
86.628,74.0907,0.004357
86.658,74.1442,0.004357
86.689,74.1983,0.004357
86.720,74.2541,0.004357
86.751,74.3101,0.004357
86.781,74.3658,0.004357
86.812,74.4226,0.004423
86.844,74.4833,0.004423
86.875,74.5417,0.004423
86.906,74.6010,0.004423
86.937,74.6610,0.004423
86.967,74.7203,0.004423
86.999,74.7804,0.004423
87.031,74.8396,0.004423
87.061,74.8955,0.004508
87.092,74.9512,0.004508
87.123,75.0069,0.004508
87.155,75.0632,0.004508
87.185,75.1170,0.004508
87.216,75.1704,0.004508
87.248,75.2233,0.004508
87.278,75.2753,0.004508
87.310,75.3277,0.004545
87.341,75.3772,0.004545
87.372,75.4280,0.004545
87.403,75.4763,0.004545
87.434,75.5254,0.004545
87.465,75.5729,0.004545
87.495,75.6177,0.004545
87.526,75.6635,0.004545
87.556,75.7089,0.004545
87.587,75.7534,0.004545
87.617,75.7972,0.004630
87.648,75.8397,0.004630
87.680,75.8837,0.004630
87.711,75.9249,0.004630
87.742,75.9666,0.004630
87.773,76.0066,0.004630
87.804,76.0462,0.004630
87.835,76.0845,0.004668
87.867,76.1250,0.004668
87.897,76.1617,0.004668
87.929,76.1988,0.004668
87.960,76.2347,0.004668
87.991,76.2702,0.004668
88.022,76.3058,0.004668
88.053,76.3388,0.004668
88.085,76.3728,0.004677
88.117,76.4065,0.004677
88.146,76.4354,0.004677
88.177,76.4673,0.004677
88.208,76.4969,0.004677
88.238,76.5267,0.004677
88.269,76.5545,0.004677
88.305,76.5872,0.004677
88.332,76.6103,0.004630
88.363,76.6371,0.004630
88.394,76.6630,0.004630
88.424,76.6880,0.004630
88.456,76.7126,0.004630
88.487,76.7362,0.004630
88.519,76.7598,0.004630
88.551,76.7824,0.004583
88.583,76.8055,0.004583
88.612,76.8243,0.004583
88.643,76.8447,0.004583
88.674,76.8633,0.004583
88.705,76.8824,0.004583
88.737,76.9002,0.004583
88.768,76.9178,0.004583
88.799,76.9338,0.004658
88.831,76.9498,0.004658
88.861,76.9641,0.004658
88.893,76.9792,0.004658
88.924,76.9921,0.004658
88.956,77.0059,0.004658
88.985,77.0166,0.004658
89.016,77.0282,0.004658
89.048,77.0385,0.004658
89.078,77.0484,0.004658
89.109,77.0575,0.004658
89.141,77.0658,0.004658
89.171,77.0732,0.004658
89.201,77.0798,0.004658
89.232,77.0860,0.004658
89.263,77.0916,0.004658
89.294,77.0962,0.004611
89.325,77.1003,0.004611
89.357,77.1036,0.004611
89.388,77.1062,0.004611
89.418,77.1079,0.004611
89.450,77.1090,0.004611
89.481,77.1093,0.004611
89.512,77.1093,0.004611
89.542,77.1093,0.004602
89.573,77.1093,0.004602
89.604,77.1093,0.004602
89.634,77.1093,0.004602
