Elapsed Time (s),Position (mm),Force (N)
-0.016,69.4093,0.004244
0.014,69.4093,0.004244
0.045,69.4093,0.004244
0.076,69.4093,0.004244
0.107,69.4093,0.004244
0.139,69.4093,0.004244
0.170,69.4093,0.004244
0.202,69.4093,0.004272
0.234,69.4093,0.004272
0.265,69.4093,0.004272
0.297,69.4093,0.004272
0.328,69.4093,0.004272
0.360,69.4093,0.004272
0.391,69.4093,0.004272
0.422,69.4093,0.004272
0.452,69.4093,0.004282
0.482,69.4093,0.004282
0.513,69.4093,0.004282
0.543,69.4093,0.004282
0.574,69.4093,0.004282
0.605,69.4093,0.004282
0.637,69.4093,0.004282
0.668,69.4093,0.004282
0.699,69.4093,0.004282
0.730,69.4093,0.004282
0.762,69.4093,0.004282
0.793,69.4093,0.004282
0.824,69.4093,0.004282
0.856,69.4093,0.004282
0.887,69.4093,0.004282
0.918,69.4093,0.004282
0.950,69.4093,0.004263
0.981,69.4093,0.004263
1.012,69.4093,0.004263
1.044,69.4093,0.004263
1.076,69.4093,0.004263
1.106,69.4093,0.004263
1.137,69.4093,0.004263
1.168,69.4093,0.004263
1.199,69.4093,0.004263
1.230,69.4093,0.004263
1.260,69.4093,0.004263
1.292,69.4093,0.004263
1.323,69.4093,0.004263
1.354,69.4093,0.004263
1.384,69.4093,0.004263
1.415,69.4093,0.004263
1.445,69.4093,0.004197
1.477,69.4093,0.004197
1.508,69.4093,0.004197
1.539,69.4093,0.004197
1.570,69.4093,0.004197
1.601,69.4093,0.004197
1.632,69.4093,0.004197
1.663,69.4093,0.004197
1.694,69.4093,0.004159
1.720,69.4093,0.004159
1.756,69.4093,0.004159
1.786,69.4093,0.004159
1.818,69.4093,0.004159
1.849,69.4093,0.004159
1.881,69.4093,0.004159
1.913,69.4093,0.004159
1.942,69.4093,0.004216
1.974,69.4093,0.004216
2.004,69.4093,0.004216
2.036,69.4093,0.004216
2.066,69.4093,0.004216
2.098,69.4093,0.004216
2.129,69.4093,0.004216
2.160,69.4093,0.004216
2.192,69.4093,0.004253
2.224,69.4093,0.004253
2.255,69.4093,0.004253
2.285,69.4093,0.004253
2.316,69.4093,0.004253
2.347,69.4093,0.004253
2.378,69.4093,0.004253
2.411,69.4093,0.004253
2.440,69.4093,0.004225
2.470,69.4093,0.004225
2.502,69.4093,0.004225
2.532,69.4093,0.004225
2.563,69.4093,0.004225
2.594,69.4093,0.004225
2.625,69.4093,0.004225
2.656,69.4093,0.004225
2.687,69.4093,0.004216
2.718,69.4093,0.004216
2.749,69.4093,0.004216
2.780,69.4093,0.004216
2.811,69.4093,0.004216
2.844,69.4093,0.004216
2.873,69.4093,0.004216
2.904,69.4093,0.004216
2.936,69.4093,0.004225
2.967,69.4093,0.004225
2.999,69.4093,0.004225
3.032,69.4093,0.004225
3.061,69.4093,0.004225
3.092,69.4093,0.004225
3.123,69.4093,0.004225
3.154,69.4093,0.004225
3.184,69.4093,0.004253
3.215,69.4093,0.004253
3.246,69.4093,0.004253
3.276,69.4093,0.004253
3.308,69.4093,0.004253
3.338,69.4093,0.004253
3.369,69.4093,0.004253
3.403,69.4093,0.004253
3.432,69.4093,0.004253
3.463,69.4093,0.004301
3.494,69.4093,0.004301
3.525,69.4093,0.004301
3.556,69.4093,0.004301
3.589,69.4093,0.004301
3.619,69.4093,0.004301
3.651,69.4093,0.004301
3.682,69.4093,0.004301
3.713,69.4093,0.004301
3.746,69.4093,0.004282
3.775,69.4093,0.004282
3.806,69.4093,0.004282
3.838,69.4093,0.004282
3.869,69.4093,0.004282
3.901,69.4093,0.004282
3.931,69.4093,0.004282
3.961,69.4093,0.004282
3.992,69.4093,0.004225
4.024,69.4093,0.004225
4.055,69.4093,0.004225
4.086,69.4091,0.004225
4.117,69.4081,0.004225
4.149,69.4064,0.004225
4.179,69.4040,0.004235
4.210,69.4009,0.004235
4.241,69.3971,0.004235
4.273,69.3924,0.004235
4.304,69.3870,0.004235
4.335,69.3807,0.004235
4.368,69.3735,0.004235
4.397,69.3664,0.004235
4.428,69.3581,0.004235
4.458,69.3494,0.004319
4.490,69.3394,0.004319
4.520,69.3296,0.004319
4.551,69.3183,0.004319
4.582,69.3065,0.004319
4.613,69.2940,0.004319
4.643,69.2810,0.004319
4.675,69.2667,0.004319
4.706,69.2517,0.004319
4.738,69.2360,0.004319
4.768,69.2203,0.004319
4.798,69.2036,0.004319
4.829,69.1855,0.004319
4.861,69.1674,0.004319
4.892,69.1482,0.004319
4.923,69.1278,0.004319
4.954,69.1076,0.004319
4.985,69.0854,0.004319
5.016,69.0644,0.004319
5.047,69.0407,0.004319
5.078,69.0173,0.004319
5.109,68.9929,0.004319
5.140,68.9688,0.004319
5.172,68.9417,0.004319
5.201,68.9175,0.004319
5.232,68.8898,0.004366
5.263,68.8620,0.004366
5.294,68.8334,0.004366
5.325,68.8044,0.004366
5.356,68.7746,0.004366
5.387,68.7435,0.004366
5.418,68.7127,0.004366
5.448,68.6806,0.004404
5.479,68.6482,0.004404
5.513,68.6113,0.004404
5.542,68.5798,0.004404
5.573,68.5432,0.004404
5.605,68.5062,0.004404
5.635,68.4710,0.004404
5.666,68.4345,0.004404
5.697,68.3955,0.004432
5.735,68.3483,0.004432
5.774,68.2978,0.004432
5.807,68.2553,0.004432
5.836,68.2171,0.004432
5.867,68.1741,0.004432
5.898,68.1324,0.004432
5.930,68.0878,0.004432
5.960,68.0438,0.004357
5.992,67.9980,0.004357
6.023,67.9527,0.004357
6.054,67.9059,0.004357
6.084,67.8598,0.004357
6.116,67.8104,0.004357
6.147,67.7618,0.004357
6.178,67.7138,0.004357
6.208,67.6636,0.004357
6.243,67.6079,0.004301
6.270,67.5629,0.004301
6.301,67.5105,0.004301
6.332,67.4580,0.004301
6.364,67.4029,0.004301
6.396,67.3453,0.004301
6.428,67.2890,0.004301
6.458,67.2345,0.004301
6.489,67.1788,0.004301
6.519,67.1209,0.004301
6.550,67.0643,0.004301
6.582,67.0052,0.004301
6.616,66.9383,0.004301
6.644,66.8836,0.004301
6.676,66.8212,0.004301
6.706,66.7643,0.004301
6.738,66.7030,0.004329
6.769,66.6454,0.004329
6.800,66.5862,0.004329
6.832,66.5299,0.004329
6.865,66.4705,0.004329
6.895,66.4172,0.004329
6.926,66.3616,0.004329
6.957,66.3091,0.004329
6.988,66.2558,0.004244
7.019,66.2035,0.004244
7.050,66.1509,0.004244
7.081,66.1023,0.004244
7.112,66.0524,0.004244
7.143,66.0030,0.004244
7.174,65.9537,0.004244
7.205,65.9066,0.004112
7.235,65.8607,0.004112
7.267,65.8128,0.004112
7.297,65.7688,0.004112
7.329,65.7215,0.004112
7.360,65.6777,0.004112
7.392,65.6337,0.004112
7.424,65.5899,0.004112
7.456,65.5466,0.004131
7.487,65.5042,0.004131
7.518,65.4652,0.004131
7.549,65.4250,0.004131
7.580,65.3854,0.004131
7.612,65.3463,0.004131
7.644,65.3079,0.004131
7.674,65.2717,0.004131
7.705,65.2357,0.004131
7.736,65.1997,0.004169
7.767,65.1658,0.004169
7.798,65.1317,0.004169
7.830,65.0984,0.004169
7.860,65.0663,0.004169
7.890,65.0354,0.004169
7.921,65.0047,0.004169
7.952,64.9745,0.004159
7.984,64.9438,0.004159
8.014,64.9165,0.004159
8.045,64.8878,0.004159
8.076,64.8605,0.004159
8.107,64.8337,0.004159
8.138,64.8077,0.004159
8.169,64.7828,0.004159
8.200,64.7583,0.004141
8.231,64.7351,0.004141
8.262,64.7111,0.004141
8.294,64.6888,0.004141
8.324,64.6677,0.004141
8.355,64.6466,0.004141
8.387,64.6265,0.004141
8.419,64.6063,0.004141
8.449,64.5883,0.004103
8.480,64.5707,0.004103
8.511,64.5535,0.004103
8.542,64.5368,0.004103
8.573,64.5212,0.004103
8.604,64.5058,0.004103
8.636,64.4914,0.004103
8.667,64.4778,0.004103
8.698,64.4652,0.004094
8.729,64.4527,0.004094
8.761,64.4416,0.004094
8.792,64.4309,0.004094
8.822,64.4212,0.004094
8.854,64.4119,0.004094
8.884,64.4036,0.004094
8.916,64.3959,0.004094
8.947,64.3889,0.004103
8.978,64.3828,0.004103
9.009,64.3772,0.004103
9.039,64.3726,0.004103
9.071,64.3685,0.004103
9.103,64.3652,0.004103
9.133,64.3626,0.004103
9.164,64.3608,0.004103
9.195,64.3597,0.004112
9.226,64.3594,0.004112
9.257,64.3594,0.004112
9.289,64.3594,0.004112
9.318,64.3594,0.004112
9.349,64.3594,0.004112
9.380,64.3594,0.004112
9.411,64.3600,0.004112
9.442,64.3613,0.004112
9.473,64.3633,0.004169
9.508,64.3666,0.004169
9.536,64.3697,0.004169
9.568,64.3740,0.004169
9.598,64.3790,0.004169
9.630,64.3848,0.004169
9.661,64.3915,0.004169
9.692,64.3984,0.004075
9.723,64.4062,0.004075
9.754,64.4149,0.004075
9.785,64.4245,0.004075
9.816,64.4345,0.004075
9.847,64.4453,0.004075
9.878,64.4566,0.004075
9.908,64.4687,0.004075
9.940,64.4820,0.004046
9.971,64.4955,0.004046
10.001,64.5099,0.004046
10.032,64.5249,0.004046
10.062,64.5407,0.004046
10.094,64.5574,0.004046
10.124,64.5745,0.004046
10.156,64.5929,0.004046
10.187,64.6119,0.004046
10.218,64.6316,0.004103
10.249,64.6516,0.004103
10.280,64.6730,0.004103
10.311,64.6942,0.004103
10.342,64.7169,0.004103
10.373,64.7397,0.004103
10.404,64.7636,0.004103
10.435,64.7882,0.004103
10.465,64.8124,0.004075
10.497,64.8403,0.004075
10.529,64.8667,0.004075
10.560,64.8949,0.004075
10.591,64.9224,0.004075
10.621,64.9512,0.004075
10.652,64.9816,0.004075
10.684,65.0118,0.004075
10.714,65.0433,0.004075
10.745,65.0746,0.004075
10.776,65.1081,0.004075
10.807,65.1403,0.004075
10.838,65.1757,0.004075
10.869,65.2085,0.004075
10.900,65.2455,0.004075
10.932,65.2821,0.004094
10.963,65.3195,0.004094
10.994,65.3570,0.004094
11.024,65.3936,0.004094
11.056,65.4345,0.004094
11.086,65.4732,0.004094
11.117,65.5144,0.004094
11.148,65.5544,0.004094
11.179,65.5967,0.004084
11.210,65.6399,0.004084
11.240,65.6824,0.004084
11.271,65.7257,0.004084
11.301,65.7702,0.004084
11.332,65.8153,0.004084
11.363,65.8610,0.004084
11.394,65.9097,0.004084
11.425,65.9570,0.004094
11.456,66.0058,0.004094
11.486,66.0527,0.004094
11.517,66.1020,0.004094
11.547,66.1519,0.004094
11.580,66.2058,0.004094
11.610,66.2589,0.004094
11.640,66.3079,0.004094
11.671,66.3632,0.004094
11.701,66.4158,0.004103
11.733,66.4727,0.004103
11.764,66.5285,0.004103
11.796,66.5861,0.004103
11.827,66.6429,0.004103
11.859,66.7032,0.004103
11.890,66.7624,0.004103
11.921,66.8202,0.004103
11.951,66.8799,0.004065
11.982,66.9384,0.004065
12.014,67.0004,0.004065
12.044,67.0550,0.004065
12.075,67.1135,0.004065
12.106,67.1713,0.004065
12.136,67.2248,0.004065
12.167,67.2794,0.004065
12.197,67.3334,0.004188
12.228,67.3873,0.004188
12.259,67.4399,0.004188
12.289,67.4926,0.004188
12.321,67.5437,0.004188
12.352,67.5962,0.004188
12.383,67.6471,0.004188
12.415,67.6965,0.004188
12.445,67.7445,0.004357
12.476,67.7920,0.004357
12.507,67.8398,0.004357
12.538,67.8862,0.004357
12.568,67.9312,0.004357
12.599,67.9761,0.004357
12.630,68.0209,0.004357
12.661,68.0651,0.004357
12.692,68.1078,0.004357
12.723,68.1494,0.004329
12.756,68.1945,0.004329
12.784,68.2316,0.004329
12.815,68.2707,0.004329
12.846,68.3110,0.004329
12.883,68.3568,0.004329
12.909,68.3886,0.004329
12.940,68.4253,0.004329
12.970,68.4599,0.004319
13.001,68.4965,0.004319
13.032,68.5314,0.004319
13.063,68.5657,0.004319
13.093,68.5984,0.004319
13.124,68.6317,0.004319
13.155,68.6628,0.004319
13.186,68.6950,0.004319
13.217,68.7250,0.004319
13.248,68.7559,0.004366
13.279,68.7853,0.004366
13.310,68.8138,0.004366
13.342,68.8421,0.004366
13.373,68.8693,0.004366
13.404,68.8956,0.004366
13.435,68.9218,0.004366
13.465,68.9457,0.004357
13.496,68.9694,0.004357
13.527,68.9931,0.004357
13.558,69.0164,0.004357
13.593,69.0409,0.004357
13.621,69.0595,0.004357
13.651,69.0794,0.004357
13.682,69.0993,0.004310
13.713,69.1186,0.004310
13.751,69.1408,0.004310
13.790,69.1627,0.004310
13.822,69.1798,0.004310
13.852,69.1952,0.004310
13.884,69.2112,0.004310
13.914,69.2244,0.004310
13.945,69.2383,0.004310
13.974,69.2506,0.004310
14.004,69.2623,0.004310
14.036,69.2739,0.004310
14.067,69.2849,0.004310
14.098,69.2949,0.004310
14.129,69.3044,0.004310
14.161,69.3130,0.004310
14.192,69.3209,0.004310
14.223,69.3279,0.004310
14.253,69.3343,0.004310
14.285,69.3399,0.004310
14.315,69.3450,0.004310
14.346,69.3491,0.004310
14.378,69.3527,0.004310
14.409,69.3554,0.004310
14.440,69.3575,0.004310
14.472,69.3587,0.004272
14.503,69.3594,0.004272
14.533,69.3594,0.004272
14.565,69.3594,0.004272
14.596,69.3594,0.004272
14.627,69.3594,0.004272
14.657,69.3594,0.004272
14.695,69.3594,0.004272
14.734,69.3594,0.004253
14.765,69.3594,0.004253
14.796,69.3594,0.004253
14.827,69.3594,0.004253
14.860,69.3594,0.004253
14.890,69.3594,0.004253
14.921,69.3594,0.004253
14.952,69.3594,0.004197
14.986,69.3594,0.004197
15.013,69.3594,0.004197
15.044,69.3594,0.004197
15.076,69.3594,0.004197
15.106,69.3594,0.004197
15.137,69.3594,0.004197
15.167,69.3594,0.004197
15.199,69.3594,0.004178
15.230,69.3594,0.004178
15.261,69.3594,0.004178
15.293,69.3594,0.004178
15.323,69.3594,0.004178
15.353,69.3594,0.004178
15.385,69.3594,0.004178
15.416,69.3594,0.004178
15.446,69.3594,0.004206
15.477,69.3594,0.004206
15.508,69.3594,0.004206
15.539,69.3594,0.004206
15.570,69.3594,0.004206
15.600,69.3594,0.004206
15.631,69.3594,0.004206
15.663,69.3594,0.004206
15.695,69.3594,0.004253
15.726,69.3594,0.004253
15.757,69.3594,0.004253
15.788,69.3594,0.004253
15.819,69.3594,0.004253
15.848,69.3594,0.004253
15.879,69.3594,0.004253
15.910,69.3594,0.004253
15.942,69.3594,0.004235
15.973,69.3594,0.004235
16.005,69.3594,0.004235
16.036,69.3594,0.004235
16.067,69.3594,0.004235
16.101,69.3594,0.004235
16.129,69.3594,0.004235
16.160,69.3594,0.004235
16.191,69.3594,0.004216
16.222,69.3594,0.004216
16.253,69.3594,0.004216
16.283,69.3594,0.004216
16.314,69.3594,0.004216
16.344,69.3594,0.004216
16.376,69.3594,0.004216
16.406,69.3594,0.004216
16.437,69.3594,0.004216
16.469,69.3594,0.004188
16.500,69.3594,0.004188
16.530,69.3594,0.004188
16.561,69.3594,0.004188
16.592,69.3594,0.004188
16.623,69.3594,0.004188
16.655,69.3594,0.004188
16.686,69.3594,0.004197
16.720,69.3594,0.004197
16.748,69.3594,0.004197
16.779,69.3594,0.004197
16.810,69.3594,0.004197
16.840,69.3594,0.004197
16.872,69.3594,0.004197
16.902,69.3594,0.004197
16.933,69.3594,0.004282
16.964,69.3594,0.004282
16.996,69.3594,0.004282
17.027,69.3594,0.004282
17.058,69.3594,0.004282
17.089,69.3594,0.004282
17.120,69.3594,0.004282
17.152,69.3594,0.004282
17.183,69.3594,0.004244
17.214,69.3594,0.004244
17.245,69.3594,0.004244
17.277,69.3594,0.004244
17.308,69.3594,0.004244
17.339,69.3594,0.004244
17.370,69.3594,0.004244
17.400,69.3594,0.004244
17.432,69.3594,0.004235
17.457,69.3594,0.004235
17.494,69.3594,0.004235
17.525,69.3594,0.004235
17.556,69.3594,0.004235
17.587,69.3594,0.004235
17.619,69.3594,0.004235
17.650,69.3594,0.004235
17.681,69.3594,0.004235
17.712,69.3594,0.004263
17.743,69.3594,0.004263
17.774,69.3594,0.004263
17.804,69.3594,0.004263
17.835,69.3594,0.004263
17.867,69.3594,0.004263
17.898,69.3594,0.004263
17.930,69.3594,0.004263
17.960,69.3594,0.004188
17.991,69.3594,0.004188
18.023,69.3594,0.004188
18.054,69.3594,0.004188
18.086,69.3594,0.004188
18.115,69.3594,0.004188
18.147,69.3594,0.004188
18.178,69.3594,0.004188
18.209,69.3594,0.004188
18.240,69.3594,0.004188
18.272,69.3594,0.004188
18.302,69.3594,0.004188
18.333,69.3594,0.004188
18.364,69.3594,0.004188
18.397,69.3594,0.004188
18.427,69.3594,0.004188
18.459,69.3594,0.004188
18.490,69.3594,0.004206
18.520,69.3594,0.004206
18.551,69.3594,0.004206
18.583,69.3594,0.004206
18.614,69.3594,0.004206
18.646,69.3594,0.004206
18.677,69.3594,0.004206
18.708,69.3594,0.004206
18.738,69.3594,0.004206
18.770,69.3586,0.004206
18.801,69.3573,0.004206
18.832,69.3551,0.004206
18.863,69.3523,0.004206
18.894,69.3487,0.004206
18.926,69.3444,0.004206
18.957,69.3394,0.004272
18.988,69.3336,0.004272
19.018,69.3271,0.004272
19.050,69.3199,0.004272
19.081,69.3117,0.004272
19.112,69.3033,0.004272
19.143,69.2936,0.004272
19.174,69.2835,0.004272
19.206,69.2728,0.004329
19.237,69.2609,0.004329
19.268,69.2489,0.004329
19.301,69.2343,0.004329
19.329,69.2221,0.004329
19.361,69.2072,0.004329
19.392,69.1921,0.004329
19.423,69.1759,0.004329
19.455,69.1592,0.004348
19.486,69.1412,0.004348
19.518,69.1227,0.004348
19.550,69.1030,0.004348
19.580,69.0840,0.004348
19.611,69.0629,0.004348
19.643,69.0420,0.004348
19.674,69.0202,0.004348
19.704,68.9982,0.004348
19.735,68.9750,0.004366
19.766,68.9508,0.004366
19.797,68.9259,0.004366
19.829,68.8997,0.004366
19.860,68.8731,0.004366
19.891,68.8467,0.004366
19.922,68.8191,0.004366
19.953,68.7910,0.004338
19.985,68.7606,0.004338
20.015,68.7316,0.004338
20.046,68.7010,0.004338
20.077,68.6702,0.004338
20.107,68.6377,0.004338
20.139,68.6049,0.004338
20.169,68.5714,0.004338
20.200,68.5385,0.004319
20.231,68.5031,0.004319
20.262,68.4678,0.004319
20.293,68.4317,0.004319
20.324,68.3932,0.004319
20.355,68.3558,0.004319
20.386,68.3165,0.004319
20.418,68.2769,0.004319
20.449,68.2361,0.004357
20.481,68.1949,0.004357
20.512,68.1524,0.004357
20.543,68.1100,0.004357
20.577,68.0642,0.004357
20.606,68.0225,0.004357
20.637,67.9775,0.004357
20.669,67.9321,0.004357
20.700,67.8846,0.004395
20.731,67.8390,0.004395
20.762,67.7921,0.004395
20.792,67.7458,0.004395
20.825,67.6931,0.004395
20.854,67.6470,0.004395
20.884,67.5980,0.004395
20.916,67.5458,0.004357
20.946,67.4959,0.004357
20.977,67.4441,0.004357
21.008,67.3902,0.004357
21.039,67.3367,0.004357
21.070,67.2826,0.004357
21.102,67.2253,0.004357
21.133,67.1695,0.004357
21.165,67.1106,0.004357
21.195,67.0525,0.004348
21.227,66.9950,0.004348
21.258,66.9351,0.004348
21.287,66.8780,0.004348
21.318,66.8170,0.004348
21.349,66.7591,0.004348
21.380,66.6987,0.004348
21.411,66.6415,0.004348
21.441,66.5845,0.004348
21.473,66.5259,0.004272
21.504,66.4685,0.004272
21.535,66.4129,0.004272
21.566,66.3581,0.004272
21.597,66.3043,0.004272
21.629,66.2482,0.004272
21.661,66.1949,0.004272
21.693,66.1403,0.004272
21.724,66.0900,0.004131
21.755,66.0385,0.004131
21.786,65.9889,0.004131
21.818,65.9383,0.004131
21.849,65.8906,0.004131
21.880,65.8427,0.004131
21.912,65.7946,0.004131
21.943,65.7484,0.004122
21.973,65.7028,0.004122
22.004,65.6586,0.004122
22.035,65.6153,0.004122
22.067,65.5700,0.004122
22.098,65.5288,0.004122
22.129,65.4865,0.004122
22.160,65.4459,0.004122
22.191,65.4050,0.004122
22.222,65.3667,0.004150
22.254,65.3260,0.004150
22.285,65.2885,0.004150
22.314,65.2516,0.004150
22.345,65.2157,0.004150
22.377,65.1773,0.004150
22.407,65.1452,0.004150
22.438,65.1111,0.004150
22.469,65.0768,0.004150
22.500,65.0431,0.004150
22.531,65.0107,0.004150
22.563,64.9786,0.004150
22.593,64.9478,0.004150
22.624,64.9188,0.004150
22.655,64.8889,0.004150
22.686,64.8604,0.004150
22.717,64.8325,0.004150
22.749,64.8042,0.004150
22.780,64.7779,0.004150
22.811,64.7516,0.004150
22.842,64.7268,0.004150
22.873,64.7030,0.004150
22.903,64.6801,0.004150
22.934,64.6574,0.004150
22.965,64.6352,0.004122
22.996,64.6136,0.004122
23.027,64.5930,0.004122
23.058,64.5732,0.004122
23.089,64.5543,0.004122
23.120,64.5353,0.004122
23.150,64.5181,0.004122
23.181,64.5010,0.004122
23.212,64.4849,0.004122
23.243,64.4691,0.004141
23.274,64.4542,0.004141
23.305,64.4402,0.004141
23.335,64.4267,0.004141
23.366,64.4144,0.004141
23.398,64.4020,0.004141
23.429,64.3910,0.004141
23.460,64.3803,0.004141
23.492,64.3703,0.004169
23.522,64.3615,0.004169
23.553,64.3529,0.004169
23.584,64.3455,0.004169
23.614,64.3386,0.004169
23.645,64.3327,0.004169
23.676,64.3271,0.004169
23.707,64.3225,0.004141
23.739,64.3183,0.004141
23.769,64.3152,0.004141
23.801,64.3126,0.004141
23.832,64.3107,0.004141
23.862,64.3097,0.004141
23.894,64.3094,0.004141
23.925,64.3094,0.004141
23.956,64.3094,0.004122
23.987,64.3094,0.004122
24.017,64.3094,0.004122
24.048,64.3094,0.004122
24.080,64.3095,0.004122
24.111,64.3101,0.004122
24.142,64.3116,0.004122
24.173,64.3137,0.004122
24.206,64.3168,0.004159
24.235,64.3203,0.004159
24.266,64.3246,0.004159
24.298,64.3297,0.004159
24.330,64.3359,0.004159
24.360,64.3422,0.004159
24.390,64.3492,0.004159
24.421,64.3571,0.004141
24.452,64.3659,0.004141
24.483,64.3754,0.004141
24.513,64.3853,0.004141
24.544,64.3963,0.004141
24.575,64.4080,0.004141
24.606,64.4200,0.004141
24.636,64.4327,0.004141
24.667,64.4464,0.004141
24.697,64.4604,0.004141
24.729,64.4764,0.004075
24.759,64.4916,0.004075
24.790,64.5079,0.004075
24.823,64.5263,0.004075
24.853,64.5439,0.004075
24.884,64.5633,0.004075
24.916,64.5830,0.004075
24.948,64.6042,0.004075
24.979,64.6250,0.004094
25.010,64.6475,0.004094
25.040,64.6694,0.004094
25.071,64.6917,0.004094
25.101,64.7153,0.004094
25.133,64.7402,0.004094
25.163,64.7654,0.004094
25.196,64.7932,0.004094
25.226,64.8191,0.004084
25.256,64.8462,0.004084
25.288,64.8743,0.004084
25.317,64.9023,0.004084
25.349,64.9323,0.004084
25.381,64.9645,0.004084
25.411,64.9940,0.004084
25.441,65.0262,0.004084
25.473,65.0589,0.004075
25.509,65.0980,0.004075
25.534,65.1264,0.004075
25.566,65.1618,0.004075
25.597,65.1970,0.004075
25.628,65.2337,0.004075
25.659,65.2702,0.004075
25.690,65.3076,0.004075
25.721,65.3467,0.004065
25.752,65.3861,0.004065
25.784,65.4266,0.004065
25.815,65.4675,0.004065
25.846,65.5093,0.004065
25.878,65.5523,0.004065
25.908,65.5939,0.004065
25.939,65.6383,0.004065
25.970,65.6819,0.004084
26.001,65.7276,0.004084
26.032,65.7724,0.004084
26.063,65.8201,0.004084
26.093,65.8655,0.004084
26.125,65.9151,0.004084
26.156,65.9631,0.004084
26.187,66.0117,0.004084
26.217,66.0621,0.004141
26.248,66.1124,0.004141
26.279,66.1640,0.004141
26.310,66.2162,0.004141
26.341,66.2698,0.004141
26.373,66.3251,0.004141
26.404,66.3798,0.004141
26.435,66.4343,0.004141
26.467,66.4924,0.004169
26.498,66.5496,0.004169
26.529,66.6067,0.004169
26.559,66.6635,0.004169
26.589,66.7199,0.004169
26.622,66.7828,0.004169
26.652,66.8408,0.004169
26.684,66.9025,0.004169
26.714,66.9594,0.004150
26.746,67.0195,0.004150
26.777,67.0760,0.004150
26.808,67.1335,0.004150
26.839,67.1903,0.004150
26.871,67.2455,0.004150
26.901,67.2983,0.004150
26.932,67.3538,0.004150
26.962,67.4036,0.004225
26.994,67.4570,0.004225
27.025,67.5096,0.004225
27.054,67.5578,0.004225
27.085,67.6088,0.004225
27.122,67.6667,0.004225
27.163,67.7301,0.004225
27.193,67.7766,0.004395
27.224,67.8227,0.004395
27.254,67.8686,0.004395
27.285,67.9129,0.004395
27.316,67.9577,0.004395
27.348,68.0027,0.004395
27.379,68.0468,0.004395
27.411,68.0897,0.004395
27.442,68.1320,0.004423
27.473,68.1730,0.004423
27.503,68.2124,0.004423
27.535,68.2526,0.004423
27.566,68.2928,0.004423
27.598,68.3310,0.004423
27.629,68.3687,0.004423
27.660,68.4053,0.004423
27.692,68.4417,0.004338
27.723,68.4781,0.004338
27.754,68.5118,0.004338
27.786,68.5465,0.004338
27.816,68.5781,0.004338
27.846,68.6096,0.004338
27.877,68.6415,0.004338
27.908,68.6721,0.004338
27.939,68.7017,0.004338
27.970,68.7313,0.004301
28.001,68.7601,0.004301
28.032,68.7879,0.004301
28.063,68.8154,0.004301
28.094,68.8413,0.004301
28.125,68.8675,0.004301
28.155,68.8917,0.004301
28.187,68.9170,0.004301
28.218,68.9402,0.004319
28.249,68.9631,0.004319
28.280,68.9859,0.004319
28.311,69.0066,0.004319
28.343,69.0278,0.004319
28.374,69.0474,0.004319
28.405,69.0670,0.004319
28.435,69.0848,0.004282
28.466,69.1028,0.004282
28.495,69.1184,0.004282
28.527,69.1353,0.004282
28.558,69.1506,0.004282
28.590,69.1659,0.004282
28.619,69.1795,0.004282
28.652,69.1933,0.004282
28.681,69.2048,0.004272
28.711,69.2169,0.004272
28.742,69.2281,0.004272
28.773,69.2386,0.004272
28.804,69.2490,0.004272
28.835,69.2572,0.004272
28.866,69.2656,0.004272
28.898,69.2735,0.004272
28.928,69.2801,0.004272
28.959,69.2863,0.004357
28.990,69.2916,0.004357
29.020,69.2964,0.004357
29.052,69.3005,0.004357
29.083,69.3038,0.004357
29.114,69.3062,0.004357
29.145,69.3080,0.004357
29.177,69.3090,0.004442
29.208,69.3094,0.004442
29.242,69.3094,0.004442
29.271,69.3094,0.004442
29.303,69.3094,0.004442
29.332,69.3094,0.004442
29.363,69.3094,0.004442
29.393,69.3094,0.004442
29.424,69.3094,0.004442
29.455,69.3094,0.004338
29.487,69.3094,0.004338
29.517,69.3094,0.004338
29.549,69.3094,0.004338
29.580,69.3094,0.004338
29.611,69.3094,0.004338
29.641,69.3094,0.004338
29.673,69.3094,0.004338
29.703,69.3094,0.004169
29.734,69.3094,0.004169
29.765,69.3094,0.004169
29.797,69.3094,0.004169
29.827,69.3094,0.004169
29.858,69.3094,0.004169
29.888,69.3094,0.004169
29.919,69.3094,0.004169
29.949,69.3094,0.004169
29.980,69.3094,0.004150
30.012,69.3094,0.004150
30.043,69.3094,0.004150
30.074,69.3094,0.004150
30.105,69.3094,0.004150
30.136,69.3094,0.004150
30.167,69.3094,0.004150
30.198,69.3094,0.004188
30.230,69.3094,0.004188
30.260,69.3094,0.004188
30.292,69.3094,0.004188
30.322,69.3094,0.004188
30.353,69.3094,0.004188
30.384,69.3094,0.004188
30.416,69.3094,0.004188
30.447,69.3094,0.004263
30.479,69.3094,0.004263
30.510,69.3094,0.004263
30.542,69.3094,0.004263
30.572,69.3094,0.004263
30.603,69.3094,0.004263
30.634,69.3094,0.004263
30.667,69.3094,0.004263
30.696,69.3094,0.004301
30.728,69.3094,0.004301
30.758,69.3094,0.004301
30.789,69.3094,0.004301
30.820,69.3094,0.004301
30.852,69.3094,0.004301
30.882,69.3094,0.004301
30.912,69.3094,0.004301
30.943,69.3094,0.004301
30.974,69.3094,0.004235
31.005,69.3094,0.004235
31.036,69.3094,0.004235
31.067,69.3094,0.004235
31.098,69.3094,0.004235
31.129,69.3094,0.004235
31.160,69.3094,0.004235
31.191,69.3094,0.004178
31.221,69.3094,0.004178
31.253,69.3094,0.004178
31.284,69.3094,0.004178
31.315,69.3094,0.004178
31.346,69.3094,0.004178
31.377,69.3094,0.004178
31.408,69.3094,0.004178
31.439,69.3094,0.004216
31.470,69.3094,0.004216
31.502,69.3094,0.004216
31.534,69.3094,0.004216
31.564,69.3094,0.004216
31.595,69.3094,0.004216
31.626,69.3094,0.004216
31.657,69.3094,0.004216
31.688,69.3094,0.004263
31.719,69.3094,0.004263
31.751,69.3094,0.004263
31.781,69.3094,0.004263
31.812,69.3094,0.004263
31.843,69.3094,0.004263
31.875,69.3094,0.004263
31.907,69.3094,0.004263
31.938,69.3094,0.004291
31.970,69.3094,0.004291
32.000,69.3094,0.004291
32.031,69.3094,0.004291
32.061,69.3094,0.004291
32.093,69.3094,0.004291
32.123,69.3094,0.004291
32.154,69.3094,0.004291
32.185,69.3094,0.004291
32.216,69.3094,0.004291
32.247,69.3094,0.004291
32.277,69.3094,0.004291
32.308,69.3094,0.004291
32.345,69.3094,0.004291
32.385,69.3094,0.004291
32.417,69.3094,0.004291
32.448,69.3094,0.004235
32.478,69.3094,0.004235
32.509,69.3094,0.004235
32.540,69.3094,0.004235
32.572,69.3094,0.004235
32.603,69.3094,0.004235
32.634,69.3094,0.004235
32.665,69.3094,0.004235
32.697,69.3094,0.004253
32.727,69.3094,0.004253
32.758,69.3094,0.004253
32.789,69.3094,0.004253
32.821,69.3094,0.004253
32.852,69.3094,0.004253
32.883,69.3094,0.004253
32.914,69.3094,0.004253
32.945,69.3094,0.004282
32.976,69.3094,0.004282
33.008,69.3094,0.004282
33.039,69.3094,0.004282
33.069,69.3094,0.004282
33.100,69.3094,0.004282
33.131,69.3094,0.004282
33.163,69.3094,0.004282
33.194,69.3094,0.004301
33.227,69.3094,0.004301
33.255,69.3094,0.004301
33.288,69.3094,0.004301
33.317,69.3094,0.004301
33.349,69.3094,0.004301
33.380,69.3094,0.004301
33.411,69.3094,0.004301
33.443,69.3094,0.004263
33.473,69.3091,0.004263
33.505,69.3081,0.004263
33.535,69.3065,0.004263
33.567,69.3040,0.004263
33.598,69.3008,0.004263
33.629,69.2971,0.004263
33.659,69.2925,0.004263
33.690,69.2874,0.004291
33.722,69.2810,0.004291
33.753,69.2743,0.004291
33.784,69.2667,0.004291
33.814,69.2588,0.004291
33.846,69.2496,0.004291
33.879,69.2393,0.004291
33.908,69.2293,0.004291
33.939,69.2185,0.004395
33.971,69.2059,0.004395
34.002,69.1935,0.004395
34.032,69.1805,0.004395
34.065,69.1656,0.004395
34.095,69.1513,0.004395
34.126,69.1354,0.004395
34.157,69.1194,0.004395
34.189,69.1023,0.004395
34.219,69.0851,0.004338
34.250,69.0663,0.004338
34.281,69.0474,0.004338
34.311,69.0278,0.004338
34.342,69.0075,0.004338
34.375,68.9847,0.004338
34.404,68.9639,0.004338
34.436,68.9405,0.004338
34.467,68.9171,0.004272
34.498,68.8927,0.004272
34.529,68.8676,0.004272
34.560,68.8424,0.004272
34.591,68.8159,0.004272
34.622,68.7885,0.004272
34.653,68.7608,0.004272
34.683,68.7318,0.004272
34.714,68.7032,0.004272
34.745,68.6736,0.004272
34.776,68.6425,0.004329
34.808,68.6104,0.004329
34.838,68.5786,0.004329
34.869,68.5460,0.004329
34.900,68.5120,0.004329
34.931,68.4779,0.004385
34.963,68.4415,0.004385
34.993,68.4067,0.004385
35.025,68.3695,0.004385
35.055,68.3334,0.004385
35.085,68.2957,0.004385
35.117,68.2567,0.004385
35.148,68.2152,0.004385
35.179,68.1761,0.004348
35.211,68.1334,0.004348
35.242,68.0923,0.004348
35.273,68.0494,0.004348
35.304,68.0055,0.004348
35.336,67.9603,0.004348
35.367,67.9164,0.004348
35.397,67.8731,0.004348
35.428,67.8269,0.004348
35.459,67.7788,0.004385
35.490,67.7323,0.004385
35.521,67.6836,0.004385
35.551,67.6358,0.004385
35.582,67.5858,0.004385
35.613,67.5371,0.004385
35.645,67.4835,0.004385
35.675,67.4327,0.004385
35.706,67.3796,0.004385
35.737,67.3272,0.004395
35.769,67.2707,0.004395
35.799,67.2186,0.004395
35.830,67.1629,0.004395
35.861,67.1081,0.004395
35.893,67.0486,0.004395
35.923,66.9914,0.004404
35.954,66.9342,0.004404
35.985,66.8743,0.004404
36.016,66.8160,0.004404
36.047,66.7540,0.004404
36.079,66.6922,0.004404
36.110,66.6341,0.004404
36.141,66.5739,0.004404
36.172,66.5176,0.004404
36.203,66.4612,0.004272
36.234,66.4055,0.004272
36.265,66.3492,0.004272
36.297,66.2934,0.004272
36.327,66.2394,0.004272
36.359,66.1857,0.004272
36.390,66.1320,0.004272
36.422,66.0789,0.004272
36.453,66.0276,0.004103
36.484,65.9782,0.004103
36.515,65.9265,0.004103
36.547,65.8779,0.004103
36.578,65.8290,0.004103
36.609,65.7805,0.004103
36.641,65.7335,0.004103
36.671,65.6895,0.004103
36.702,65.6432,0.004122
36.733,65.6000,0.004122
36.765,65.5538,0.004122
36.795,65.5123,0.004122
36.826,65.4700,0.004122
36.857,65.4282,0.004122
36.887,65.3880,0.004122
36.919,65.3472,0.004122
36.950,65.3073,0.004122
36.982,65.2687,0.004103
37.013,65.2310,0.004103
37.046,65.1909,0.004103
37.075,65.1574,0.004103
37.108,65.1184,0.004103
37.136,65.0869,0.004103
37.167,65.0517,0.004103
37.198,65.0187,0.004103
37.230,64.9851,0.004094
37.262,64.9518,0.004094
37.293,64.9206,0.004094
37.324,64.8901,0.004094
37.355,64.8598,0.004094
37.385,64.8313,0.004094
37.417,64.8026,0.004094
37.448,64.7747,0.004131
37.479,64.7476,0.004131
37.511,64.7203,0.004131
37.542,64.6950,0.004131
37.572,64.6702,0.004131
37.604,64.6459,0.004131
37.635,64.6222,0.004131
37.666,64.6002,0.004131
37.697,64.5780,0.004169
37.728,64.5563,0.004169
37.760,64.5361,0.004169
37.790,64.5166,0.004169
37.821,64.4976,0.004169
37.852,64.4792,0.004169
37.884,64.4613,0.004169
37.915,64.4442,0.004169
37.946,64.4286,0.004169
37.978,64.4128,0.004159
38.008,64.3987,0.004159
38.039,64.3849,0.004159
38.071,64.3714,0.004159
38.105,64.3577,0.004159
38.133,64.3472,0.004159
38.165,64.3358,0.004159
38.198,64.3251,0.004131
38.228,64.3161,0.004131
38.258,64.3074,0.004131
38.288,64.2997,0.004131
38.319,64.2926,0.004131
38.350,64.2861,0.004131
38.381,64.2801,0.004131
38.412,64.2750,0.004131
38.442,64.2707,0.004122
38.473,64.2670,0.004122
38.506,64.2639,0.004122
38.536,64.2618,0.004122
38.567,64.2603,0.004122
38.597,64.2595,0.004122
38.628,64.2594,0.004122
38.658,64.2594,0.004122
38.689,64.2594,0.004094
38.721,64.2594,0.004094
38.752,64.2594,0.004094
38.783,64.2596,0.004094
38.814,64.2606,0.004094
38.845,64.2625,0.004094
38.877,64.2649,0.004094
38.910,64.2683,0.004094
38.939,64.2720,0.004122
38.970,64.2768,0.004122
39.000,64.2820,0.004122
39.031,64.2882,0.004122
39.062,64.2949,0.004122
39.094,64.3028,0.004122
39.125,64.3109,0.004122
39.157,64.3203,0.004122
39.187,64.3298,0.004112
39.220,64.3408,0.004112
39.249,64.3518,0.004112
39.280,64.3635,0.004112
39.311,64.3757,0.004112
39.345,64.3905,0.004112
39.374,64.4039,0.004112
39.405,64.4189,0.004112
39.438,64.4359,0.004056
39.467,64.4506,0.004056
39.498,64.4683,0.004056
39.530,64.4857,0.004056
39.560,64.5041,0.004056
39.591,64.5232,0.004056
39.622,64.5430,0.004056
39.653,64.5639,0.004056
39.684,64.5855,0.004112
39.716,64.6083,0.004112
39.747,64.6310,0.004112
39.777,64.6542,0.004112
39.808,64.6783,0.004112
39.839,64.7032,0.004112
39.869,64.7286,0.004112
39.901,64.7555,0.004112
39.931,64.7824,0.004112
39.963,64.8106,0.004159
39.993,64.8385,0.004159
40.024,64.8677,0.004159
40.055,64.8984,0.004159
40.085,64.9280,0.004159
40.117,64.9600,0.004159
40.148,64.9931,0.004159
40.179,65.0260,0.004159
40.209,65.0577,0.004131
40.240,65.0931,0.004131
40.270,65.1269,0.004131
40.301,65.1634,0.004131
40.333,65.2004,0.004131
40.363,65.2368,0.004131
40.394,65.2753,0.004131
40.425,65.3135,0.004131
40.456,65.3539,0.004122
40.488,65.3946,0.004122
40.519,65.4350,0.004122
40.550,65.4764,0.004122
40.580,65.5186,0.004122
40.611,65.5629,0.004122
40.643,65.6063,0.004122
40.674,65.6527,0.004122
40.706,65.6973,0.004150
40.737,65.7436,0.004150
40.767,65.7891,0.004150
40.797,65.8364,0.004150
40.829,65.8850,0.004150
40.860,65.9345,0.004150
40.891,65.9851,0.004150
40.922,66.0357,0.004150
40.954,66.0877,0.004159
40.985,66.1391,0.004159
41.015,66.1906,0.004159
41.046,66.2450,0.004159
41.078,66.2997,0.004159
41.109,66.3549,0.004159
41.140,66.4106,0.004159
41.171,66.4671,0.004159
41.202,66.5242,0.004159
41.233,66.5826,0.004103
41.264,66.6406,0.004103
41.295,66.6997,0.004103
41.326,66.7597,0.004103
41.357,66.8195,0.004103
41.388,66.8788,0.004103
41.419,66.9368,0.004103
41.450,66.9945,0.004094
41.481,67.0509,0.004094
41.511,67.1067,0.004094
41.542,67.1615,0.004094
41.572,67.2161,0.004094
41.604,67.2714,0.004094
41.636,67.3251,0.004094
41.667,67.3788,0.004094
41.698,67.4299,0.004235
41.730,67.4836,0.004235
41.759,67.5321,0.004235
41.790,67.5807,0.004235
41.821,67.6305,0.004235
41.852,67.6791,0.004235
41.882,67.7255,0.004235
41.915,67.7741,0.004235
41.945,67.8196,0.004329
41.976,67.8646,0.004329
42.007,67.9089,0.004329
42.037,67.9514,0.004329
42.068,67.9939,0.004329
42.098,68.0353,0.004329
42.129,68.0776,0.004329
42.160,68.1195,0.004329
42.191,68.1597,0.004413
42.229,68.2074,0.004413
42.270,68.2579,0.004413
42.300,68.2946,0.004413
42.330,68.3317,0.004413
42.361,68.3673,0.004413
42.392,68.4036,0.004413
42.423,68.4379,0.004413
42.454,68.4719,0.004470
42.484,68.5052,0.004470
42.516,68.5385,0.004470
42.547,68.5701,0.004470
42.578,68.6010,0.004470
42.608,68.6311,0.004470
42.640,68.6626,0.004470
42.672,68.6920,0.004404
42.703,68.7209,0.004404
42.734,68.7476,0.004404
42.765,68.7750,0.004404
42.795,68.8004,0.004404
42.827,68.8268,0.004404
42.857,68.8507,0.004404
42.889,68.8754,0.004404
42.918,68.8974,0.004404
42.949,68.9206,0.004404
42.981,68.9421,0.004348
43.012,68.9637,0.004348
43.043,68.9839,0.004348
43.075,69.0045,0.004348
43.106,69.0228,0.004348
43.138,69.0420,0.004348
43.168,69.0587,0.004348
43.200,69.0767,0.004348
43.229,69.0910,0.004329
43.266,69.1096,0.004329
43.292,69.1212,0.004329
43.323,69.1351,0.004329
43.356,69.1491,0.004329
43.386,69.1607,0.004329
43.416,69.1725,0.004329
43.448,69.1831,0.004329
43.479,69.1937,0.004376
43.510,69.2031,0.004376
43.542,69.2120,0.004376
43.573,69.2197,0.004376
43.604,69.2272,0.004376
43.635,69.2336,0.004376
43.666,69.2394,0.004376
43.697,69.2444,0.004423
43.729,69.2489,0.004423
43.761,69.2525,0.004423
43.793,69.2554,0.004423
43.824,69.2574,0.004423
43.856,69.2588,0.004423
43.887,69.2594,0.004423
43.918,69.2594,0.004423
43.949,69.2594,0.004423
43.979,69.2594,0.004413
44.011,69.2594,0.004413
44.041,69.2594,0.004413
44.072,69.2594,0.004413
44.104,69.2594,0.004413
44.139,69.2594,0.004413
44.167,69.2594,0.004413
44.198,69.2594,0.004413
44.228,69.2594,0.004310
44.265,69.2594,0.004310
44.290,69.2594,0.004310
44.322,69.2594,0.004310
44.353,69.2594,0.004310
44.383,69.2594,0.004310
44.414,69.2594,0.004310
44.445,69.2594,0.004310
44.476,69.2594,0.004310
44.506,69.2594,0.004244
44.537,69.2594,0.004244
44.568,69.2594,0.004244
44.599,69.2594,0.004244
44.630,69.2594,0.004244
44.662,69.2594,0.004244
44.697,69.2594,0.004244
44.724,69.2594,0.004244
44.755,69.2594,0.004263
44.786,69.2594,0.004263
44.820,69.2594,0.004263
44.847,69.2594,0.004263
44.878,69.2594,0.004263
44.909,69.2594,0.004263
44.940,69.2594,0.004263
44.970,69.2594,0.004225
45.001,69.2594,0.004225
45.032,69.2594,0.004225
45.063,69.2594,0.004225
45.095,69.2594,0.004225
45.125,69.2594,0.004225
45.157,69.2594,0.004225
45.188,69.2594,0.004225
45.219,69.2594,0.004253
45.250,69.2594,0.004253
45.280,69.2594,0.004253
45.313,69.2594,0.004253
45.343,69.2594,0.004253
45.374,69.2594,0.004253
45.406,69.2594,0.004253
45.437,69.2594,0.004253
45.468,69.2594,0.004272
45.500,69.2594,0.004272
45.530,69.2594,0.004272
45.562,69.2594,0.004272
45.593,69.2594,0.004272
45.624,69.2594,0.004272
45.654,69.2594,0.004272
45.685,69.2594,0.004272
45.716,69.2594,0.004244
45.747,69.2594,0.004244
45.777,69.2594,0.004244
45.808,69.2594,0.004244
45.839,69.2594,0.004244
45.870,69.2594,0.004244
45.901,69.2594,0.004244
45.932,69.2594,0.004244
45.964,69.2594,0.004263
45.994,69.2594,0.004263
46.026,69.2594,0.004263
46.057,69.2594,0.004263
46.088,69.2594,0.004263
46.120,69.2594,0.004263
46.149,69.2594,0.004263
46.179,69.2594,0.004263
46.209,69.2594,0.004263
46.241,69.2594,0.004263
46.272,69.2594,0.004263
46.303,69.2594,0.004263
46.333,69.2594,0.004263
46.364,69.2594,0.004263
46.395,69.2594,0.004263
46.427,69.2594,0.004263
46.465,69.2594,0.004225
46.505,69.2594,0.004225
46.536,69.2594,0.004225
46.567,69.2594,0.004225
46.606,69.2594,0.004225
46.646,69.2594,0.004225
46.676,69.2594,0.004225
46.707,69.2594,0.004206
46.737,69.2594,0.004206
46.769,69.2594,0.004206
46.799,69.2594,0.004206
46.829,69.2594,0.004206
46.860,69.2594,0.004206
46.892,69.2594,0.004206
46.923,69.2594,0.004206
46.955,69.2594,0.004225
46.985,69.2594,0.004225
47.017,69.2594,0.004225
47.048,69.2594,0.004225
47.079,69.2594,0.004225
47.109,69.2594,0.004225
47.140,69.2594,0.004225
47.171,69.2594,0.004225
47.202,69.2594,0.004225
47.233,69.2594,0.004197
47.264,69.2594,0.004197
47.296,69.2594,0.004197
47.327,69.2594,0.004197
47.358,69.2594,0.004197
47.389,69.2594,0.004197
47.420,69.2594,0.004197
47.451,69.2594,0.004197
47.482,69.2594,0.004197
47.512,69.2594,0.004197
47.544,69.2594,0.004197
47.574,69.2594,0.004197
47.605,69.2594,0.004197
47.635,69.2594,0.004197
47.666,69.2594,0.004197
47.697,69.2594,0.004263
47.728,69.2594,0.004263
47.759,69.2594,0.004263
47.789,69.2594,0.004263
47.822,69.2594,0.004263
47.851,69.2594,0.004263
47.882,69.2594,0.004263
47.914,69.2594,0.004263
47.945,69.2594,0.004263
47.978,69.2594,0.004272
48.007,69.2594,0.004272
48.038,69.2594,0.004272
48.068,69.2594,0.004272
48.098,69.2594,0.004272
48.129,69.2594,0.004272
48.162,69.2594,0.004272
48.191,69.2594,0.004216
48.222,69.2594,0.004216
48.253,69.2588,0.004216
48.284,69.2574,0.004216
48.315,69.2552,0.004216
48.346,69.2525,0.004216
48.377,69.2490,0.004216
48.409,69.2445,0.004216
48.441,69.2393,0.004282
48.471,69.2337,0.004282
48.501,69.2274,0.004282
48.532,69.2202,0.004282
48.564,69.2120,0.004282
48.594,69.2037,0.004282
48.625,69.1943,0.004282
48.657,69.1840,0.004282
48.688,69.1732,0.004357
48.719,69.1614,0.004357
48.749,69.1495,0.004357
48.780,69.1361,0.004357
48.811,69.1227,0.004357
48.842,69.1081,0.004357
48.873,69.0927,0.004357
48.907,69.0755,0.004357
48.935,69.0606,0.004357
48.967,69.0429,0.004357
48.997,69.0251,0.004357
49.030,69.0040,0.004357
49.059,68.9870,0.004357
49.090,68.9667,0.004357
49.121,68.9455,0.004357
49.159,68.9186,0.004357
49.198,68.8903,0.004385
49.230,68.8660,0.004385
49.261,68.8421,0.004385
49.292,68.8168,0.004385
49.323,68.7915,0.004385
49.354,68.7647,0.004385
49.385,68.7374,0.004385
49.417,68.7076,0.004385
49.446,68.6815,0.004404
49.480,68.6496,0.004404
49.510,68.6192,0.004404
49.540,68.5892,0.004404
49.572,68.5574,0.004404
49.602,68.5269,0.004404
49.632,68.4942,0.004404
49.663,68.4604,0.004404
49.695,68.4252,0.004442
49.726,68.3899,0.004442
49.757,68.3544,0.004442
49.790,68.3151,0.004442
49.820,68.2796,0.004442
49.852,68.2388,0.004442
49.882,68.2016,0.004442
49.914,68.1599,0.004442
49.943,68.1228,0.004442
49.976,68.0794,0.004413
50.006,68.0398,0.004413
50.041,67.9916,0.004413
50.068,67.9537,0.004413
50.099,67.9092,0.004413
50.130,67.8645,0.004413
50.161,67.8187,0.004413
50.193,67.7715,0.004366
50.227,67.7203,0.004366
50.255,67.6771,0.004366
50.286,67.6299,0.004366
50.317,67.5806,0.004366
50.347,67.5309,0.004366
50.378,67.4810,0.004366
50.408,67.4303,0.004366
50.439,67.3797,0.004366
50.470,67.3270,0.004366
50.502,67.2724,0.004366
50.532,67.2191,0.004366
50.564,67.1620,0.004366
50.595,67.1056,0.004366
50.626,67.0513,0.004366
50.657,66.9939,0.004366
50.688,66.9358,0.004366
50.719,66.8780,0.004366
50.750,66.8175,0.004366
50.782,66.7555,0.004366
50.812,66.6972,0.004366
50.844,66.6346,0.004366
50.874,66.5785,0.004366
50.905,66.5207,0.004366
50.936,66.4628,0.004366
50.967,66.4067,0.004272
50.998,66.3488,0.004272
51.030,66.2938,0.004272
51.060,66.2394,0.004272
51.090,66.1865,0.004272
51.121,66.1339,0.004272
51.154,66.0788,0.004272
51.185,66.0278,0.004094
51.215,65.9756,0.004094
51.246,65.9268,0.004094
51.277,65.8773,0.004094
51.309,65.8279,0.004094
51.338,65.7813,0.004094
51.369,65.7344,0.004094
51.399,65.6884,0.004094
51.431,65.6425,0.004094
51.462,65.5971,0.004084
51.492,65.5526,0.004084
51.523,65.5081,0.004084
51.554,65.4665,0.004084
51.584,65.4246,0.004084
51.615,65.3832,0.004084
51.647,65.3410,0.004084
51.678,65.3011,0.004084
51.708,65.2630,0.004103
51.739,65.2232,0.004103
51.770,65.1855,0.004103
51.801,65.1479,0.004103
51.832,65.1109,0.004103
51.864,65.0755,0.004103
51.894,65.0402,0.004103
51.925,65.0069,0.004103
51.956,64.9722,0.004112
51.987,64.9398,0.004112
52.018,64.9074,0.004112
52.050,64.8753,0.004112
52.080,64.8454,0.004112
52.110,64.8168,0.004112
52.141,64.7866,0.004112
52.173,64.7575,0.004112
52.204,64.7297,0.004112
52.236,64.7013,0.004112
52.266,64.6761,0.004112
52.296,64.6507,0.004112
52.327,64.6261,0.004112
52.359,64.6011,0.004112
52.389,64.5781,0.004112
52.420,64.5554,0.004112
52.450,64.5340,0.004112
52.481,64.5127,0.004084
52.512,64.4924,0.004084
52.542,64.4728,0.004084
52.573,64.4532,0.004084
52.604,64.4349,0.004084
52.635,64.4172,0.004084
52.667,64.3995,0.004084
52.699,64.3828,0.004056
52.728,64.3683,0.004056
52.758,64.3540,0.004056
52.790,64.3394,0.004056
52.821,64.3260,0.004056
52.852,64.3132,0.004056
52.883,64.3012,0.004056
52.914,64.2900,0.004056
52.944,64.2799,0.004056
52.975,64.2699,0.004065
53.007,64.2608,0.004065
53.039,64.2523,0.004065
53.071,64.2446,0.004065
53.102,64.2378,0.004065
53.132,64.2319,0.004065
53.163,64.2265,0.004065
53.194,64.2217,0.004065
53.226,64.2180,0.004075
53.256,64.2147,0.004075
53.287,64.2123,0.004075
53.318,64.2107,0.004075
53.349,64.2095,0.004075
53.380,64.2093,0.004075
53.410,64.2093,0.004075
53.441,64.2093,0.004056
53.472,64.2093,0.004056
53.502,64.2093,0.004056
53.533,64.2093,0.004056
53.563,64.2093,0.004056
53.595,64.2098,0.004056
53.625,64.2109,0.004056
53.657,64.2129,0.004056
53.688,64.2154,0.004150
53.718,64.2188,0.004150
53.749,64.2227,0.004150
53.780,64.2276,0.004150
53.811,64.2330,0.004150
53.842,64.2394,0.004150
53.873,64.2462,0.004150
53.905,64.2542,0.004150
53.936,64.2625,0.004150
53.966,64.2715,0.004150
53.997,64.2816,0.004150
54.034,64.2941,0.004150
54.075,64.3095,0.004150
54.105,64.3219,0.004150
54.136,64.3347,0.004150
54.167,64.3484,0.004150
54.197,64.3630,0.004103
54.229,64.3787,0.004103
54.261,64.3947,0.004103
54.291,64.4111,0.004103
54.325,64.4304,0.004103
54.353,64.4472,0.004103
54.384,64.4666,0.004103
54.416,64.4860,0.004103
54.447,64.5072,0.004141
54.479,64.5283,0.004141
54.509,64.5502,0.004141
54.541,64.5732,0.004141
54.571,64.5964,0.004141
54.601,64.6193,0.004141
54.633,64.6449,0.004141
54.663,64.6689,0.004141
54.693,64.6947,0.004094
54.724,64.7220,0.004094
54.755,64.7492,0.004094
54.788,64.7789,0.004094
54.817,64.8068,0.004094
54.849,64.8373,0.004094
54.879,64.8676,0.004094
54.910,64.8991,0.004094
54.940,64.9300,0.004084
54.972,64.9634,0.004084
55.003,64.9970,0.004084
55.035,65.0318,0.004084
55.068,65.0693,0.004084
55.097,65.1025,0.004084
55.127,65.1387,0.004084
55.159,65.1763,0.004084
55.192,65.2175,0.004141
55.221,65.2529,0.004141
55.252,65.2925,0.004141
55.284,65.3337,0.004141
55.318,65.3785,0.004141
55.346,65.4168,0.004141
55.377,65.4571,0.004141
55.407,65.4995,0.004141
55.438,65.5442,0.004150
55.469,65.5884,0.004150
55.500,65.6335,0.004150
55.531,65.6795,0.004150
55.562,65.7255,0.004150
55.593,65.7727,0.004150
55.624,65.8201,0.004150
55.656,65.8713,0.004150
55.689,65.9250,0.004094
55.717,65.9694,0.004094
55.749,66.0218,0.004094
55.778,66.0710,0.004094
55.811,66.1264,0.004094
55.841,66.1795,0.004094
55.872,66.2316,0.004094
55.903,66.2877,0.004094
55.935,66.3427,0.004094
55.966,66.4004,0.004084
55.997,66.4581,0.004084
56.029,66.5159,0.004084
56.061,66.5764,0.004084
56.091,66.6336,0.004084
56.123,66.6965,0.004084
56.155,66.7565,0.004084
56.186,66.8169,0.004084
56.217,66.8754,0.004084
56.248,66.9336,0.004122
56.278,66.9873,0.004122
56.309,67.0461,0.004122
56.341,67.1015,0.004122
56.372,67.1576,0.004122
56.401,67.2095,0.004122
56.433,67.2623,0.004122
56.463,67.3150,0.004244
56.495,67.3687,0.004244
56.525,67.4181,0.004244
56.556,67.4674,0.004244
56.587,67.5189,0.004244
56.617,67.5664,0.004244
56.650,67.6172,0.004244
56.680,67.6642,0.004244
56.711,67.7125,0.004244
56.742,67.7574,0.004348
56.774,67.8050,0.004348
56.805,67.8493,0.004348
56.836,67.8942,0.004348
56.867,67.9369,0.004348
56.899,67.9811,0.004348
56.927,68.0187,0.004348
56.960,68.0625,0.004357
56.990,68.1029,0.004357
57.021,68.1418,0.004357
57.052,68.1809,0.004357
57.083,68.2200,0.004357
57.115,68.2579,0.004357
57.146,68.2951,0.004357
57.177,68.3310,0.004366
57.208,68.3666,0.004366
57.239,68.4004,0.004366
57.270,68.4356,0.004366
57.302,68.4690,0.004366
57.334,68.5022,0.004366
57.364,68.5329,0.004366
57.396,68.5655,0.004366
57.426,68.5946,0.004366
57.457,68.6246,0.004301
57.488,68.6527,0.004301
57.520,68.6819,0.004301
57.551,68.7089,0.004301
57.581,68.7352,0.004301
57.612,68.7606,0.004301
57.642,68.7853,0.004301
57.674,68.8104,0.004301
57.705,68.8342,0.004282
57.737,68.8579,0.004282
57.768,68.8805,0.004282
57.799,68.9015,0.004282
57.829,68.9221,0.004282
57.859,68.9414,0.004282
57.890,68.9610,0.004282
57.922,68.9796,0.004282
57.952,68.9975,0.004282
57.984,69.0148,0.004329
58.017,69.0323,0.004329
58.046,69.0472,0.004329
58.078,69.0625,0.004329
58.109,69.0773,0.004329
58.142,69.0913,0.004329
58.172,69.1035,0.004329
58.203,69.1157,0.004395
58.233,69.1266,0.004395
58.264,69.1372,0.004395
58.295,69.1470,0.004395
58.326,69.1561,0.004395
58.356,69.1645,0.004395
58.387,69.1721,0.004395
58.418,69.1792,0.004395
58.449,69.1854,0.004357
58.480,69.1909,0.004357
58.511,69.1958,0.004357
58.543,69.1999,0.004357
58.574,69.2032,0.004357
58.606,69.2059,0.004357
58.636,69.2077,0.004357
58.668,69.2089,0.004357
58.698,69.2093,0.004301
58.729,69.2093,0.004301
58.760,69.2093,0.004301
58.791,69.2093,0.004301
58.822,69.2093,0.004301
58.853,69.2093,0.004301
58.885,69.2093,0.004301
58.916,69.2093,0.004301
58.948,69.2093,0.004291
58.977,69.2093,0.004291
59.009,69.2093,0.004291
59.041,69.2093,0.004291
59.071,69.2093,0.004291
59.103,69.2093,0.004291
59.134,69.2093,0.004291
59.164,69.2093,0.004291
59.195,69.2093,0.004291
59.227,69.2093,0.004272
59.258,69.2093,0.004272
59.289,69.2093,0.004272
59.321,69.2093,0.004272
59.351,69.2093,0.004272
59.382,69.2093,0.004272
59.414,69.2093,0.004272
59.444,69.2093,0.004272
59.476,69.2093,0.004282
59.507,69.2093,0.004282
59.538,69.2093,0.004282
59.569,69.2093,0.004282
59.600,69.2093,0.004282
59.630,69.2093,0.004282
59.660,69.2093,0.004282
59.692,69.2093,0.004282
59.722,69.2093,0.004272
59.753,69.2093,0.004272
59.784,69.2093,0.004272
59.814,69.2093,0.004272
59.845,69.2093,0.004272
59.877,69.2093,0.004272
59.908,69.2093,0.004272
59.940,69.2093,0.004272
59.971,69.2093,0.004235
60.003,69.2093,0.004235
60.034,69.2093,0.004235
60.065,69.2093,0.004235
60.096,69.2093,0.004235
60.127,69.2093,0.004235
60.158,69.2093,0.004235
60.189,69.2093,0.004235
60.220,69.2093,0.004216
60.251,69.2093,0.004216
60.282,69.2093,0.004216
60.315,69.2093,0.004216
60.343,69.2093,0.004216
60.375,69.2093,0.004216
60.406,69.2093,0.004216
60.437,69.2093,0.004216
60.468,69.2093,0.004225
60.499,69.2093,0.004225
60.530,69.2093,0.004225
60.561,69.2093,0.004225
60.592,69.2093,0.004225
60.623,69.2093,0.004225
60.654,69.2093,0.004225
60.686,69.2093,0.004225
60.716,69.2093,0.004225
60.746,69.2093,0.004197
60.777,69.2093,0.004197
60.810,69.2093,0.004197
60.840,69.2093,0.004197
60.871,69.2093,0.004197
60.901,69.2093,0.004197
60.934,69.2093,0.004197
60.962,69.2093,0.004216
60.993,69.2093,0.004216
61.024,69.2093,0.004216
61.055,69.2093,0.004216
61.087,69.2093,0.004216
61.118,69.2093,0.004216
61.149,69.2093,0.004216
61.180,69.2093,0.004216
61.211,69.2093,0.004235
61.243,69.2093,0.004235
61.273,69.2093,0.004235
61.304,69.2093,0.004235
61.337,69.2093,0.004235
61.366,69.2093,0.004235
61.396,69.2093,0.004235
61.427,69.2093,0.004235
61.458,69.2093,0.004216
61.489,69.2093,0.004216
61.520,69.2093,0.004216
61.550,69.2093,0.004216
61.581,69.2093,0.004216
61.612,69.2093,0.004216
61.643,69.2093,0.004216
61.678,69.2093,0.004216
61.705,69.2093,0.004216
61.736,69.2093,0.004225
61.767,69.2093,0.004225
61.798,69.2093,0.004225
61.829,69.2093,0.004225
61.861,69.2093,0.004225
61.893,69.2093,0.004225
61.923,69.2093,0.004272
61.955,69.2093,0.004272
61.985,69.2093,0.004272
62.016,69.2093,0.004272
62.048,69.2093,0.004272
62.078,69.2093,0.004272
62.110,69.2093,0.004272
62.142,69.2093,0.004272
62.172,69.2093,0.004272
62.204,69.2093,0.004282
62.235,69.2093,0.004282
62.265,69.2093,0.004282
62.296,69.2093,0.004282
62.327,69.2093,0.004282
62.358,69.2093,0.004282
62.389,69.2093,0.004282
62.420,69.2093,0.004282
62.451,69.2093,0.004282
62.482,69.2093,0.004244
62.513,69.2093,0.004244
62.544,69.2093,0.004244
62.574,69.2093,0.004244
62.606,69.2093,0.004244
62.637,69.2093,0.004244
62.667,69.2093,0.004244
62.698,69.2093,0.004244
62.730,69.2093,0.004272
62.764,69.2093,0.004272
62.792,69.2093,0.004272
62.823,69.2093,0.004272
62.855,69.2093,0.004272
62.885,69.2093,0.004272
62.916,69.2093,0.004272
62.948,69.2093,0.004253
62.979,69.2093,0.004253
63.008,69.2090,0.004253
63.039,69.2081,0.004253
63.072,69.2063,0.004253
63.102,69.2040,0.004253
63.133,69.2007,0.004253
63.164,69.1970,0.004253
63.193,69.1924,0.004253
63.225,69.1872,0.004263
63.255,69.1813,0.004263
63.286,69.1743,0.004263
63.318,69.1669,0.004263
63.348,69.1588,0.004263
63.379,69.1500,0.004263
63.410,69.1405,0.004263
63.442,69.1297,0.004263
63.473,69.1185,0.004263
63.504,69.1065,0.004376
63.535,69.0942,0.004376
63.567,69.0801,0.004376
63.597,69.0667,0.004376
63.629,69.0513,0.004376
63.659,69.0362,0.004376
63.690,69.0200,0.004376
63.721,69.0035,0.004413
63.752,68.9856,0.004413
63.784,68.9670,0.004413
63.815,68.9476,0.004413
63.846,68.9278,0.004413
63.876,68.9073,0.004413
63.908,68.8860,0.004413
63.938,68.8644,0.004413
63.969,68.8414,0.004395
64.000,68.8178,0.004395
64.031,68.7938,0.004395
64.062,68.7689,0.004395
64.093,68.7435,0.004395
64.124,68.7163,0.004395
64.155,68.6896,0.004395
64.186,68.6619,0.004395
64.218,68.6328,0.004348
64.249,68.6029,0.004348
64.279,68.5737,0.004348
64.310,68.5420,0.004348
64.341,68.5118,0.004348
64.373,68.4778,0.004348
64.403,68.4456,0.004348
64.434,68.4127,0.004348
64.464,68.3793,0.004319
64.496,68.3432,0.004319
64.527,68.3073,0.004319
64.559,68.2691,0.004319
64.590,68.2322,0.004319
64.621,68.1938,0.004319
64.652,68.1548,0.004319
64.683,68.1154,0.004319
64.714,68.0751,0.004376
64.745,68.0343,0.004376
64.775,67.9940,0.004376
64.807,67.9501,0.004376
64.837,67.9077,0.004376
64.869,67.8638,0.004376
64.899,67.8206,0.004376
64.931,67.7736,0.004432
64.961,67.7281,0.004432
64.992,67.6817,0.004432
65.024,67.6333,0.004432
65.055,67.5841,0.004432
65.087,67.5346,0.004432
65.118,67.4846,0.004432
65.149,67.4335,0.004432
65.180,67.3814,0.004404
65.213,67.3261,0.004404
65.243,67.2764,0.004404
65.273,67.2245,0.004404
65.304,67.1700,0.004404
65.335,67.1162,0.004404
65.366,67.0601,0.004404
65.399,66.9999,0.004404
65.429,66.9444,0.004413
65.460,66.8866,0.004413
65.492,66.8280,0.004413
65.523,66.7678,0.004413
65.553,66.7101,0.004413
65.583,66.6497,0.004413
65.613,66.5933,0.004413
65.646,66.5300,0.004413
65.675,66.4767,0.004413
65.706,66.4179,0.004329
65.736,66.3623,0.004329
65.766,66.3075,0.004329
65.796,66.2546,0.004329
65.828,66.1983,0.004329
65.859,66.1428,0.004329
65.890,66.0907,0.004329
65.922,66.0367,0.004159
65.953,65.9834,0.004159
65.985,65.9326,0.004159
66.015,65.8825,0.004159
66.046,65.8333,0.004159
66.076,65.7854,0.004159
66.107,65.7375,0.004159
66.140,65.6879,0.004159
66.170,65.6418,0.004159
66.201,65.5959,0.004159
66.232,65.5510,0.004084
66.263,65.5062,0.004084
66.294,65.4623,0.004084
66.324,65.4191,0.004084
66.356,65.3768,0.004084
66.388,65.3328,0.004084
66.418,65.2940,0.004084
66.449,65.2532,0.004084
66.480,65.2126,0.004065
66.516,65.1677,0.004065
66.557,65.1184,0.004065
66.589,65.0799,0.004065
66.619,65.0451,0.004065
66.650,65.0095,0.004065
66.683,64.9718,0.004065
66.712,64.9407,0.004065
66.745,64.9043,0.004065
66.773,64.8755,0.004065
66.804,64.8439,0.004065
66.836,64.8123,0.004065
66.866,64.7822,0.004065
66.898,64.7518,0.004065
66.929,64.7227,0.004065
66.960,64.6943,0.004056
66.990,64.6676,0.004056
67.021,64.6404,0.004056
67.053,64.6141,0.004056
67.085,64.5877,0.004056
67.115,64.5635,0.004056
67.146,64.5403,0.004056
67.177,64.5164,0.004056
67.208,64.4948,0.004056
67.239,64.4725,0.004122
67.270,64.4518,0.004122
67.301,64.4313,0.004122
67.331,64.4126,0.004122
67.363,64.3933,0.004122
67.394,64.3749,0.004122
67.424,64.3581,0.004122
67.456,64.3414,0.004112
67.487,64.3253,0.004112
67.517,64.3101,0.004112
67.548,64.2961,0.004112
67.579,64.2822,0.004112
67.610,64.2692,0.004112
67.641,64.2570,0.004112
67.672,64.2455,0.004112
67.703,64.2347,0.004112
67.733,64.2245,0.004122
67.765,64.2154,0.004122
67.796,64.2066,0.004122
67.827,64.1985,0.004122
67.859,64.1912,0.004122
67.889,64.1850,0.004122
67.920,64.1790,0.004122
67.951,64.1742,0.004122
67.982,64.1699,0.004150
68.013,64.1663,0.004150
68.044,64.1635,0.004150
68.075,64.1614,0.004150
68.105,64.1601,0.004150
68.137,64.1593,0.004150
68.169,64.1593,0.004150
68.199,64.1593,0.004103
68.233,64.1593,0.004103
68.262,64.1593,0.004103
68.292,64.1593,0.004103
68.322,64.1598,0.004103
68.353,64.1610,0.004103
68.384,64.1630,0.004103
68.415,64.1659,0.004103
68.446,64.1694,0.004169
68.477,64.1733,0.004169
68.508,64.1783,0.004169
68.539,64.1839,0.004169
68.570,64.1903,0.004169
68.603,64.1978,0.004169
68.632,64.2049,0.004169
68.662,64.2134,0.004169
68.693,64.2223,0.004131
68.727,64.2337,0.004131
68.754,64.2429,0.004131
68.788,64.2553,0.004131
68.816,64.2663,0.004131
68.848,64.2799,0.004131
68.877,64.2928,0.004131
68.910,64.3076,0.004131
68.940,64.3220,0.004131
68.965,64.3347,0.004075
69.001,64.3539,0.004075
69.033,64.3714,0.004075
69.064,64.3892,0.004075
69.095,64.4082,0.004075
69.126,64.4277,0.004075
69.157,64.4474,0.004075
69.188,64.4687,0.004159
69.220,64.4907,0.004159
69.250,64.5127,0.004159
69.282,64.5360,0.004159
69.313,64.5598,0.004159
69.344,64.5847,0.004159
69.375,64.6098,0.004159
69.407,64.6368,0.004159
69.438,64.6631,0.004159
69.469,64.6909,0.004159
69.500,64.7184,0.004159
69.530,64.7476,0.004159
69.562,64.7769,0.004159
69.593,64.8080,0.004159
69.625,64.8396,0.004159
69.656,64.8719,0.004159
69.687,64.9039,0.004159
69.719,64.9395,0.004141
69.749,64.9717,0.004141
69.780,65.0063,0.004141
69.812,65.0420,0.004141
69.842,65.0770,0.004141
69.873,65.1144,0.004141
69.902,65.1503,0.004141
69.936,65.1922,0.004141
69.963,65.2263,0.004150
69.994,65.2649,0.004150
70.025,65.3064,0.004150
70.056,65.3471,0.004150
70.087,65.3902,0.004150
70.119,65.4334,0.004150
70.150,65.4769,0.004150
70.182,65.5226,0.004141
70.212,65.5675,0.004141
70.243,65.6113,0.004141
70.274,65.6579,0.004141
70.306,65.7055,0.004141
70.337,65.7538,0.004141
70.368,65.8027,0.004141
70.399,65.8516,0.004141
70.430,65.9016,0.004141
70.460,65.9506,0.004141
70.491,66.0028,0.004141
70.522,66.0546,0.004141
70.554,66.1093,0.004141
70.584,66.1617,0.004141
70.615,66.2165,0.004141
70.646,66.2717,0.004141
70.677,66.3270,0.004141
70.708,66.3837,0.004112
70.740,66.4426,0.004112
70.770,66.4988,0.004112
70.803,66.5614,0.004112
70.833,66.6167,0.004112
70.863,66.6771,0.004112
70.895,66.7371,0.004112
70.926,66.7963,0.004131
70.957,66.8564,0.004131
70.987,66.9104,0.004131
71.018,66.9687,0.004131
71.049,67.0245,0.004131
71.080,67.0799,0.004131
71.112,67.1350,0.004131
71.142,67.1878,0.004131
71.173,67.2401,0.004131
71.203,67.2930,0.004329
71.234,67.3431,0.004329
71.265,67.3946,0.004329
71.297,67.4451,0.004329
71.329,67.4970,0.004329
71.359,67.5456,0.004329
71.391,67.5941,0.004329
71.422,67.6413,0.004413
71.453,67.6880,0.004413
71.483,67.7321,0.004413
71.514,67.7786,0.004413
71.545,67.8221,0.004413
71.577,67.8681,0.004413
71.607,67.9085,0.004413
71.638,67.9521,0.004413
71.669,67.9924,0.004413
71.701,68.0347,0.004413
71.732,68.0749,0.004395
71.766,68.1201,0.004395
71.793,68.1525,0.004395
71.825,68.1912,0.004395
71.855,68.2279,0.004395
71.886,68.2644,0.004395
71.917,68.2997,0.004395
71.952,68.3394,0.004395
71.994,68.3845,0.004357
72.025,68.4181,0.004357
72.056,68.4504,0.004357
72.087,68.4820,0.004357
72.121,68.5163,0.004357
72.149,68.5437,0.004357
72.184,68.5774,0.004357
72.211,68.6022,0.004357
72.243,68.6313,0.004329
72.273,68.6575,0.004329
72.306,68.6857,0.004329
72.336,68.7107,0.004329
72.368,68.7366,0.004329
72.399,68.7617,0.004329
72.431,68.7854,0.004329
72.462,68.8087,0.004366
72.492,68.8303,0.004366
72.523,68.8517,0.004366
72.554,68.8728,0.004366
72.586,68.8932,0.004366
72.616,68.9123,0.004366
72.647,68.9302,0.004366
72.678,68.9486,0.004366
72.709,68.9655,0.004423
72.739,68.9820,0.004423
72.771,68.9976,0.004423
72.802,69.0126,0.004423
72.833,69.0271,0.004423
72.864,69.0403,0.004423
72.895,69.0534,0.004423
72.926,69.0653,0.004423
72.958,69.0768,0.004432
72.989,69.0875,0.004432
73.020,69.0973,0.004432
73.050,69.1066,0.004432
73.081,69.1147,0.004432
73.112,69.1226,0.004432
73.144,69.1295,0.004432
73.175,69.1357,0.004432
73.206,69.1413,0.004432
73.238,69.1463,0.004385
73.269,69.1503,0.004385
73.301,69.1535,0.004385
73.331,69.1560,0.004385
73.366,69.1581,0.004385
73.392,69.1589,0.004385
73.423,69.1593,0.004385
73.455,69.1593,0.004357
73.486,69.1593,0.004357
73.516,69.1593,0.004357
73.546,69.1593,0.004357
73.577,69.1593,0.004357
73.608,69.1593,0.004357
73.639,69.1593,0.004357
73.670,69.1593,0.004357
73.701,69.1593,0.004263
73.731,69.1593,0.004263
73.762,69.1593,0.004263
73.793,69.1593,0.004263
73.826,69.1593,0.004263
73.856,69.1593,0.004263
73.888,69.1593,0.004263
73.918,69.1593,0.004263
73.949,69.1593,0.004216
73.979,69.1593,0.004216
74.011,69.1593,0.004216
74.041,69.1593,0.004216
74.072,69.1593,0.004216
74.102,69.1593,0.004216
74.133,69.1593,0.004216
74.163,69.1593,0.004216
74.194,69.1593,0.004272
74.225,69.1593,0.004272
74.256,69.1593,0.004272
74.287,69.1593,0.004272
74.317,69.1593,0.004272
74.349,69.1593,0.004272
74.380,69.1593,0.004272
74.412,69.1593,0.004272
74.443,69.1593,0.004253
74.475,69.1593,0.004253
74.507,69.1593,0.004253
74.537,69.1593,0.004253
74.573,69.1593,0.004253
74.599,69.1593,0.004253
74.630,69.1593,0.004253
74.661,69.1593,0.004253
74.691,69.1593,0.004253
74.723,69.1593,0.004216
74.754,69.1593,0.004216
74.784,69.1593,0.004216
74.816,69.1593,0.004216
74.847,69.1593,0.004216
74.879,69.1593,0.004216
74.911,69.1593,0.004216
74.940,69.1593,0.004216
74.972,69.1593,0.004244
75.003,69.1593,0.004244
75.033,69.1593,0.004244
75.064,69.1593,0.004244
75.095,69.1593,0.004244
75.126,69.1593,0.004244
75.157,69.1593,0.004244
75.188,69.1593,0.004244
75.217,69.1593,0.004310
75.249,69.1593,0.004310
75.280,69.1593,0.004310
75.310,69.1593,0.004310
75.342,69.1593,0.004310
75.373,69.1593,0.004310
75.404,69.1593,0.004310
75.435,69.1593,0.004310
75.466,69.1593,0.004329
75.498,69.1593,0.004329
75.529,69.1593,0.004329
75.560,69.1593,0.004329
75.591,69.1593,0.004329
75.622,69.1593,0.004329
75.653,69.1593,0.004329
75.685,69.1593,0.004329
75.715,69.1593,0.004263
75.748,69.1593,0.004263
75.777,69.1593,0.004263
75.808,69.1593,0.004263
75.839,69.1593,0.004263
75.869,69.1593,0.004263
75.899,69.1593,0.004263
75.931,69.1593,0.004263
75.961,69.1593,0.004235
75.992,69.1593,0.004235
76.022,69.1593,0.004235
76.054,69.1593,0.004235
76.085,69.1593,0.004235
76.117,69.1593,0.004235
76.148,69.1593,0.004235
76.180,69.1593,0.004253
76.211,69.1593,0.004253
76.242,69.1593,0.004253
76.273,69.1593,0.004253
76.307,69.1593,0.004253
76.335,69.1593,0.004253
76.366,69.1593,0.004253
76.398,69.1593,0.004253
76.429,69.1593,0.004253
76.460,69.1593,0.004253
76.491,69.1593,0.004244
76.522,69.1593,0.004244
76.555,69.1593,0.004244
76.587,69.1593,0.004244
76.616,69.1593,0.004244
76.647,69.1593,0.004244
76.677,69.1593,0.004244
76.708,69.1593,0.004244
76.740,69.1593,0.004272
76.770,69.1593,0.004272
76.801,69.1593,0.004272
76.837,69.1593,0.004272
76.863,69.1593,0.004272
76.895,69.1593,0.004272
76.925,69.1593,0.004272
76.957,69.1593,0.004235
76.989,69.1593,0.004235
77.019,69.1593,0.004235
77.050,69.1593,0.004235
77.080,69.1593,0.004235
77.112,69.1593,0.004235
77.142,69.1593,0.004235
77.173,69.1593,0.004235
77.204,69.1593,0.004188
77.235,69.1593,0.004188
77.266,69.1593,0.004188
77.298,69.1593,0.004188
77.330,69.1593,0.004188
77.358,69.1593,0.004188
77.390,69.1593,0.004188
77.422,69.1593,0.004188
77.451,69.1593,0.004188
77.482,69.1593,0.004188
77.517,69.1593,0.004188
77.544,69.1593,0.004188
77.575,69.1593,0.004188
77.606,69.1593,0.004188
77.637,69.1593,0.004188
77.668,69.1593,0.004244
77.698,69.1593,0.004244
77.729,69.1593,0.004244
77.760,69.1592,0.004244
77.791,69.1583,0.004244
77.822,69.1567,0.004244
77.853,69.1545,0.004244
77.884,69.1514,0.004244
77.915,69.1477,0.004244
77.950,69.1424,0.004244
77.977,69.1379,0.004282
78.008,69.1320,0.004282
78.038,69.1253,0.004282
78.069,69.1181,0.004282
78.100,69.1100,0.004282
78.131,69.1010,0.004282
78.164,69.0909,0.004282
78.192,69.0816,0.004282
78.224,69.0703,0.004376
78.254,69.0590,0.004376
78.285,69.0461,0.004376
78.316,69.0334,0.004376
78.347,69.0192,0.004376
78.378,69.0044,0.004376
78.409,68.9889,0.004376
78.440,68.9729,0.004423
78.472,68.9559,0.004423
78.505,68.9374,0.004423
78.535,68.9193,0.004423
78.566,68.9006,0.004423
78.597,68.8808,0.004423
78.629,68.8595,0.004423
78.657,68.8406,0.004423
78.691,68.8161,0.004376
78.723,68.7931,0.004376
78.754,68.7696,0.004376
78.784,68.7453,0.004376
78.815,68.7211,0.004376
78.846,68.6958,0.004376
78.877,68.6689,0.004376
78.908,68.6423,0.004376
78.939,68.6141,0.004329
78.969,68.5864,0.004329
79.000,68.5569,0.004329
79.031,68.5279,0.004329
79.063,68.4960,0.004329
79.093,68.4657,0.004329
79.124,68.4327,0.004329
79.156,68.3997,0.004329
79.188,68.3652,0.004329
79.219,68.3311,0.004338
79.250,68.2944,0.004338
79.281,68.2596,0.004338
79.312,68.2223,0.004338
79.343,68.1859,0.004338
79.375,68.1457,0.004338
79.406,68.1081,0.004338
79.436,68.0699,0.004338
79.470,68.0251,0.004385
79.498,67.9887,0.004385
79.529,67.9459,0.004385
79.560,67.9037,0.004385
79.592,67.8598,0.004385
79.623,67.8156,0.004385
79.654,67.7716,0.004385
79.684,67.7262,0.004385
79.716,67.6797,0.004329
79.746,67.6335,0.004329
79.778,67.5851,0.004329
79.809,67.5377,0.004329
79.842,67.4838,0.004329
79.871,67.4390,0.004329
79.902,67.3884,0.004329
79.933,67.3382,0.004310
79.965,67.2833,0.004310
79.996,67.2298,0.004310
80.027,67.1789,0.004310
80.058,67.1235,0.004310
80.090,67.0669,0.004310
80.121,67.0126,0.004310
80.151,66.9562,0.004310
80.183,66.8996,0.004357
80.214,66.8403,0.004357
80.244,66.7840,0.004357
80.275,66.7235,0.004357
80.306,66.6652,0.004357
80.337,66.6042,0.004357
80.368,66.5456,0.004357
80.399,66.4849,0.004357
80.430,66.4287,0.004310
80.460,66.3706,0.004310
80.492,66.3133,0.004310
80.523,66.2552,0.004310
80.553,66.2035,0.004310
80.585,66.1472,0.004310
80.615,66.0938,0.004310
80.647,66.0394,0.004310
80.678,65.9854,0.004310
80.709,65.9332,0.004150
80.740,65.8826,0.004150
80.771,65.8335,0.004150
80.802,65.7839,0.004150
80.833,65.7339,0.004150
80.865,65.6836,0.004150
80.895,65.6393,0.004150
80.926,65.5920,0.004150
80.957,65.5448,0.004094
80.989,65.4979,0.004094
81.019,65.4550,0.004094
81.051,65.4105,0.004094
81.082,65.3654,0.004094
81.114,65.3220,0.004094
81.145,65.2820,0.004094
81.176,65.2413,0.004094
81.205,65.2030,0.004159
81.237,65.1609,0.004159
81.267,65.1247,0.004159
81.299,65.0853,0.004159
81.329,65.0492,0.004159
81.360,65.0121,0.004159
81.391,64.9765,0.004159
81.425,64.9383,0.004159
81.454,64.9062,0.004159
81.485,64.8719,0.004159
81.515,64.8406,0.004159
81.551,64.8029,0.004159
81.578,64.7757,0.004159
81.611,64.7432,0.004159
81.639,64.7153,0.004159
81.670,64.6868,0.004159
81.701,64.6583,0.004178
81.731,64.6305,0.004178
81.763,64.6022,0.004178
81.794,64.5762,0.004178
81.826,64.5501,0.004178
81.856,64.5259,0.004178
81.887,64.5016,0.004178
81.918,64.4780,0.004178
81.948,64.4552,0.004122
81.979,64.4335,0.004122
82.010,64.4124,0.004122
82.042,64.3911,0.004122
82.073,64.3711,0.004122
82.104,64.3519,0.004122
82.135,64.3336,0.004122
82.167,64.3150,0.004122
82.198,64.2985,0.004056
82.237,64.2776,0.004056
82.276,64.2591,0.004056
82.306,64.2448,0.004056
82.339,64.2301,0.004056
82.368,64.2183,0.004056
82.399,64.2062,0.004056
82.430,64.1944,0.004056
82.462,64.1837,0.004094
82.493,64.1736,0.004094
82.523,64.1645,0.004094
82.554,64.1560,0.004094
82.586,64.1479,0.004094
82.614,64.1413,0.004094
82.647,64.1345,0.004094
82.676,64.1292,0.004122
82.707,64.1241,0.004122
82.738,64.1199,0.004122
82.770,64.1161,0.004122
82.801,64.1134,0.004122
82.832,64.1113,0.004122
82.863,64.1099,0.004122
82.894,64.1093,0.004122
82.929,64.1093,0.004122
82.955,64.1093,0.004122
82.986,64.1093,0.004084
83.020,64.1093,0.004084
83.050,64.1093,0.004084
83.081,64.1093,0.004084
83.113,64.1098,0.004084
83.143,64.1111,0.004084
83.175,64.1130,0.004084
83.207,64.1158,0.004094
83.238,64.1192,0.004094
83.270,64.1235,0.004094
83.299,64.1283,0.004094
83.330,64.1339,0.004094
83.363,64.1407,0.004094
83.394,64.1475,0.004094
83.424,64.1551,0.004094
83.455,64.1638,0.004065
83.485,64.1726,0.004065
83.515,64.1821,0.004065
83.546,64.1929,0.004065
83.578,64.2045,0.004065
83.609,64.2169,0.004065
83.640,64.2299,0.004065
83.671,64.2438,0.004065
83.702,64.2577,0.004037
83.733,64.2727,0.004037
83.764,64.2885,0.004037
83.795,64.3053,0.004037
83.826,64.3220,0.004037
83.859,64.3413,0.004037
83.889,64.3594,0.004037
83.921,64.3801,0.004037
83.952,64.3998,0.004046
83.983,64.4210,0.004046
84.014,64.4423,0.004046
84.046,64.4656,0.004046
84.078,64.4891,0.004046
84.109,64.5135,0.004046
84.140,64.5380,0.004046
84.169,64.5618,0.004046
84.200,64.5877,0.004084
84.231,64.6137,0.004084
84.262,64.6416,0.004084
84.293,64.6695,0.004084
84.324,64.6986,0.004084
84.356,64.7294,0.004084
84.386,64.7582,0.004084
84.417,64.7908,0.004084
84.447,64.8208,0.004178
84.478,64.8537,0.004178
84.508,64.8860,0.004178
84.539,64.9193,0.004178
84.570,64.9537,0.004178
84.600,64.9887,0.004178
84.631,65.0257,0.004178
84.662,65.0620,0.004178
84.693,65.0997,0.004159
84.724,65.1376,0.004159
84.756,65.1782,0.004159
84.788,65.2192,0.004159
84.819,65.2599,0.004159
84.850,65.3012,0.004159
84.882,65.3444,0.004159
84.913,65.3870,0.004159
84.944,65.4305,0.004159
84.975,65.4741,0.004103
85.006,65.5190,0.004103
85.038,65.5665,0.004103
85.069,65.6124,0.004103
85.100,65.6601,0.004103
85.130,65.7065,0.004103
85.162,65.7565,0.004103
85.193,65.8055,0.004084
85.224,65.8555,0.004084
85.255,65.9066,0.004084
85.286,65.9590,0.004084
85.317,66.0094,0.004084
85.351,66.0682,0.004084
85.378,66.1153,0.004084
85.409,66.1697,0.004084
85.439,66.2229,0.004075
85.470,66.2799,0.004075
85.501,66.3363,0.004075
85.532,66.3933,0.004075
85.563,66.4493,0.004075
85.595,66.5107,0.004075
85.625,66.5690,0.004075
85.656,66.6307,0.004075
85.692,66.6993,0.004075
85.718,66.7478,0.004075
85.749,66.8053,0.004103
85.780,66.8629,0.004103
85.812,66.9217,0.004103
85.842,66.9761,0.004103
85.873,67.0322,0.004103
85.905,67.0881,0.004103
85.936,67.1413,0.004103
85.967,67.1942,0.004216
85.998,67.2487,0.004216
86.029,67.2992,0.004216
86.060,67.3503,0.004216
86.092,67.4013,0.004216
86.122,67.4511,0.004216
86.153,67.4998,0.004216
86.185,67.5474,0.004216
86.215,67.5941,0.004310
86.246,67.6399,0.004310
86.278,67.6880,0.004310
86.309,67.7335,0.004310
86.340,67.7776,0.004310
86.371,67.8217,0.004310
86.403,67.8653,0.004310
86.434,67.9075,0.004329
86.465,67.9492,0.004329
86.496,67.9893,0.004329
86.527,68.0287,0.004329
86.558,68.0691,0.004329
86.589,68.1078,0.004329
86.620,68.1458,0.004329
86.652,68.1831,0.004329
86.683,68.2201,0.004338
86.714,68.2557,0.004338
86.745,68.2897,0.004338
86.776,68.3241,0.004338
86.806,68.3566,0.004338
86.837,68.3900,0.004338
86.869,68.4224,0.004338
86.899,68.4529,0.004338
86.930,68.4833,0.004348
86.961,68.5132,0.004348
86.993,68.5429,0.004348
87.024,68.5722,0.004348
87.055,68.5987,0.004348
87.088,68.6277,0.004348
87.117,68.6524,0.004348
87.148,68.6774,0.004348
87.182,68.7058,0.004348
87.211,68.7271,0.004348
87.243,68.7515,0.004413
87.274,68.7732,0.004413
87.299,68.7910,0.004413
87.336,68.8168,0.004413
87.367,68.8364,0.004413
87.397,68.8552,0.004413
87.428,68.8743,0.004413
87.459,68.8923,0.004432
87.489,68.9098,0.004432
87.521,68.9264,0.004432
87.551,68.9420,0.004432
87.582,68.9569,0.004432
87.613,68.9714,0.004432
87.644,68.9854,0.004432
87.675,68.9985,0.004432
87.706,69.0106,0.004385
87.736,69.0223,0.004385
87.767,69.0327,0.004385
87.799,69.0434,0.004385
87.830,69.0528,0.004385
87.862,69.0621,0.004385
87.893,69.0698,0.004385
87.924,69.0771,0.004385
87.954,69.0834,0.004366
87.985,69.0892,0.004366
88.016,69.0942,0.004366
88.048,69.0985,0.004366
88.078,69.1021,0.004366
88.108,69.1050,0.004366
88.139,69.1071,0.004366
88.171,69.1086,0.004366
88.201,69.1092,0.004357
88.232,69.1093,0.004357
88.263,69.1093,0.004357
88.294,69.1093,0.004357
88.326,69.1093,0.004357
88.358,69.1093,0.004357
88.389,69.1093,0.004357
88.419,69.1093,0.004357
