Elapsed Time (s),Position (mm),Force (N)
-0.007,75.4094,0.004602
0.028,75.4094,0.004602
0.055,75.4094,0.004602
0.085,75.4094,0.004602
0.116,75.4094,0.004536
0.147,75.4094,0.004536
0.179,75.4094,0.004536
0.210,75.4094,0.004536
0.241,75.4094,0.004536
0.271,75.4094,0.004536
0.301,75.4094,0.004536
0.334,75.4094,0.004536
0.363,75.4094,0.004536
0.395,75.4094,0.004432
0.425,75.4094,0.004432
0.456,75.4094,0.004432
0.487,75.4094,0.004432
0.518,75.4094,0.004432
0.548,75.4094,0.004432
0.580,75.4094,0.004432
0.611,75.4094,0.004451
0.642,75.4094,0.004451
0.674,75.4094,0.004451
0.704,75.4094,0.004451
0.735,75.4094,0.004451
0.766,75.4094,0.004451
0.797,75.4094,0.004451
0.828,75.4094,0.004451
0.859,75.4094,0.004461
0.890,75.4094,0.004461
0.921,75.4094,0.004461
0.952,75.4094,0.004461
0.983,75.4094,0.004461
1.013,75.4094,0.004461
1.045,75.4094,0.004461
1.074,75.4094,0.004461
1.105,75.4094,0.004461
1.137,75.4094,0.004461
1.167,75.4094,0.004461
1.198,75.4094,0.004461
1.229,75.4094,0.004461
1.260,75.4094,0.004461
1.292,75.4094,0.004461
1.322,75.4094,0.004461
1.354,75.4094,0.004470
1.385,75.4094,0.004470
1.417,75.4094,0.004470
1.447,75.4094,0.004470
1.478,75.4094,0.004470
1.511,75.4094,0.004470
1.540,75.4094,0.004470
1.571,75.4094,0.004470
1.602,75.4094,0.004470
1.633,75.4094,0.004470
1.665,75.4094,0.004470
1.697,75.4094,0.004470
1.728,75.4094,0.004470
1.761,75.4094,0.004470
1.790,75.4094,0.004470
1.821,75.4094,0.004470
1.852,75.4094,0.004423
1.883,75.4094,0.004423
1.914,75.4094,0.004423
1.945,75.4094,0.004423
1.976,75.4094,0.004423
2.007,75.4094,0.004423
2.038,75.4094,0.004423
2.069,75.4094,0.004423
2.099,75.4094,0.004423
2.129,75.4094,0.004423
2.160,75.4094,0.004423
2.192,75.4094,0.004423
2.223,75.4094,0.004423
2.254,75.4094,0.004423
2.286,75.4094,0.004423
2.317,75.4094,0.004423
2.349,75.4094,0.004451
2.379,75.4094,0.004451
2.412,75.4094,0.004451
2.441,75.4094,0.004451
2.474,75.4094,0.004451
2.503,75.4094,0.004451
2.528,75.4094,0.004451
2.565,75.4094,0.004451
2.597,75.4094,0.004451
2.628,75.4094,0.004395
2.659,75.4094,0.004395
2.690,75.4094,0.004395
2.725,75.4094,0.004395
2.753,75.4094,0.004395
2.786,75.4094,0.004395
2.814,75.4094,0.004395
2.846,75.4094,0.004395
2.876,75.4094,0.004432
2.905,75.4094,0.004432
2.935,75.4094,0.004432
2.966,75.4094,0.004432
2.997,75.4094,0.004432
3.029,75.4094,0.004432
3.059,75.4094,0.004432
3.092,75.4094,0.004432
3.122,75.4094,0.004432
3.153,75.4094,0.004461
3.184,75.4094,0.004461
3.216,75.4094,0.004461
3.246,75.4094,0.004461
3.279,75.4094,0.004461
3.309,75.4094,0.004461
3.341,75.4094,0.004461
3.371,75.4094,0.004470
3.401,75.4094,0.004470
3.433,75.4094,0.004470
3.464,75.4094,0.004470
3.495,75.4094,0.004470
3.526,75.4094,0.004470
3.556,75.4094,0.004470
3.588,75.4094,0.004470
3.619,75.4094,0.004470
3.648,75.4094,0.004470
3.683,75.4094,0.004470
3.710,75.4094,0.004470
3.741,75.4094,0.004470
3.772,75.4094,0.004470
3.803,75.4094,0.004470
3.834,75.4094,0.004470
3.865,75.4094,0.004470
3.895,75.4094,0.004470
3.927,75.4094,0.004470
3.958,75.4094,0.004470
3.990,75.4094,0.004470
4.021,75.4094,0.004470
4.052,75.4094,0.004470
4.082,75.4094,0.004470
4.113,75.4087,0.004470
4.144,75.4074,0.004470
4.175,75.4053,0.004470
4.207,75.4024,0.004470
4.237,75.3989,0.004470
4.267,75.3948,0.004470
4.298,75.3899,0.004470
4.329,75.3842,0.004470
4.359,75.3778,0.004545
4.390,75.3709,0.004545
4.421,75.3630,0.004545
4.452,75.3543,0.004545
4.483,75.3454,0.004545
4.515,75.3348,0.004545
4.544,75.3248,0.004545
4.574,75.3134,0.004545
4.605,75.3016,0.004639
4.636,75.2884,0.004639
4.667,75.2750,0.004639
4.699,75.2602,0.004639
4.729,75.2454,0.004639
4.761,75.2290,0.004639
4.793,75.2124,0.004639
4.823,75.1952,0.004639
4.854,75.1772,0.004592
4.886,75.1581,0.004592
4.916,75.1391,0.004592
4.947,75.1189,0.004592
4.978,75.0982,0.004592
5.009,75.0766,0.004592
5.039,75.0546,0.004592
5.070,75.0319,0.004592
5.100,75.0085,0.004583
5.131,74.9843,0.004583
5.162,74.9591,0.004583
5.193,74.9322,0.004583
5.224,74.9062,0.004583
5.255,74.8784,0.004583
5.286,74.8514,0.004583
5.318,74.8210,0.004583
5.348,74.7923,0.004602
5.380,74.7610,0.004602
5.411,74.7301,0.004602
5.442,74.6975,0.004602
5.473,74.6658,0.004602
5.504,74.6325,0.004602
5.534,74.5990,0.004602
5.565,74.5640,0.004602
5.596,74.5292,0.004583
5.629,74.4910,0.004583
5.659,74.4552,0.004583
5.689,74.4177,0.004583
5.722,74.3778,0.004583
5.752,74.3405,0.004583
5.782,74.3003,0.004583
5.813,74.2609,0.004583
5.844,74.2188,0.004536
5.874,74.1784,0.004536
5.906,74.1351,0.004536
5.937,74.0921,0.004536
5.969,74.0463,0.004536
6.000,74.0006,0.004536
6.031,73.9560,0.004536
6.061,73.9105,0.004536
6.092,73.8634,0.004536
6.124,73.8134,0.004536
6.156,73.7646,0.004536
6.187,73.7140,0.004536
6.218,73.6652,0.004536
6.249,73.6139,0.004536
6.279,73.5640,0.004536
6.311,73.5108,0.004536
6.341,73.4582,0.004583
6.373,73.4048,0.004583
6.404,73.3485,0.004583
6.434,73.2948,0.004583
6.466,73.2382,0.004583
6.496,73.1840,0.004583
6.527,73.1250,0.004583
6.559,73.0665,0.004583
6.589,73.0081,0.004611
6.622,72.9470,0.004611
6.652,72.8870,0.004611
6.683,72.8288,0.004611
6.713,72.7698,0.004611
6.744,72.7107,0.004611
6.776,72.6527,0.004611
6.806,72.5949,0.004611
6.836,72.5406,0.004451
6.867,72.4840,0.004451
6.898,72.4302,0.004451
6.929,72.3749,0.004451
6.959,72.3220,0.004451
6.991,72.2692,0.004451
7.021,72.2171,0.004451
7.053,72.1654,0.004451
7.086,72.1095,0.004451
7.115,72.0628,0.004451
7.147,72.0125,0.004301
7.178,71.9634,0.004301
7.209,71.9142,0.004301
7.242,71.8651,0.004301
7.273,71.8195,0.004301
7.302,71.7763,0.004301
7.334,71.7309,0.004301
7.364,71.6860,0.004319
7.395,71.6440,0.004319
7.426,71.6002,0.004319
7.457,71.5568,0.004319
7.488,71.5163,0.004319
7.518,71.4773,0.004319
7.550,71.4351,0.004319
7.583,71.3953,0.004319
7.612,71.3574,0.004310
7.643,71.3207,0.004310
7.674,71.2840,0.004310
7.706,71.2469,0.004310
7.736,71.2120,0.004310
7.769,71.1749,0.004310
7.799,71.1418,0.004310
7.830,71.1086,0.004310
7.861,71.0766,0.004376
7.892,71.0430,0.004376
7.923,71.0126,0.004376
7.954,70.9823,0.004376
7.985,70.9528,0.004376
8.017,70.9227,0.004376
8.048,70.8945,0.004376
8.079,70.8671,0.004376
8.109,70.8405,0.004395
8.140,70.8148,0.004395
8.171,70.7897,0.004395
8.203,70.7637,0.004395
8.232,70.7415,0.004395
8.264,70.7174,0.004395
8.295,70.6950,0.004395
8.327,70.6728,0.004395
8.356,70.6528,0.004338
8.388,70.6321,0.004338
8.419,70.6124,0.004338
8.450,70.5933,0.004338
8.481,70.5753,0.004338
8.514,70.5569,0.004338
8.545,70.5408,0.004338
8.575,70.5249,0.004338
8.606,70.5096,0.004319
8.637,70.4950,0.004319
8.669,70.4814,0.004319
8.700,70.4685,0.004319
8.730,70.4562,0.004319
8.765,70.4435,0.004319
8.793,70.4337,0.004319
8.825,70.4235,0.004319
8.856,70.4139,0.004338
8.886,70.4060,0.004338
8.922,70.3966,0.004338
8.963,70.3879,0.004338
8.994,70.3817,0.004338
9.024,70.3765,0.004338
9.055,70.3719,0.004338
9.086,70.3680,0.004338
9.118,70.3647,0.004357
9.147,70.3625,0.004357
9.178,70.3606,0.004357
9.209,70.3596,0.004357
9.243,70.3594,0.004357
9.271,70.3594,0.004357
9.303,70.3594,0.004357
9.334,70.3594,0.004385
9.364,70.3594,0.004385
9.395,70.3594,0.004385
9.426,70.3594,0.004385
9.457,70.3601,0.004385
9.488,70.3615,0.004385
9.520,70.3636,0.004385
9.551,70.3664,0.004385
9.583,70.3703,0.004432
9.619,70.3752,0.004432
9.646,70.3797,0.004432
9.677,70.3855,0.004432
9.707,70.3920,0.004432
9.740,70.3997,0.004432
9.769,70.4072,0.004432
9.802,70.4165,0.004432
9.832,70.4256,0.004432
9.863,70.4356,0.004385
9.893,70.4466,0.004385
9.928,70.4597,0.004385
9.955,70.4700,0.004385
9.986,70.4833,0.004385
10.017,70.4969,0.004385
10.054,70.5143,0.004385
10.095,70.5350,0.004385
10.125,70.5512,0.004319
10.158,70.5693,0.004319
10.187,70.5855,0.004319
10.218,70.6041,0.004319
10.250,70.6238,0.004319
10.280,70.6435,0.004319
10.312,70.6642,0.004319
10.341,70.6848,0.004310
10.372,70.7074,0.004310
10.403,70.7293,0.004310
10.434,70.7528,0.004310
10.465,70.7771,0.004310
10.496,70.8024,0.004310
10.527,70.8287,0.004310
10.558,70.8545,0.004310
10.589,70.8818,0.004310
10.621,70.9105,0.004310
10.650,70.9381,0.004310
10.682,70.9679,0.004310
10.711,70.9963,0.004310
10.742,71.0274,0.004310
10.773,71.0590,0.004310
10.805,71.0915,0.004310
10.836,71.1251,0.004310
10.867,71.1581,0.004282
10.898,71.1937,0.004282
10.930,71.2288,0.004282
10.961,71.2659,0.004282
10.992,71.3021,0.004282
11.024,71.3401,0.004282
11.055,71.3783,0.004282
11.086,71.4168,0.004282
11.117,71.4566,0.004291
11.148,71.4974,0.004291
11.180,71.5396,0.004291
11.208,71.5788,0.004291
11.240,71.6223,0.004291
11.271,71.6661,0.004291
11.302,71.7100,0.004291
11.334,71.7554,0.004291
11.366,71.8020,0.004291
11.397,71.8485,0.004366
11.428,71.8945,0.004366
11.462,71.9474,0.004366
11.490,71.9895,0.004366
11.521,72.0405,0.004366
11.553,72.0911,0.004366
11.585,72.1438,0.004366
11.614,72.1921,0.004366
11.645,72.2437,0.004366
11.676,72.2960,0.004366
11.708,72.3509,0.004366
11.739,72.4049,0.004366
11.772,72.4650,0.004366
11.799,72.5135,0.004366
11.830,72.5682,0.004366
11.861,72.6273,0.004366
11.893,72.6849,0.004329
11.924,72.7442,0.004329
11.955,72.8018,0.004329
11.986,72.8643,0.004329
12.015,72.9190,0.004329
12.046,72.9781,0.004329
12.078,73.0378,0.004329
12.110,73.0984,0.004376
12.141,73.1556,0.004376
12.172,73.2112,0.004376
12.203,73.2672,0.004376
12.234,73.3220,0.004376
12.265,73.3766,0.004376
12.296,73.4294,0.004376
12.328,73.4828,0.004376
12.358,73.5340,0.004376
12.389,73.5862,0.004545
12.421,73.6372,0.004545
12.452,73.6884,0.004545
12.483,73.7358,0.004545
12.517,73.7889,0.004545
12.546,73.8324,0.004545
12.578,73.8808,0.004545
12.609,73.9275,0.004639
12.639,73.9718,0.004639
12.670,74.0161,0.004639
12.701,74.0610,0.004639
12.732,74.1035,0.004639
12.764,74.1472,0.004639
12.796,74.1898,0.004639
12.826,74.2293,0.004573
12.858,74.2703,0.004573
12.889,74.3093,0.004573
12.920,74.3485,0.004573
12.951,74.3859,0.004573
12.982,74.4239,0.004573
13.012,74.4598,0.004573
13.044,74.4965,0.004573
13.075,74.5310,0.004573
13.109,74.5695,0.004573
13.137,74.5989,0.004573
13.167,74.6322,0.004573
13.199,74.6642,0.004573
13.233,74.6989,0.004573
13.262,74.7273,0.004573
13.293,74.7572,0.004573
13.325,74.7874,0.004573
13.355,74.8147,0.004602
13.386,74.8437,0.004602
13.417,74.8697,0.004602
13.447,74.8955,0.004602
13.479,74.9224,0.004602
13.510,74.9467,0.004602
13.541,74.9713,0.004602
13.573,74.9945,0.004602
13.604,75.0178,0.004602
13.635,75.0401,0.004545
13.666,75.0612,0.004545
13.697,75.0812,0.004545
13.728,75.1012,0.004545
13.759,75.1196,0.004545
13.789,75.1377,0.004545
13.821,75.1557,0.004545
13.852,75.1728,0.004545
13.883,75.1886,0.004526
13.915,75.2046,0.004526
13.946,75.2192,0.004526
13.976,75.2326,0.004526
14.007,75.2458,0.004526
14.038,75.2584,0.004526
14.068,75.2699,0.004526
14.099,75.2809,0.004526
14.131,75.2915,0.004573
14.162,75.3010,0.004573
14.193,75.3099,0.004573
14.225,75.3184,0.004573
14.255,75.3254,0.004573
14.286,75.3322,0.004573
14.318,75.3382,0.004573
14.347,75.3432,0.004573
14.378,75.3476,0.004573
14.409,75.3514,0.004573
14.439,75.3544,0.004573
14.475,75.3570,0.004573
14.502,75.3584,0.004573
14.533,75.3592,0.004573
14.563,75.3594,0.004573
14.594,75.3594,0.004573
14.626,75.3594,0.004545
14.656,75.3594,0.004545
14.688,75.3594,0.004545
14.718,75.3594,0.004545
14.749,75.3594,0.004545
14.781,75.3594,0.004545
14.813,75.3594,0.004545
14.841,75.3594,0.004545
14.872,75.3594,0.004498
14.904,75.3594,0.004498
14.935,75.3594,0.004498
14.966,75.3594,0.004498
15.001,75.3594,0.004498
15.028,75.3594,0.004498
15.059,75.3594,0.004498
15.089,75.3594,0.004498
15.120,75.3594,0.004442
15.151,75.3594,0.004442
15.183,75.3594,0.004442
15.214,75.3594,0.004442
15.245,75.3594,0.004442
15.276,75.3594,0.004442
15.307,75.3594,0.004442
15.339,75.3594,0.004432
15.369,75.3594,0.004432
15.401,75.3594,0.004432
15.437,75.3594,0.004432
15.463,75.3594,0.004432
15.494,75.3594,0.004432
15.526,75.3594,0.004432
15.556,75.3594,0.004432
15.587,75.3594,0.004470
15.618,75.3594,0.004470
15.649,75.3594,0.004470
15.681,75.3594,0.004470
15.715,75.3594,0.004470
15.743,75.3594,0.004470
15.774,75.3594,0.004470
15.805,75.3594,0.004470
15.839,75.3594,0.004470
15.866,75.3594,0.004470
15.900,75.3594,0.004470
15.927,75.3594,0.004470
15.961,75.3594,0.004470
15.989,75.3594,0.004470
16.021,75.3594,0.004470
16.053,75.3594,0.004470
16.084,75.3594,0.004470
16.115,75.3594,0.004432
16.146,75.3594,0.004432
16.178,75.3594,0.004432
16.208,75.3594,0.004432
16.239,75.3594,0.004432
16.269,75.3594,0.004432
16.300,75.3594,0.004432
16.334,75.3594,0.004432
16.363,75.3594,0.004432
16.393,75.3594,0.004442
16.425,75.3594,0.004442
16.457,75.3594,0.004442
16.486,75.3594,0.004442
16.520,75.3594,0.004442
16.548,75.3594,0.004442
16.579,75.3594,0.004442
16.610,75.3594,0.004442
16.641,75.3594,0.004432
16.672,75.3594,0.004432
16.703,75.3594,0.004432
16.735,75.3594,0.004432
16.765,75.3594,0.004432
16.795,75.3594,0.004432
16.827,75.3594,0.004432
16.857,75.3594,0.004451
16.888,75.3594,0.004451
16.921,75.3594,0.004451
16.950,75.3594,0.004451
16.982,75.3594,0.004451
17.013,75.3594,0.004451
17.045,75.3594,0.004451
17.076,75.3594,0.004451
17.107,75.3594,0.004451
17.138,75.3594,0.004451
17.168,75.3594,0.004451
17.199,75.3594,0.004451
17.230,75.3594,0.004451
17.260,75.3594,0.004451
17.291,75.3594,0.004451
17.322,75.3594,0.004451
17.355,75.3594,0.004451
17.385,75.3594,0.004451
17.416,75.3594,0.004451
17.448,75.3594,0.004451
17.478,75.3594,0.004451
17.508,75.3594,0.004451
17.540,75.3594,0.004451
17.570,75.3594,0.004451
17.602,75.3594,0.004451
17.633,75.3594,0.004479
17.664,75.3594,0.004479
17.694,75.3594,0.004479
17.725,75.3594,0.004479
17.756,75.3594,0.004479
17.787,75.3594,0.004479
17.818,75.3594,0.004479
17.849,75.3594,0.004479
17.879,75.3594,0.004461
17.910,75.3594,0.004461
17.942,75.3594,0.004461
17.972,75.3594,0.004461
18.003,75.3594,0.004461
18.034,75.3594,0.004461
18.064,75.3594,0.004461
18.095,75.3594,0.004461
18.126,75.3594,0.004413
18.157,75.3594,0.004413
18.189,75.3594,0.004413
18.219,75.3594,0.004413
18.251,75.3594,0.004413
18.284,75.3594,0.004413
18.312,75.3594,0.004413
18.344,75.3594,0.004413
18.374,75.3594,0.004470
18.404,75.3594,0.004470
18.435,75.3594,0.004470
18.466,75.3594,0.004470
18.499,75.3594,0.004470
18.529,75.3594,0.004470
18.563,75.3594,0.004470
18.592,75.3594,0.004470
18.623,75.3594,0.004489
18.653,75.3594,0.004489
18.684,75.3594,0.004489
18.715,75.3594,0.004489
18.745,75.3594,0.004489
18.777,75.3594,0.004489
18.806,75.3594,0.004489
18.837,75.3589,0.004489
18.869,75.3575,0.004489
18.900,75.3555,0.004432
18.930,75.3529,0.004432
18.961,75.3496,0.004432
18.992,75.3454,0.004432
19.023,75.3404,0.004432
19.054,75.3348,0.004432
19.085,75.3286,0.004432
19.115,75.3215,0.004526
19.148,75.3134,0.004526
19.178,75.3049,0.004526
19.209,75.2957,0.004526
19.240,75.2858,0.004526
19.271,75.2753,0.004526
19.302,75.2636,0.004526
19.333,75.2515,0.004526
19.363,75.2388,0.004583
19.394,75.2257,0.004583
19.426,75.2108,0.004583
19.456,75.1962,0.004583
19.487,75.1803,0.004583
19.518,75.1638,0.004583
19.549,75.1468,0.004583
19.581,75.1283,0.004583
19.611,75.1103,0.004620
19.641,75.0907,0.004620
19.672,75.0709,0.004620
19.708,75.0471,0.004620
19.735,75.0275,0.004620
19.766,75.0054,0.004620
19.798,74.9820,0.004620
19.828,74.9583,0.004620
19.862,74.9322,0.004602
19.890,74.9089,0.004602
19.923,74.8813,0.004602
19.951,74.8576,0.004602
19.982,74.8294,0.004602
20.013,74.8016,0.004602
20.044,74.7722,0.004602
20.075,74.7432,0.004602
20.107,74.7123,0.004583
20.137,74.6813,0.004583
20.168,74.6505,0.004583
20.199,74.6173,0.004583
20.229,74.5853,0.004583
20.261,74.5504,0.004583
20.292,74.5165,0.004583
20.323,74.4807,0.004583
20.354,74.4447,0.004602
20.386,74.4069,0.004602
20.417,74.3690,0.004602
20.449,74.3299,0.004602
20.476,74.2954,0.004602
20.512,74.2495,0.004602
20.542,74.2098,0.004602
20.572,74.1691,0.004602
20.603,74.1273,0.004639
20.634,74.0850,0.004639
20.665,74.0422,0.004639
20.696,73.9972,0.004639
20.727,73.9523,0.004639
20.759,73.9052,0.004639
20.790,73.8604,0.004639
20.821,73.8121,0.004639
20.852,73.7642,0.004564
20.882,73.7164,0.004564
20.914,73.6661,0.004564
20.944,73.6166,0.004564
20.976,73.5650,0.004564
21.008,73.5132,0.004564
21.038,73.4627,0.004564
21.070,73.4085,0.004564
21.100,73.3560,0.004564
21.130,73.3043,0.004517
21.162,73.2471,0.004517
21.192,73.1921,0.004517
21.223,73.1359,0.004517
21.254,73.0781,0.004517
21.290,73.0111,0.004517
21.316,72.9616,0.004517
21.348,72.9020,0.004517
21.379,72.8408,0.004639
21.410,72.7792,0.004639
21.444,72.7137,0.004639
21.471,72.6632,0.004639
21.505,72.5987,0.004639
21.533,72.5469,0.004639
21.564,72.4913,0.004639
21.595,72.4346,0.004498
21.626,72.3796,0.004498
21.656,72.3264,0.004498
21.686,72.2747,0.004498
21.717,72.2216,0.004498
21.749,72.1682,0.004498
21.780,72.1174,0.004498
21.811,72.0657,0.004498
21.842,72.0150,0.004348
21.872,71.9663,0.004348
21.905,71.9165,0.004348
21.934,71.8690,0.004348
21.965,71.8230,0.004348
21.997,71.7747,0.004348
22.027,71.7316,0.004348
22.058,71.6849,0.004348
22.089,71.6411,0.004348
22.120,71.5986,0.004357
22.151,71.5556,0.004357
22.181,71.5135,0.004357
22.213,71.4707,0.004357
22.245,71.4296,0.004357
22.275,71.3901,0.004357
22.305,71.3517,0.004357
22.336,71.3127,0.004348
22.369,71.2744,0.004348
22.400,71.2366,0.004348
22.431,71.2006,0.004348
22.463,71.1640,0.004348
22.494,71.1282,0.004348
22.525,71.0945,0.004348
22.556,71.0615,0.004348
22.587,71.0280,0.004348
22.618,70.9955,0.004329
22.649,70.9647,0.004329
22.682,70.9324,0.004329
22.712,70.9043,0.004329
22.743,70.8749,0.004329
22.774,70.8470,0.004329
22.806,70.8174,0.004329
22.836,70.7921,0.004319
22.867,70.7657,0.004319
22.898,70.7406,0.004319
22.929,70.7151,0.004319
22.960,70.6913,0.004319
22.991,70.6684,0.004319
23.024,70.6449,0.004319
23.052,70.6249,0.004319
23.084,70.6028,0.004319
23.113,70.5836,0.004319
23.149,70.5615,0.004348
23.176,70.5450,0.004348
23.208,70.5264,0.004348
23.238,70.5092,0.004348
23.269,70.4928,0.004348
23.299,70.4769,0.004348
23.331,70.4611,0.004348
23.362,70.4469,0.004376
23.392,70.4337,0.004376
23.424,70.4203,0.004376
23.456,70.4076,0.004376
23.487,70.3958,0.004376
23.518,70.3849,0.004376
23.550,70.3747,0.004376
23.580,70.3653,0.004376
23.607,70.3581,0.004376
23.642,70.3489,0.004357
23.673,70.3416,0.004357
23.704,70.3353,0.004357
23.734,70.3296,0.004357
23.765,70.3245,0.004357
23.796,70.3203,0.004357
23.827,70.3166,0.004357
23.858,70.3137,0.004329
23.889,70.3116,0.004329
23.920,70.3101,0.004329
23.951,70.3095,0.004329
23.983,70.3094,0.004329
24.013,70.3094,0.004329
24.043,70.3094,0.004329
24.075,70.3094,0.004329
24.106,70.3095,0.004329
24.137,70.3104,0.004395
24.169,70.3121,0.004395
24.199,70.3145,0.004395
24.231,70.3176,0.004395
24.262,70.3213,0.004395
24.291,70.3258,0.004395
24.322,70.3308,0.004395
24.353,70.3368,0.004357
24.384,70.3432,0.004357
24.415,70.3509,0.004357
24.446,70.3591,0.004357
24.478,70.3679,0.004357
24.509,70.3775,0.004357
24.539,70.3879,0.004357
24.571,70.3991,0.004357
24.601,70.4106,0.004291
24.631,70.4227,0.004291
24.661,70.4351,0.004291
24.692,70.4494,0.004291
24.723,70.4637,0.004291
24.753,70.4789,0.004291
24.784,70.4950,0.004291
24.817,70.5129,0.004291
24.846,70.5292,0.004338
24.876,70.5468,0.004338
24.907,70.5657,0.004338
24.940,70.5866,0.004338
24.968,70.6047,0.004338
24.999,70.6268,0.004338
25.029,70.6477,0.004338
25.062,70.6714,0.004338
25.090,70.6929,0.004376
25.120,70.7162,0.004376
25.151,70.7401,0.004376
25.182,70.7655,0.004376
25.213,70.7920,0.004376
25.246,70.8205,0.004376
25.276,70.8469,0.004376
25.308,70.8764,0.004376
25.339,70.9054,0.004376
25.370,70.9357,0.004376
25.401,70.9662,0.004376
25.433,70.9973,0.004376
25.463,71.0295,0.004376
25.494,71.0615,0.004376
25.525,71.0953,0.004376
25.556,71.1293,0.004376
25.587,71.1643,0.004348
25.618,71.2000,0.004348
25.650,71.2376,0.004348
25.681,71.2750,0.004348
25.714,71.3140,0.004348
25.744,71.3514,0.004348
25.775,71.3914,0.004348
25.805,71.4315,0.004348
25.836,71.4721,0.004348
25.868,71.5140,0.004348
25.899,71.5556,0.004348
25.930,71.5985,0.004348
25.961,71.6428,0.004348
25.992,71.6868,0.004348
26.023,71.7332,0.004348
26.054,71.7777,0.004348
26.085,71.8251,0.004357
26.116,71.8716,0.004357
26.147,71.9204,0.004357
26.179,71.9697,0.004357
26.210,72.0204,0.004357
26.241,72.0709,0.004357
26.272,72.1214,0.004357
26.303,72.1742,0.004357
26.334,72.2264,0.004357
26.366,72.2802,0.004338
26.396,72.3317,0.004338
26.427,72.3873,0.004338
26.457,72.4401,0.004338
26.489,72.4979,0.004338
26.519,72.5538,0.004338
26.550,72.6122,0.004338
26.582,72.6698,0.004338
26.612,72.7287,0.004338
26.643,72.7870,0.004338
26.674,72.8470,0.004338
26.705,72.9074,0.004338
26.735,72.9639,0.004338
26.766,73.0225,0.004338
26.797,73.0801,0.004338
26.828,73.1374,0.004338
26.861,73.1940,0.004338
26.891,73.2490,0.004508
26.922,73.3026,0.004508
26.953,73.3568,0.004508
26.983,73.4085,0.004508
27.015,73.4635,0.004508
27.045,73.5122,0.004508
27.077,73.5633,0.004508
27.107,73.6134,0.004677
27.138,73.6615,0.004677
27.169,73.7120,0.004677
27.200,73.7584,0.004677
27.231,73.8051,0.004677
27.262,73.8511,0.004677
27.292,73.8966,0.004677
27.325,73.9444,0.004677
27.355,73.9859,0.004639
27.386,74.0298,0.004639
27.417,74.0726,0.004639
27.449,74.1163,0.004639
27.479,74.1558,0.004639
27.510,74.1970,0.004639
27.541,74.2363,0.004639
27.572,74.2765,0.004639
27.603,74.3136,0.004583
27.633,74.3512,0.004583
27.664,74.3881,0.004583
27.695,74.4245,0.004583
27.726,74.4597,0.004583
27.757,74.4948,0.004583
27.788,74.5283,0.004583
27.820,74.5629,0.004583
27.850,74.5945,0.004620
27.881,74.6260,0.004620
27.912,74.6578,0.004620
27.943,74.6882,0.004620
27.974,74.7178,0.004620
28.005,74.7466,0.004620
28.036,74.7747,0.004620
28.067,74.8028,0.004620
28.098,74.8292,0.004630
28.129,74.8555,0.004630
28.160,74.8806,0.004630
28.191,74.9053,0.004630
28.223,74.9295,0.004630
28.254,74.9532,0.004630
28.285,74.9751,0.004630
28.317,74.9977,0.004630
28.347,75.0179,0.004583
28.378,75.0384,0.004583
28.408,75.0574,0.004583
28.439,75.0755,0.004583
28.469,75.0936,0.004583
28.500,75.1107,0.004583
28.530,75.1268,0.004583
28.562,75.1429,0.004583
28.593,75.1582,0.004592
28.624,75.1728,0.004592
28.654,75.1862,0.004592
28.686,75.1995,0.004592
28.716,75.2114,0.004592
28.747,75.2232,0.004592
28.778,75.2340,0.004592
28.809,75.2444,0.004592
28.841,75.2536,0.004611
28.871,75.2621,0.004611
28.901,75.2699,0.004611
28.932,75.2773,0.004611
28.964,75.2836,0.004611
28.995,75.2894,0.004611
29.026,75.2945,0.004611
29.057,75.2988,0.004611
29.088,75.3023,0.004611
29.120,75.3053,0.004592
29.151,75.3074,0.004592
29.184,75.3088,0.004592
29.213,75.3094,0.004592
29.244,75.3094,0.004592
29.275,75.3094,0.004592
29.305,75.3094,0.004592
29.336,75.3094,0.004592
29.367,75.3094,0.004583
29.397,75.3094,0.004583
29.430,75.3094,0.004583
29.459,75.3094,0.004583
29.491,75.3094,0.004583
29.522,75.3094,0.004583
29.552,75.3094,0.004583
29.584,75.3094,0.004583
29.616,75.3094,0.004583
29.646,75.3094,0.004545
29.677,75.3094,0.004545
29.708,75.3094,0.004545
29.739,75.3094,0.004545
29.771,75.3094,0.004545
29.803,75.3094,0.004545
29.832,75.3094,0.004545
29.863,75.3094,0.004545
29.894,75.3094,0.004526
29.926,75.3094,0.004526
29.957,75.3094,0.004526
29.988,75.3094,0.004526
30.019,75.3094,0.004526
30.049,75.3094,0.004526
30.081,75.3094,0.004526
30.112,75.3094,0.004498
30.144,75.3094,0.004498
30.174,75.3094,0.004498
30.205,75.3094,0.004498
30.236,75.3094,0.004498
30.267,75.3094,0.004498
30.299,75.3094,0.004498
30.329,75.3094,0.004498
30.361,75.3094,0.004479
30.392,75.3094,0.004479
30.423,75.3094,0.004479
30.453,75.3094,0.004479
30.487,75.3094,0.004479
30.515,75.3094,0.004479
30.547,75.3094,0.004479
30.578,75.3094,0.004479
30.608,75.3094,0.004479
30.639,75.3094,0.004489
30.671,75.3094,0.004489
30.702,75.3094,0.004489
30.734,75.3094,0.004489
30.764,75.3094,0.004489
30.795,75.3094,0.004489
30.826,75.3094,0.004489
30.857,75.3094,0.004479
30.888,75.3094,0.004479
30.920,75.3094,0.004479
30.950,75.3094,0.004479
30.982,75.3094,0.004479
31.015,75.3094,0.004479
31.044,75.3094,0.004479
31.075,75.3094,0.004479
31.105,75.3094,0.004479
31.137,75.3094,0.004479
31.169,75.3094,0.004479
31.200,75.3094,0.004479
31.229,75.3094,0.004479
31.260,75.3094,0.004479
31.291,75.3094,0.004479
31.323,75.3094,0.004479
31.355,75.3094,0.004479
31.389,75.3094,0.004479
31.417,75.3094,0.004479
31.449,75.3094,0.004479
31.479,75.3094,0.004479
31.513,75.3094,0.004479
31.542,75.3094,0.004479
31.572,75.3094,0.004479
31.603,75.3094,0.004479
31.633,75.3094,0.004470
31.665,75.3094,0.004470
31.696,75.3094,0.004470
31.727,75.3094,0.004470
31.758,75.3094,0.004470
31.789,75.3094,0.004470
31.819,75.3094,0.004470
31.851,75.3094,0.004498
31.882,75.3094,0.004498
31.913,75.3094,0.004498
31.944,75.3094,0.004498
31.975,75.3094,0.004498
32.006,75.3094,0.004498
32.037,75.3094,0.004498
32.068,75.3094,0.004498
32.099,75.3094,0.004498
32.131,75.3094,0.004526
32.162,75.3094,0.004526
32.194,75.3094,0.004526
32.224,75.3094,0.004526
32.255,75.3094,0.004526
32.287,75.3094,0.004526
32.318,75.3094,0.004526
32.350,75.3094,0.004526
32.381,75.3094,0.004479
32.411,75.3094,0.004479
32.442,75.3094,0.004479
32.473,75.3094,0.004479
32.504,75.3094,0.004479
32.536,75.3094,0.004479
32.567,75.3094,0.004479
32.598,75.3094,0.004479
32.629,75.3094,0.004442
32.660,75.3094,0.004442
32.691,75.3094,0.004442
32.722,75.3094,0.004442
32.752,75.3094,0.004442
32.783,75.3094,0.004442
32.814,75.3094,0.004442
32.845,75.3094,0.004442
32.878,75.3094,0.004404
32.909,75.3094,0.004404
32.939,75.3094,0.004404
32.970,75.3094,0.004404
33.003,75.3094,0.004404
33.031,75.3094,0.004404
33.063,75.3094,0.004404
33.093,75.3094,0.004451
33.126,75.3094,0.004451
33.156,75.3094,0.004451
33.187,75.3094,0.004451
33.218,75.3094,0.004451
33.248,75.3094,0.004451
33.278,75.3094,0.004451
33.309,75.3094,0.004451
33.341,75.3094,0.004498
33.372,75.3094,0.004498
33.403,75.3094,0.004498
33.434,75.3094,0.004498
33.465,75.3094,0.004498
33.495,75.3093,0.004498
33.526,75.3083,0.004498
33.558,75.3067,0.004498
33.588,75.3044,0.004498
33.619,75.3012,0.004498
33.650,75.2976,0.004498
33.681,75.2930,0.004498
33.712,75.2878,0.004498
33.743,75.2817,0.004498
33.774,75.2750,0.004498
33.807,75.2673,0.004498
33.837,75.2592,0.004536
33.868,75.2504,0.004536
33.899,75.2408,0.004536
33.930,75.2303,0.004536
33.961,75.2190,0.004536
33.992,75.2074,0.004536
34.027,75.1932,0.004536
34.055,75.1813,0.004536
34.086,75.1670,0.004536
34.117,75.1526,0.004573
34.148,75.1366,0.004573
34.178,75.1212,0.004573
34.210,75.1041,0.004573
34.240,75.0866,0.004573
34.271,75.0683,0.004573
34.302,75.0488,0.004573
34.338,75.0261,0.004573
34.364,75.0089,0.004583
34.395,74.9875,0.004583
34.426,74.9657,0.004583
34.457,74.9425,0.004583
34.488,74.9197,0.004583
34.519,74.8949,0.004583
34.550,74.8706,0.004583
34.580,74.8448,0.004583
34.611,74.8190,0.004564
34.647,74.7874,0.004564
34.674,74.7638,0.004564
34.705,74.7344,0.004564
34.737,74.7050,0.004564
34.769,74.6736,0.004564
34.799,74.6436,0.004564
34.830,74.6125,0.004564
34.860,74.5805,0.004602
34.891,74.5485,0.004602
34.921,74.5151,0.004602
34.953,74.4808,0.004602
34.984,74.4457,0.004602
35.014,74.4107,0.004602
35.045,74.3740,0.004602
35.076,74.3375,0.004602
35.109,74.2967,0.004602
35.138,74.2592,0.004630
35.170,74.2192,0.004630
35.201,74.1789,0.004630
35.233,74.1366,0.004630
35.263,74.0969,0.004630
35.296,74.0517,0.004630
35.326,74.0096,0.004630
35.357,73.9665,0.004630
35.388,73.9216,0.004620
35.420,73.8746,0.004620
35.450,73.8288,0.004620
35.481,73.7829,0.004620
35.513,73.7343,0.004620
35.544,73.6869,0.004620
35.574,73.6388,0.004620
35.606,73.5870,0.004555
35.637,73.5381,0.004555
35.668,73.4856,0.004555
35.698,73.4354,0.004555
35.731,73.3798,0.004555
35.760,73.3289,0.004555
35.792,73.2733,0.004555
35.824,73.2180,0.004555
35.855,73.1615,0.004526
35.886,73.1061,0.004526
35.917,73.0474,0.004526
35.949,72.9882,0.004526
35.981,72.9285,0.004526
36.012,72.8705,0.004526
36.043,72.8092,0.004526
36.074,72.7494,0.004526
36.106,72.6880,0.004526
36.136,72.6301,0.004611
36.166,72.5727,0.004611
36.197,72.5144,0.004611
36.228,72.4596,0.004611
36.259,72.4023,0.004611
36.290,72.3458,0.004611
36.321,72.2907,0.004611
36.352,72.2379,0.004611
36.382,72.1857,0.004461
36.413,72.1334,0.004461
36.444,72.0823,0.004461
36.475,72.0312,0.004461
36.505,71.9821,0.004461
36.536,71.9324,0.004461
36.566,71.8855,0.004461
36.597,71.8377,0.004461
36.628,71.7896,0.004319
36.659,71.7437,0.004319
36.691,71.6962,0.004319
36.721,71.6504,0.004319
36.752,71.6073,0.004319
36.783,71.5625,0.004319
36.814,71.5200,0.004319
36.845,71.4773,0.004319
36.876,71.4359,0.004413
36.908,71.3930,0.004413
36.939,71.3523,0.004413
36.969,71.3142,0.004413
37.001,71.2754,0.004413
37.031,71.2375,0.004413
37.062,71.2000,0.004413
37.093,71.1630,0.004413
37.124,71.1279,0.004348
37.155,71.0923,0.004348
37.186,71.0584,0.004348
37.217,71.0244,0.004348
37.247,70.9925,0.004348
37.279,70.9590,0.004348
37.310,70.9283,0.004348
37.341,70.8961,0.004348
37.372,70.8666,0.004291
37.404,70.8356,0.004291
37.435,70.8077,0.004291
37.468,70.7781,0.004291
37.499,70.7513,0.004291
37.529,70.7254,0.004291
37.561,70.6993,0.004291
37.593,70.6733,0.004291
37.624,70.6496,0.004357
37.655,70.6255,0.004357
37.686,70.6036,0.004357
37.716,70.5815,0.004357
37.746,70.5609,0.004357
37.778,70.5399,0.004357
37.809,70.5203,0.004357
37.839,70.5011,0.004357
37.871,70.4830,0.004338
37.901,70.4654,0.004338
37.933,70.4483,0.004338
37.963,70.4323,0.004338
37.994,70.4168,0.004338
38.025,70.4020,0.004338
38.056,70.3880,0.004338
38.086,70.3750,0.004338
38.118,70.3622,0.004319
38.148,70.3503,0.004319
38.179,70.3395,0.004319
38.209,70.3294,0.004319
38.241,70.3194,0.004319
38.272,70.3103,0.004319
38.303,70.3022,0.004319
38.334,70.2945,0.004319
38.364,70.2879,0.004338
38.395,70.2818,0.004338
38.426,70.2765,0.004338
38.458,70.2717,0.004338
38.488,70.2680,0.004338
38.519,70.2649,0.004338
38.550,70.2624,0.004338
38.584,70.2605,0.004338
38.613,70.2596,0.004319
38.644,70.2594,0.004319
38.675,70.2594,0.004319
38.706,70.2594,0.004319
38.736,70.2594,0.004319
38.767,70.2598,0.004319
38.798,70.2609,0.004319
38.829,70.2629,0.004319
38.859,70.2654,0.004319
38.890,70.2687,0.004404
38.923,70.2728,0.004404
38.954,70.2776,0.004404
38.984,70.2830,0.004404
39.014,70.2892,0.004404
39.045,70.2960,0.004404
39.077,70.3037,0.004404
39.107,70.3120,0.004385
39.138,70.3215,0.004385
39.168,70.3307,0.004385
39.200,70.3413,0.004385
39.231,70.3527,0.004385
39.267,70.3669,0.004385
39.293,70.3776,0.004385
39.324,70.3910,0.004385
39.355,70.4053,0.004301
39.383,70.4188,0.004301
39.416,70.4358,0.004301
39.447,70.4519,0.004301
39.477,70.4686,0.004301
39.509,70.4864,0.004301
39.540,70.5053,0.004301
39.571,70.5242,0.004301
39.602,70.5443,0.004366
39.633,70.5650,0.004366
39.663,70.5858,0.004366
39.693,70.6073,0.004366
39.724,70.6304,0.004366
39.755,70.6540,0.004366
39.786,70.6788,0.004366
39.818,70.7040,0.004366
39.849,70.7307,0.004357
39.882,70.7576,0.004357
39.912,70.7849,0.004357
39.943,70.8129,0.004357
39.975,70.8424,0.004357
40.007,70.8720,0.004357
40.036,70.9007,0.004357
40.067,70.9324,0.004357
40.098,70.9635,0.004338
40.128,70.9949,0.004338
40.159,71.0272,0.004338
40.190,71.0622,0.004338
40.221,71.0956,0.004338
40.251,71.1309,0.004338
40.282,71.1663,0.004338
40.319,71.2107,0.004338
40.346,71.2424,0.004357
40.377,71.2807,0.004357
40.408,71.3194,0.004357
40.439,71.3589,0.004357
40.473,71.4046,0.004357
40.501,71.4410,0.004357
40.533,71.4841,0.004357
40.563,71.5251,0.004357
40.594,71.5686,0.004357
40.625,71.6120,0.004366
40.656,71.6579,0.004366
40.687,71.7017,0.004366
40.719,71.7519,0.004366
40.748,71.7937,0.004366
40.779,71.8427,0.004366
40.809,71.8889,0.004366
40.840,71.9388,0.004366
40.872,71.9894,0.004423
40.904,72.0416,0.004423
40.935,72.0918,0.004423
40.966,72.1446,0.004423
40.996,72.1960,0.004423
41.029,72.2525,0.004423
41.058,72.3033,0.004423
41.088,72.3570,0.004423
41.119,72.4124,0.004395
41.150,72.4686,0.004395
41.181,72.5243,0.004395
41.212,72.5850,0.004395
41.244,72.6450,0.004395
41.276,72.7046,0.004395
41.307,72.7647,0.004395
41.337,72.8247,0.004395
41.368,72.8818,0.004348
41.399,72.9391,0.004348
41.429,72.9962,0.004348
41.460,73.0525,0.004348
41.489,73.1061,0.004348
41.521,73.1632,0.004348
41.552,73.2174,0.004348
41.583,73.2726,0.004348
41.614,73.3256,0.004517
41.646,73.3792,0.004517
41.675,73.4292,0.004517
41.706,73.4798,0.004517
41.737,73.5304,0.004517
41.768,73.5798,0.004517
41.799,73.6301,0.004517
41.829,73.6765,0.004517
41.860,73.7241,0.004583
41.894,73.7748,0.004583
41.921,73.8156,0.004583
41.953,73.8623,0.004583
41.983,73.9056,0.004583
42.013,73.9487,0.004583
42.045,73.9921,0.004583
42.076,74.0359,0.004583
42.106,74.0761,0.004536
42.139,74.1205,0.004536
42.168,74.1575,0.004536
42.203,74.2016,0.004536
42.231,74.2371,0.004536
42.262,74.2759,0.004536
42.294,74.3140,0.004536
42.325,74.3511,0.004536
42.356,74.3864,0.004536
42.388,74.4236,0.004592
42.418,74.4567,0.004592
42.449,74.4907,0.004592
42.480,74.5235,0.004592
42.512,74.5563,0.004592
42.543,74.5879,0.004592
42.574,74.6196,0.004592
42.606,74.6497,0.004592
42.637,74.6798,0.004602
42.669,74.7089,0.004602
42.699,74.7369,0.004602
42.730,74.7637,0.004602
42.762,74.7912,0.004602
42.791,74.8154,0.004602
42.823,74.8406,0.004602
42.853,74.8644,0.004602
42.886,74.8897,0.004677
42.916,74.9116,0.004677
42.947,74.9335,0.004677
42.977,74.9551,0.004677
43.008,74.9755,0.004677
43.040,74.9956,0.004677
43.070,75.0150,0.004677
43.101,75.0332,0.004677
43.133,75.0515,0.004677
43.164,75.0682,0.004677
43.197,75.0861,0.004677
43.226,75.1002,0.004677
43.258,75.1159,0.004677
43.288,75.1293,0.004677
43.319,75.1428,0.004677
43.350,75.1550,0.004677
43.381,75.1673,0.004639
43.411,75.1778,0.004639
43.441,75.1883,0.004639
43.473,75.1983,0.004639
43.505,75.2076,0.004639
43.536,75.2160,0.004639
43.568,75.2237,0.004639
43.598,75.2304,0.004592
43.629,75.2365,0.004592
43.660,75.2419,0.004592
43.691,75.2465,0.004592
43.721,75.2505,0.004592
43.752,75.2537,0.004592
43.783,75.2561,0.004592
43.814,75.2579,0.004592
43.845,75.2589,0.004564
43.876,75.2593,0.004564
43.907,75.2593,0.004564
43.938,75.2593,0.004564
43.969,75.2593,0.004564
44.000,75.2593,0.004564
44.031,75.2593,0.004564
44.063,75.2593,0.004564
44.094,75.2593,0.004526
44.125,75.2593,0.004526
44.157,75.2593,0.004526
44.189,75.2593,0.004526
44.219,75.2593,0.004526
44.250,75.2593,0.004526
44.282,75.2593,0.004526
44.312,75.2593,0.004526
44.343,75.2593,0.004461
44.373,75.2593,0.004461
44.404,75.2593,0.004461
44.436,75.2593,0.004461
44.467,75.2593,0.004461
44.497,75.2593,0.004461
44.528,75.2593,0.004461
44.560,75.2593,0.004461
44.591,75.2593,0.004461
44.621,75.2593,0.004479
44.651,75.2593,0.004479
44.683,75.2593,0.004479
44.715,75.2593,0.004479
44.745,75.2593,0.004479
44.776,75.2593,0.004479
44.808,75.2593,0.004479
44.840,75.2593,0.004479
44.869,75.2593,0.004479
44.901,75.2593,0.004451
44.933,75.2593,0.004451
44.963,75.2593,0.004451
44.994,75.2593,0.004451
45.024,75.2593,0.004451
45.054,75.2593,0.004451
45.086,75.2593,0.004451
45.116,75.2593,0.004479
45.147,75.2593,0.004479
45.178,75.2593,0.004479
45.209,75.2593,0.004479
45.240,75.2593,0.004479
45.271,75.2593,0.004479
45.302,75.2593,0.004479
45.333,75.2593,0.004479
45.364,75.2593,0.004489
45.395,75.2593,0.004489
45.425,75.2593,0.004489
45.457,75.2593,0.004489
45.486,75.2593,0.004489
45.517,75.2593,0.004489
45.548,75.2593,0.004489
45.578,75.2593,0.004489
45.610,75.2593,0.004479
45.641,75.2593,0.004479
45.671,75.2593,0.004479
45.702,75.2593,0.004479
45.733,75.2593,0.004479
45.764,75.2593,0.004479
45.795,75.2593,0.004479
45.826,75.2593,0.004479
45.856,75.2593,0.004479
45.887,75.2593,0.004470
45.918,75.2593,0.004470
45.949,75.2593,0.004470
45.980,75.2593,0.004470
46.011,75.2593,0.004470
46.042,75.2593,0.004470
46.073,75.2593,0.004470
46.104,75.2593,0.004451
46.135,75.2593,0.004451
46.166,75.2593,0.004451
46.197,75.2593,0.004451
46.228,75.2593,0.004451
46.263,75.2593,0.004451
46.292,75.2593,0.004451
46.324,75.2593,0.004451
46.354,75.2593,0.004442
46.386,75.2593,0.004442
46.418,75.2593,0.004442
46.448,75.2593,0.004442
46.478,75.2593,0.004442
46.510,75.2593,0.004442
46.540,75.2593,0.004442
46.572,75.2593,0.004442
46.603,75.2593,0.004451
46.633,75.2593,0.004451
46.664,75.2593,0.004451
46.695,75.2593,0.004451
46.726,75.2593,0.004451
46.756,75.2593,0.004451
46.787,75.2593,0.004451
46.818,75.2593,0.004451
46.848,75.2593,0.004461
46.879,75.2593,0.004461
46.909,75.2593,0.004461
46.943,75.2593,0.004461
46.971,75.2593,0.004461
47.003,75.2593,0.004461
47.034,75.2593,0.004461
47.065,75.2593,0.004461
47.096,75.2593,0.004461
47.127,75.2593,0.004395
47.158,75.2593,0.004395
47.189,75.2593,0.004395
47.219,75.2593,0.004395
47.250,75.2593,0.004395
47.282,75.2593,0.004395
47.312,75.2593,0.004395
47.344,75.2593,0.004376
47.375,75.2593,0.004376
47.406,75.2593,0.004376
47.437,75.2593,0.004376
47.468,75.2593,0.004376
47.499,75.2593,0.004376
47.528,75.2593,0.004376
47.559,75.2593,0.004376
47.590,75.2593,0.004376
47.621,75.2593,0.004385
47.652,75.2593,0.004385
47.684,75.2593,0.004385
47.715,75.2593,0.004385
47.750,75.2593,0.004385
47.777,75.2593,0.004385
47.807,75.2593,0.004385
47.838,75.2593,0.004470
47.870,75.2593,0.004470
47.901,75.2593,0.004470
47.932,75.2593,0.004470
47.964,75.2593,0.004470
47.996,75.2593,0.004470
48.026,75.2593,0.004470
48.058,75.2593,0.004470
48.090,75.2593,0.004470
48.119,75.2593,0.004470
48.150,75.2593,0.004536
48.181,75.2593,0.004536
48.212,75.2593,0.004536
48.243,75.2587,0.004536
48.274,75.2574,0.004536
48.304,75.2554,0.004536
48.336,75.2527,0.004536
48.367,75.2491,0.004498
48.397,75.2450,0.004498
48.428,75.2401,0.004498
48.459,75.2344,0.004498
48.491,75.2279,0.004498
48.525,75.2200,0.004498
48.554,75.2126,0.004498
48.585,75.2038,0.004498
48.615,75.1950,0.004498
48.649,75.1840,0.004498
48.677,75.1746,0.004498
48.708,75.1630,0.004498
48.739,75.1506,0.004498
48.772,75.1370,0.004498
48.801,75.1243,0.004498
48.833,75.1092,0.004498
48.863,75.0946,0.004592
48.894,75.0786,0.004592
48.926,75.0617,0.004592
48.958,75.0439,0.004592
48.988,75.0260,0.004592
49.019,75.0071,0.004592
49.050,74.9874,0.004592
49.082,74.9667,0.004620
49.114,74.9455,0.004620
49.145,74.9240,0.004620
49.175,74.9017,0.004620
49.207,74.8779,0.004620
49.238,74.8538,0.004620
49.268,74.8303,0.004620
49.300,74.8045,0.004620
49.330,74.7787,0.004620
49.361,74.7519,0.004573
49.393,74.7231,0.004573
49.425,74.6947,0.004573
49.456,74.6657,0.004573
49.486,74.6354,0.004573
49.518,74.6051,0.004573
49.549,74.5737,0.004573
49.582,74.5402,0.004573
49.613,74.5075,0.004555
49.646,74.4717,0.004555
49.675,74.4397,0.004555
49.705,74.4060,0.004555
49.742,74.3628,0.004555
49.783,74.3146,0.004555
49.814,74.2773,0.004555
49.845,74.2383,0.004526
49.876,74.2012,0.004526
49.906,74.1618,0.004526
49.936,74.1236,0.004526
49.967,74.0823,0.004526
49.998,74.0396,0.004526
50.028,73.9991,0.004526
50.064,73.9490,0.004526
50.091,73.9113,0.004536
50.121,73.8675,0.004536
50.152,73.8215,0.004536
50.184,73.7747,0.004536
50.215,73.7270,0.004536
50.245,73.6816,0.004536
50.276,73.6317,0.004536
50.308,73.5826,0.004536
50.339,73.5316,0.004536
50.370,73.4824,0.004583
50.401,73.4298,0.004583
50.433,73.3783,0.004583
50.464,73.3256,0.004583
50.494,73.2723,0.004583
50.525,73.2190,0.004583
50.556,73.1637,0.004583
50.588,73.1074,0.004592
50.620,73.0494,0.004592
50.650,72.9929,0.004592
50.681,72.9348,0.004592
50.714,72.8744,0.004592
50.743,72.8178,0.004592
50.774,72.7593,0.004592
50.805,72.6976,0.004592
50.836,72.6387,0.004592
50.867,72.5798,0.004592
50.897,72.5205,0.004536
50.929,72.4639,0.004536
50.960,72.4050,0.004536
50.990,72.3514,0.004536
51.023,72.2935,0.004536
51.052,72.2418,0.004536
51.084,72.1859,0.004536
51.115,72.1330,0.004395
51.146,72.0802,0.004395
51.176,72.0306,0.004395
51.207,71.9790,0.004395
51.237,71.9289,0.004395
51.270,71.8780,0.004395
51.300,71.8294,0.004395
51.331,71.7815,0.004395
51.361,71.7353,0.004310
51.392,71.6884,0.004310
51.423,71.6429,0.004310
51.454,71.5976,0.004310
51.486,71.5523,0.004310
51.517,71.5068,0.004310
51.548,71.4643,0.004310
51.581,71.4190,0.004310
51.610,71.3806,0.004338
51.641,71.3391,0.004338
51.672,71.2991,0.004338
51.704,71.2587,0.004338
51.735,71.2208,0.004338
51.765,71.1828,0.004338
51.796,71.1453,0.004338
51.827,71.1092,0.004338
51.859,71.0725,0.004357
51.889,71.0389,0.004357
51.922,71.0013,0.004357
51.950,70.9709,0.004357
51.981,70.9379,0.004357
52.012,70.9068,0.004357
52.043,70.8743,0.004357
52.074,70.8440,0.004357
52.106,70.8127,0.004385
52.138,70.7835,0.004385
52.169,70.7539,0.004385
52.200,70.7263,0.004385
52.231,70.6993,0.004385
52.262,70.6735,0.004385
52.294,70.6471,0.004385
52.325,70.6215,0.004366
52.357,70.5974,0.004366
52.388,70.5739,0.004366
52.419,70.5509,0.004366
52.450,70.5293,0.004366
52.481,70.5076,0.004366
52.511,70.4881,0.004366
52.543,70.4675,0.004366
52.575,70.4479,0.004366
52.605,70.4302,0.004310
52.636,70.4128,0.004310
52.667,70.3956,0.004310
52.698,70.3793,0.004310
52.730,70.3638,0.004310
52.761,70.3489,0.004310
52.792,70.3349,0.004310
52.824,70.3214,0.004310
52.854,70.3096,0.004338
52.885,70.2981,0.004338
52.916,70.2871,0.004338
52.947,70.2766,0.004338
52.979,70.2671,0.004338
53.009,70.2585,0.004338
53.040,70.2505,0.004338
53.071,70.2430,0.004338
53.103,70.2362,0.004338
53.133,70.2305,0.004395
53.163,70.2254,0.004395
53.195,70.2208,0.004395
53.228,70.2169,0.004395
53.256,70.2141,0.004395
53.287,70.2118,0.004395
53.318,70.2103,0.004395
53.354,70.2094,0.004395
53.396,70.2093,0.004357
53.427,70.2093,0.004357
53.458,70.2093,0.004357
53.489,70.2093,0.004357
53.520,70.2093,0.004357
53.551,70.2099,0.004357
53.582,70.2112,0.004357
53.614,70.2133,0.004395
53.645,70.2160,0.004395
53.675,70.2195,0.004395
53.706,70.2236,0.004395
53.741,70.2293,0.004395
53.768,70.2341,0.004395
53.801,70.2410,0.004395
53.829,70.2475,0.004404
53.860,70.2554,0.004404
53.891,70.2639,0.004404
53.925,70.2743,0.004404
53.954,70.2836,0.004404
53.985,70.2943,0.004404
54.015,70.3053,0.004404
54.047,70.3177,0.004404
54.079,70.3311,0.004404
54.108,70.3439,0.004404
54.140,70.3591,0.004329
54.171,70.3739,0.004329
54.201,70.3894,0.004329
54.232,70.4057,0.004329
54.262,70.4227,0.004329
54.293,70.4407,0.004329
54.324,70.4587,0.004329
54.355,70.4784,0.004263
54.386,70.4988,0.004263
54.417,70.5194,0.004263
54.448,70.5413,0.004263
54.479,70.5633,0.004263
54.511,70.5872,0.004263
54.542,70.6108,0.004263
54.573,70.6359,0.004263
54.604,70.6607,0.004253
54.635,70.6873,0.004253
54.666,70.7133,0.004253
54.697,70.7414,0.004253
54.728,70.7693,0.004253
54.758,70.7982,0.004253
54.789,70.8269,0.004253
54.821,70.8578,0.004253
54.851,70.8887,0.004357
54.882,70.9208,0.004357
54.913,70.9523,0.004357
54.947,70.9884,0.004357
54.975,71.0197,0.004357
55.007,71.0563,0.004357
55.037,71.0897,0.004357
55.067,71.1250,0.004357
55.098,71.1623,0.004357
55.128,71.1985,0.004357
55.159,71.2371,0.004357
55.191,71.2759,0.004357
55.222,71.3165,0.004357
55.252,71.3559,0.004357
55.285,71.4004,0.004357
55.315,71.4402,0.004357
55.345,71.4820,0.004357
55.377,71.5273,0.004357
55.408,71.5705,0.004357
55.438,71.6135,0.004357
55.469,71.6596,0.004357
55.500,71.7074,0.004357
55.531,71.7526,0.004357
55.561,71.7992,0.004357
55.593,71.8498,0.004357
55.624,71.8986,0.004348
55.655,71.9493,0.004348
55.687,72.0002,0.004348
55.718,72.0514,0.004348
55.748,72.1024,0.004348
55.779,72.1565,0.004348
55.810,72.2089,0.004348
55.841,72.2626,0.004348
55.872,72.3174,0.004282
55.903,72.3735,0.004282
55.933,72.4289,0.004282
55.964,72.4861,0.004282
55.995,72.5427,0.004282
56.026,72.6027,0.004282
56.056,72.6601,0.004282
56.087,72.7195,0.004282
56.119,72.7805,0.004310
56.150,72.8408,0.004310
56.181,72.8992,0.004310
56.212,72.9563,0.004310
56.243,73.0131,0.004310
56.274,73.0694,0.004310
56.305,73.1243,0.004310
56.336,73.1804,0.004310
56.367,73.2326,0.004479
56.398,73.2861,0.004479
56.428,73.3378,0.004479
56.459,73.3894,0.004479
56.490,73.4413,0.004479
56.522,73.4929,0.004479
56.553,73.5424,0.004479
56.585,73.5936,0.004479
56.616,73.6404,0.004602
56.647,73.6882,0.004602
56.678,73.7349,0.004602
56.709,73.7818,0.004602
56.739,73.8236,0.004602
56.770,73.8698,0.004602
56.801,73.9125,0.004602
56.837,73.9627,0.004602
56.863,73.9991,0.004602
56.894,74.0399,0.004564
56.925,74.0814,0.004564
56.956,74.1212,0.004564
56.987,74.1611,0.004564
57.018,74.1999,0.004564
57.050,74.2381,0.004564
57.081,74.2754,0.004564
57.111,74.3105,0.004602
57.141,74.3455,0.004602
57.173,74.3812,0.004602
57.204,74.4157,0.004602
57.234,74.4487,0.004602
57.266,74.4830,0.004602
57.297,74.5148,0.004602
57.328,74.5465,0.004602
57.359,74.5763,0.004602
57.390,74.6070,0.004602
57.421,74.6362,0.004602
57.453,74.6656,0.004602
57.483,74.6924,0.004602
57.513,74.7187,0.004602
57.544,74.7447,0.004602
57.577,74.7726,0.004602
57.606,74.7953,0.004592
57.637,74.8199,0.004592
57.668,74.8429,0.004592
57.699,74.8656,0.004592
57.730,74.8885,0.004592
57.763,74.9103,0.004592
57.793,74.9299,0.004592
57.822,74.9489,0.004592
57.854,74.9681,0.004602
57.885,74.9868,0.004602
57.917,75.0057,0.004602
57.946,75.0213,0.004602
57.978,75.0370,0.004602
58.009,75.0530,0.004602
58.039,75.0674,0.004602
58.070,75.0813,0.004602
58.100,75.0942,0.004564
58.131,75.1072,0.004564
58.162,75.1186,0.004564
58.193,75.1296,0.004564
58.224,75.1398,0.004564
58.256,75.1499,0.004564
58.286,75.1588,0.004564
58.317,75.1670,0.004564
58.350,75.1749,0.004517
58.377,75.1809,0.004517
58.408,75.1869,0.004517
58.439,75.1922,0.004517
58.471,75.1969,0.004517
58.501,75.2006,0.004517
58.532,75.2038,0.004517
58.564,75.2063,0.004517
58.595,75.2081,0.004573
58.625,75.2091,0.004573
58.656,75.2093,0.004573
58.691,75.2093,0.004573
58.717,75.2093,0.004573
58.749,75.2093,0.004573
58.779,75.2093,0.004573
58.810,75.2093,0.004573
58.840,75.2093,0.004517
58.873,75.2093,0.004517
58.903,75.2093,0.004517
58.934,75.2093,0.004517
58.965,75.2093,0.004517
58.996,75.2093,0.004517
59.028,75.2093,0.004517
59.059,75.2093,0.004517
59.090,75.2093,0.004517
59.121,75.2093,0.004432
59.152,75.2093,0.004432
59.183,75.2093,0.004432
59.214,75.2093,0.004432
59.245,75.2093,0.004432
59.275,75.2093,0.004432
59.307,75.2093,0.004432
59.339,75.2093,0.004489
59.369,75.2093,0.004489
59.399,75.2093,0.004489
59.430,75.2093,0.004489
59.461,75.2093,0.004489
59.492,75.2093,0.004489
59.523,75.2093,0.004489
59.560,75.2093,0.004489
59.585,75.2093,0.004508
59.616,75.2093,0.004508
59.646,75.2093,0.004508
59.677,75.2093,0.004508
59.707,75.2093,0.004508
59.739,75.2093,0.004508
59.769,75.2093,0.004508
59.801,75.2093,0.004508
59.831,75.2093,0.004508
59.863,75.2093,0.004479
59.894,75.2093,0.004479
59.925,75.2093,0.004479
59.955,75.2093,0.004479
59.986,75.2093,0.004479
60.018,75.2093,0.004479
60.048,75.2093,0.004479
60.080,75.2093,0.004479
60.112,75.2093,0.004479
60.144,75.2093,0.004461
60.176,75.2093,0.004461
60.201,75.2093,0.004461
60.239,75.2093,0.004461
60.268,75.2093,0.004461
60.300,75.2093,0.004461
60.334,75.2093,0.004461
60.362,75.2093,0.004461
60.394,75.2093,0.004461
60.423,75.2093,0.004461
60.454,75.2093,0.004461
60.486,75.2093,0.004461
60.518,75.2093,0.004461
60.549,75.2093,0.004461
60.579,75.2093,0.004461
60.611,75.2093,0.004508
60.642,75.2093,0.004508
60.673,75.2093,0.004508
60.705,75.2093,0.004508
60.736,75.2093,0.004508
60.767,75.2093,0.004508
60.798,75.2093,0.004508
60.829,75.2093,0.004508
60.859,75.2093,0.004470
60.890,75.2093,0.004470
60.922,75.2093,0.004470
60.953,75.2093,0.004470
60.984,75.2093,0.004470
61.016,75.2093,0.004470
61.045,75.2093,0.004470
61.077,75.2093,0.004470
61.108,75.2093,0.004432
61.139,75.2093,0.004432
61.170,75.2093,0.004432
61.201,75.2093,0.004432
61.232,75.2093,0.004432
61.264,75.2093,0.004432
61.294,75.2093,0.004432
61.326,75.2093,0.004432
61.357,75.2093,0.004451
61.389,75.2093,0.004451
61.419,75.2093,0.004451
61.451,75.2093,0.004451
61.482,75.2093,0.004451
61.516,75.2093,0.004451
61.544,75.2093,0.004451
61.575,75.2093,0.004451
61.607,75.2093,0.004451
61.638,75.2093,0.004451
61.669,75.2093,0.004451
61.702,75.2093,0.004451
61.732,75.2093,0.004451
61.763,75.2093,0.004451
61.794,75.2093,0.004451
61.825,75.2093,0.004451
61.856,75.2093,0.004442
61.887,75.2093,0.004442
61.918,75.2093,0.004442
61.949,75.2093,0.004442
61.979,75.2093,0.004442
62.010,75.2093,0.004442
62.040,75.2093,0.004442
62.071,75.2093,0.004442
62.103,75.2093,0.004442
62.135,75.2093,0.004442
62.165,75.2093,0.004442
62.196,75.2093,0.004442
62.227,75.2093,0.004442
62.258,75.2093,0.004442
62.292,75.2093,0.004442
62.320,75.2093,0.004442
62.351,75.2093,0.004479
62.381,75.2093,0.004479
62.412,75.2093,0.004479
62.444,75.2093,0.004479
62.475,75.2093,0.004479
62.506,75.2093,0.004479
62.536,75.2093,0.004479
62.567,75.2093,0.004479
62.598,75.2093,0.004461
62.629,75.2093,0.004461
62.661,75.2093,0.004461
62.693,75.2093,0.004461
62.723,75.2093,0.004461
62.754,75.2093,0.004461
62.785,75.2093,0.004461
62.817,75.2093,0.004461
62.848,75.2093,0.004461
62.879,75.2093,0.004498
62.909,75.2093,0.004498
62.940,75.2089,0.004498
62.971,75.2078,0.004498
63.002,75.2060,0.004498
63.032,75.2036,0.004498
63.063,75.2002,0.004498
63.094,75.1963,0.004517
63.126,75.1914,0.004517
63.156,75.1862,0.004517
63.187,75.1800,0.004517
63.218,75.1731,0.004517
63.249,75.1655,0.004517
63.280,75.1572,0.004517
63.310,75.1484,0.004517
63.341,75.1385,0.004526
63.373,75.1277,0.004526
63.403,75.1164,0.004526
63.434,75.1044,0.004526
63.465,75.0922,0.004526
63.496,75.0786,0.004526
63.527,75.0646,0.004526
63.558,75.0497,0.004526
63.589,75.0341,0.004545
63.620,75.0172,0.004545
63.651,75.0006,0.004545
63.683,74.9821,0.004545
63.714,74.9641,0.004545
63.746,74.9438,0.004545
63.776,74.9248,0.004545
63.807,74.9036,0.004545
63.838,74.8823,0.004555
63.869,74.8597,0.004555
63.900,74.8372,0.004555
63.932,74.8133,0.004555
63.962,74.7895,0.004555
63.993,74.7644,0.004555
64.024,74.7375,0.004555
64.056,74.7113,0.004555
64.086,74.6843,0.004555
64.117,74.6563,0.004583
64.148,74.6284,0.004583
64.179,74.5987,0.004583
64.209,74.5690,0.004583
64.240,74.5378,0.004583
64.271,74.5063,0.004583
64.302,74.4743,0.004583
64.333,74.4421,0.004583
64.363,74.4077,0.004583
64.394,74.3738,0.004583
64.426,74.3373,0.004583
64.458,74.3008,0.004583
64.489,74.2639,0.004583
64.519,74.2265,0.004583
64.550,74.1886,0.004583
64.581,74.1509,0.004583
64.611,74.1122,0.004526
64.642,74.0715,0.004526
64.674,74.0306,0.004526
64.704,73.9880,0.004526
64.735,73.9462,0.004526
64.766,73.9038,0.004526
64.796,73.8605,0.004526
64.827,73.8161,0.004526
64.860,73.7685,0.004536
64.891,73.7225,0.004536
64.923,73.6730,0.004536
64.953,73.6269,0.004536
64.985,73.5773,0.004536
65.015,73.5299,0.004536
65.047,73.4783,0.004536
65.078,73.4275,0.004564
65.110,73.3744,0.004564
65.141,73.3222,0.004564
65.174,73.2662,0.004564
65.204,73.2157,0.004564
65.236,73.1597,0.004564
65.267,73.1036,0.004564
65.298,73.0478,0.004564
65.328,72.9926,0.004564
65.360,72.9351,0.004564
65.390,72.8772,0.004526
65.424,72.8155,0.004526
65.453,72.7591,0.004526
65.483,72.7003,0.004526
65.514,72.6402,0.004526
65.546,72.5788,0.004526
65.576,72.5215,0.004526
65.607,72.4630,0.004508
65.638,72.4059,0.004508
65.670,72.3480,0.004508
65.701,72.2907,0.004508
65.732,72.2357,0.004508
65.762,72.1810,0.004508
65.794,72.1276,0.004508
65.825,72.0746,0.004508
65.857,72.0210,0.004451
65.888,71.9679,0.004451
65.918,71.9193,0.004451
65.949,71.8685,0.004451
65.980,71.8202,0.004451
66.010,71.7708,0.004451
66.042,71.7229,0.004451
66.074,71.6744,0.004451
66.103,71.6292,0.004338
66.134,71.5827,0.004338
66.165,71.5392,0.004338
66.196,71.4939,0.004338
66.227,71.4515,0.004338
66.257,71.4081,0.004338
66.288,71.3669,0.004338
66.320,71.3240,0.004338
66.350,71.2847,0.004319
66.382,71.2432,0.004319
66.412,71.2059,0.004319
66.443,71.1664,0.004319
66.474,71.1293,0.004319
66.506,71.0900,0.004319
66.536,71.0554,0.004319
66.568,71.0173,0.004319
66.599,70.9836,0.004329
66.630,70.9480,0.004329
66.659,70.9172,0.004329
66.693,70.8811,0.004329
66.722,70.8515,0.004329
66.754,70.8190,0.004329
66.784,70.7895,0.004329
66.815,70.7600,0.004329
66.846,70.7304,0.004329
66.877,70.7015,0.004310
66.908,70.6745,0.004310
66.940,70.6459,0.004310
66.970,70.6207,0.004310
67.001,70.5954,0.004310
67.033,70.5697,0.004310
67.064,70.5456,0.004310
67.095,70.5223,0.004319
67.130,70.4965,0.004319
67.157,70.4779,0.004319
67.189,70.4564,0.004319
67.219,70.4361,0.004319
67.250,70.4162,0.004319
67.281,70.3976,0.004319
67.312,70.3792,0.004319
67.342,70.3622,0.004329
67.373,70.3452,0.004329
67.404,70.3295,0.004329
67.435,70.3142,0.004329
67.465,70.2997,0.004329
67.497,70.2852,0.004329
67.527,70.2728,0.004329
67.560,70.2595,0.004329
67.590,70.2481,0.004338
67.621,70.2371,0.004338
67.651,70.2273,0.004338
67.681,70.2177,0.004338
67.713,70.2088,0.004338
67.749,70.1995,0.004338
67.776,70.1930,0.004338
67.807,70.1862,0.004338
67.839,70.1803,0.004338
67.868,70.1754,0.004376
67.902,70.1706,0.004376
67.930,70.1673,0.004376
67.961,70.1642,0.004376
67.992,70.1619,0.004376
68.023,70.1603,0.004376
68.055,70.1594,0.004376
68.086,70.1593,0.004376
68.118,70.1593,0.004366
68.148,70.1593,0.004366
68.179,70.1593,0.004366
68.211,70.1593,0.004366
68.241,70.1598,0.004366
68.273,70.1612,0.004366
68.303,70.1632,0.004366
68.334,70.1659,0.004366
68.366,70.1695,0.004366
68.398,70.1737,0.004366
68.429,70.1787,0.004366
68.459,70.1842,0.004366
68.490,70.1906,0.004366
68.522,70.1979,0.004366
68.552,70.2055,0.004366
68.583,70.2141,0.004366
68.614,70.2232,0.004366
68.647,70.2342,0.004385
68.675,70.2439,0.004385
68.706,70.2557,0.004385
68.736,70.2671,0.004385
68.768,70.2805,0.004385
68.798,70.2935,0.004385
68.832,70.3095,0.004385
68.861,70.3233,0.004385
68.892,70.3395,0.004348
68.923,70.3556,0.004348
68.954,70.3728,0.004348
68.984,70.3907,0.004348
69.014,70.4088,0.004348
69.045,70.4283,0.004348
69.076,70.4482,0.004348
69.108,70.4700,0.004348
69.138,70.4906,0.004348
69.169,70.5134,0.004348
69.200,70.5361,0.004348
69.231,70.5602,0.004348
69.263,70.5853,0.004348
69.294,70.6101,0.004348
69.328,70.6389,0.004348
69.358,70.6642,0.004301
69.388,70.6913,0.004301
69.420,70.7205,0.004301
69.451,70.7498,0.004301
69.482,70.7784,0.004301
69.512,70.8083,0.004301
69.543,70.8390,0.004301
69.573,70.8707,0.004301
69.604,70.9028,0.004272
69.636,70.9368,0.004272
69.667,70.9706,0.004272
69.698,71.0063,0.004272
69.730,71.0419,0.004272
69.759,71.0760,0.004272
69.790,71.1122,0.004272
69.821,71.1505,0.004272
69.853,71.1904,0.004272
69.883,71.2279,0.004282
69.913,71.2668,0.004282
69.944,71.3074,0.004282
69.975,71.3485,0.004282
70.006,71.3904,0.004282
70.037,71.4329,0.004282
70.069,71.4778,0.004282
70.100,71.5223,0.004282
70.131,71.5666,0.004282
70.161,71.6109,0.004291
70.192,71.6578,0.004291
70.223,71.7044,0.004291
70.255,71.7529,0.004291
70.288,71.8050,0.004291
70.316,71.8496,0.004291
70.347,71.9004,0.004291
70.378,71.9497,0.004301
70.409,72.0013,0.004301
70.440,72.0546,0.004301
70.477,72.1169,0.004301
70.517,72.1871,0.004301
70.548,72.2406,0.004301
70.578,72.2956,0.004301
70.610,72.3540,0.004301
70.640,72.4085,0.004310
70.672,72.4665,0.004310
70.703,72.5273,0.004310
70.733,72.5819,0.004310
70.764,72.6423,0.004310
70.795,72.7019,0.004310
70.826,72.7617,0.004310
70.857,72.8192,0.004338
70.888,72.8784,0.004338
70.919,72.9352,0.004338
70.950,72.9929,0.004338
70.982,73.0492,0.004338
71.012,73.1040,0.004338
71.044,73.1594,0.004338
71.075,73.2118,0.004338
71.104,73.2640,0.004338
71.136,73.3166,0.004470
71.168,73.3690,0.004470
71.198,73.4185,0.004470
71.229,73.4690,0.004470
71.263,73.5210,0.004470
71.292,73.5677,0.004470
71.323,73.6146,0.004470
71.354,73.6626,0.004470
71.385,73.7087,0.004573
71.416,73.7545,0.004573
71.447,73.7998,0.004573
71.479,73.8443,0.004573
71.511,73.8888,0.004573
71.541,73.9305,0.004573
71.572,73.9718,0.004573
71.603,74.0135,0.004583
71.634,74.0549,0.004583
71.665,74.0943,0.004583
71.698,74.1354,0.004583
71.727,74.1712,0.004583
71.759,74.2095,0.004583
71.790,74.2469,0.004583
71.822,74.2841,0.004583
71.852,74.3183,0.004583
71.883,74.3530,0.004583
71.915,74.3869,0.004583
71.947,74.4220,0.004583
71.977,74.4533,0.004583
72.008,74.4846,0.004583
72.039,74.5161,0.004583
72.069,74.5453,0.004583
72.100,74.5758,0.004545
72.132,74.6041,0.004545
72.169,74.6395,0.004545
72.210,74.6733,0.004545
72.240,74.6997,0.004545
72.271,74.7242,0.004545
72.301,74.7490,0.004545
72.332,74.7721,0.004545
72.363,74.7961,0.004611
72.393,74.8180,0.004611
72.425,74.8410,0.004611
72.455,74.8614,0.004611
72.487,74.8818,0.004611
72.516,74.9007,0.004611
72.547,74.9197,0.004611
72.577,74.9373,0.004611
72.609,74.9554,0.004592
72.641,74.9729,0.004592
72.672,74.9888,0.004592
72.703,75.0044,0.004592
72.735,75.0198,0.004592
72.766,75.0332,0.004592
72.796,75.0462,0.004592
72.827,75.0586,0.004592
72.859,75.0708,0.004526
72.889,75.0816,0.004526
72.919,75.0914,0.004526
72.950,75.1009,0.004526
72.981,75.1096,0.004526
73.012,75.1178,0.004526
73.042,75.1251,0.004526
73.073,75.1318,0.004526
73.104,75.1379,0.004526
73.135,75.1429,0.004583
73.166,75.1475,0.004583
73.197,75.1513,0.004583
73.227,75.1542,0.004583
73.258,75.1566,0.004583
73.289,75.1582,0.004583
73.320,75.1591,0.004583
73.350,75.1593,0.004583
73.381,75.1593,0.004583
73.412,75.1593,0.004573
73.444,75.1593,0.004573
73.474,75.1593,0.004573
73.505,75.1593,0.004573
73.537,75.1593,0.004573
73.568,75.1593,0.004573
73.598,75.1593,0.004573
73.629,75.1593,0.004489
73.661,75.1593,0.004489
73.692,75.1593,0.004489
73.723,75.1593,0.004489
73.754,75.1593,0.004489
73.785,75.1593,0.004489
73.817,75.1593,0.004489
73.849,75.1593,0.004489
73.880,75.1593,0.004470
73.910,75.1593,0.004470
73.942,75.1593,0.004470
73.973,75.1593,0.004470
74.004,75.1593,0.004470
74.035,75.1593,0.004470
74.069,75.1593,0.004470
74.096,75.1593,0.004470
74.131,75.1593,0.004479
74.160,75.1593,0.004479
74.190,75.1593,0.004479
74.221,75.1593,0.004479
74.251,75.1593,0.004479
74.283,75.1593,0.004479
74.314,75.1593,0.004479
74.344,75.1593,0.004489
74.379,75.1593,0.004489
74.407,75.1593,0.004489
74.437,75.1593,0.004489
74.468,75.1593,0.004489
74.499,75.1593,0.004489
74.530,75.1593,0.004489
74.561,75.1593,0.004489
74.594,75.1593,0.004489
74.623,75.1593,0.004461
74.654,75.1593,0.004461
74.684,75.1593,0.004461
74.715,75.1593,0.004461
74.747,75.1593,0.004461
74.778,75.1593,0.004461
74.809,75.1593,0.004461
74.841,75.1593,0.004461
74.874,75.1593,0.004461
74.902,75.1593,0.004461
74.935,75.1593,0.004461
74.964,75.1593,0.004461
74.995,75.1593,0.004461
75.027,75.1593,0.004461
75.057,75.1593,0.004461
75.089,75.1593,0.004461
75.119,75.1593,0.004517
75.150,75.1593,0.004517
75.180,75.1593,0.004517
75.211,75.1593,0.004517
75.242,75.1593,0.004517
75.272,75.1593,0.004517
75.303,75.1593,0.004517
75.334,75.1593,0.004517
75.366,75.1593,0.004517
75.396,75.1593,0.004517
75.428,75.1593,0.004517
75.461,75.1593,0.004517
75.490,75.1593,0.004517
75.520,75.1593,0.004517
75.553,75.1593,0.004517
75.582,75.1593,0.004517
75.612,75.1593,0.004461
75.644,75.1593,0.004461
75.674,75.1593,0.004461
75.707,75.1593,0.004461
75.738,75.1593,0.004461
75.769,75.1593,0.004461
75.799,75.1593,0.004461
75.835,75.1593,0.004461
75.861,75.1593,0.004395
75.893,75.1593,0.004395
75.925,75.1593,0.004395
75.956,75.1593,0.004395
75.986,75.1593,0.004395
76.017,75.1593,0.004395
76.051,75.1593,0.004395
76.079,75.1593,0.004395
76.109,75.1593,0.004395
76.140,75.1593,0.004432
76.171,75.1593,0.004432
76.202,75.1593,0.004432
76.232,75.1593,0.004432
76.263,75.1593,0.004432
76.294,75.1593,0.004432
76.329,75.1593,0.004432
76.356,75.1593,0.004470
76.388,75.1593,0.004470
76.419,75.1593,0.004470
76.450,75.1593,0.004470
76.484,75.1593,0.004470
76.514,75.1593,0.004470
76.547,75.1593,0.004470
76.576,75.1593,0.004451
76.606,75.1593,0.004451
76.637,75.1593,0.004451
76.668,75.1593,0.004451
76.698,75.1593,0.004451
76.732,75.1593,0.004451
76.760,75.1593,0.004451
76.794,75.1593,0.004451
76.822,75.1593,0.004451
76.855,75.1593,0.004442
76.884,75.1593,0.004442
76.919,75.1593,0.004442
76.947,75.1593,0.004442
76.979,75.1593,0.004442
77.011,75.1593,0.004442
77.042,75.1593,0.004442
77.072,75.1593,0.004442
77.104,75.1593,0.004442
77.136,75.1593,0.004404
77.167,75.1593,0.004404
77.199,75.1593,0.004404
77.230,75.1593,0.004404
77.261,75.1593,0.004404
77.292,75.1593,0.004404
77.324,75.1593,0.004404
77.356,75.1593,0.004404
77.385,75.1593,0.004432
77.415,75.1593,0.004432
77.447,75.1593,0.004432
77.482,75.1593,0.004432
77.508,75.1593,0.004432
77.540,75.1593,0.004432
77.571,75.1593,0.004432
77.603,75.1593,0.004432
77.633,75.1593,0.004479
77.664,75.1587,0.004479
77.695,75.1575,0.004479
77.725,75.1555,0.004479
77.760,75.1524,0.004479
77.788,75.1491,0.004479
77.818,75.1451,0.004479
77.849,75.1401,0.004517
77.881,75.1341,0.004517
77.912,75.1279,0.004517
77.943,75.1210,0.004517
77.974,75.1128,0.004517
78.010,75.1028,0.004517
78.037,75.0947,0.004517
78.067,75.0853,0.004517
78.097,75.0746,0.004658
78.129,75.0628,0.004658
78.160,75.0509,0.004658
78.191,75.0375,0.004658
78.221,75.0244,0.004658
78.251,75.0105,0.004658
78.286,74.9935,0.004658
78.314,74.9791,0.004658
78.344,74.9634,0.004658
78.375,74.9458,0.004677
78.406,74.9280,0.004677
78.437,74.9095,0.004677
78.468,74.8902,0.004677
78.499,74.8700,0.004677
78.530,74.8491,0.004677
78.563,74.8261,0.004677
78.592,74.8047,0.004583
78.622,74.7824,0.004583
78.653,74.7588,0.004583
78.689,74.7302,0.004583
78.730,74.6957,0.004583
78.762,74.6697,0.004583
78.793,74.6420,0.004583
78.824,74.6150,0.004583
78.854,74.5867,0.004583
78.886,74.5568,0.004536
78.917,74.5270,0.004536
78.948,74.4965,0.004536
78.979,74.4645,0.004536
79.013,74.4288,0.004536
79.041,74.3996,0.004536
79.075,74.3628,0.004536
79.103,74.3318,0.004536
79.136,74.2935,0.004545
79.165,74.2611,0.004545
79.196,74.2239,0.004545
79.227,74.1871,0.004545
79.261,74.1454,0.004545
79.289,74.1100,0.004545
79.320,74.0714,0.004545
79.351,74.0306,0.004573
79.385,73.9864,0.004573
79.413,73.9485,0.004573
79.444,73.9063,0.004573
79.475,73.8629,0.004573
79.508,73.8153,0.004573
79.536,73.7755,0.004573
79.567,73.7316,0.004573
79.598,73.6839,0.004573
79.629,73.6378,0.004573
79.661,73.5897,0.004573
79.692,73.5418,0.004573
79.723,73.4927,0.004573
79.754,73.4417,0.004573
79.785,73.3929,0.004573
79.815,73.3421,0.004573
79.846,73.2904,0.004573
79.877,73.2381,0.004611
79.908,73.1836,0.004611
79.939,73.1308,0.004611
79.971,73.0752,0.004611
80.003,73.0186,0.004611
80.034,72.9616,0.004611
80.065,72.9049,0.004611
80.097,72.8458,0.004611
80.128,72.7872,0.004611
80.160,72.7267,0.004611
80.189,72.6687,0.004611
80.220,72.6077,0.004611
80.252,72.5483,0.004611
80.283,72.4876,0.004611
80.315,72.4286,0.004611
80.346,72.3705,0.004489
80.377,72.3122,0.004489
80.407,72.2575,0.004489
80.439,72.2022,0.004489
80.469,72.1478,0.004489
80.500,72.0938,0.004489
80.531,72.0405,0.004489
80.562,71.9872,0.004489
80.593,71.9364,0.004376
80.625,71.8824,0.004376
80.656,71.8343,0.004376
80.686,71.7835,0.004376
80.717,71.7350,0.004376
80.749,71.6853,0.004376
80.779,71.6389,0.004376
80.811,71.5914,0.004376
80.843,71.5450,0.004329
80.875,71.4970,0.004329
80.907,71.4525,0.004329
80.938,71.4079,0.004329
80.969,71.3648,0.004329
81.000,71.3212,0.004329
81.032,71.2796,0.004329
81.063,71.2391,0.004329
81.094,71.1975,0.004310
81.125,71.1588,0.004310
81.156,71.1190,0.004310
81.187,71.0817,0.004310
81.219,71.0437,0.004310
81.250,71.0066,0.004310
81.281,70.9722,0.004310
81.311,70.9366,0.004310
81.343,70.9023,0.004310
81.373,70.8690,0.004357
81.405,70.8357,0.004357
81.436,70.8036,0.004357
81.467,70.7715,0.004357
81.498,70.7414,0.004357
81.530,70.7102,0.004357
81.562,70.6808,0.004357
81.592,70.6523,0.004357
81.623,70.6247,0.004357
81.659,70.5941,0.004357
81.700,70.5584,0.004357
81.732,70.5336,0.004357
81.762,70.5092,0.004357
81.794,70.4846,0.004357
81.826,70.4612,0.004357
81.857,70.4392,0.004319
81.888,70.4175,0.004319
81.919,70.3968,0.004319
81.949,70.3771,0.004319
81.981,70.3573,0.004319
82.012,70.3385,0.004319
82.044,70.3204,0.004319
82.075,70.3029,0.004319
82.106,70.2864,0.004366
82.137,70.2708,0.004366
82.168,70.2559,0.004366
82.199,70.2413,0.004366
82.231,70.2278,0.004366
82.262,70.2148,0.004366
82.293,70.2031,0.004366
82.325,70.1913,0.004366
82.355,70.1810,0.004376
82.386,70.1710,0.004376
82.417,70.1622,0.004376
82.448,70.1535,0.004376
82.479,70.1462,0.004376
82.511,70.1390,0.004376
82.542,70.1326,0.004376
82.574,70.1271,0.004376
82.605,70.1222,0.004357
82.636,70.1184,0.004357
82.667,70.1150,0.004357
82.698,70.1126,0.004357
82.729,70.1107,0.004357
82.760,70.1097,0.004357
82.791,70.1093,0.004357
82.822,70.1093,0.004357
82.852,70.1093,0.004319
82.884,70.1093,0.004319
82.915,70.1093,0.004319
82.946,70.1093,0.004319
82.977,70.1093,0.004319
83.008,70.1098,0.004319
83.038,70.1109,0.004319
83.070,70.1128,0.004319
83.100,70.1154,0.004338
83.131,70.1188,0.004338
83.162,70.1227,0.004338
83.193,70.1276,0.004338
83.224,70.1330,0.004338
83.255,70.1393,0.004338
83.287,70.1464,0.004338
83.318,70.1542,0.004338
83.348,70.1623,0.004338
83.380,70.1717,0.004338
83.410,70.1813,0.004338
83.443,70.1927,0.004338
83.473,70.2038,0.004338
83.505,70.2165,0.004338
83.535,70.2290,0.004338
83.567,70.2427,0.004338
83.597,70.2565,0.004338
83.628,70.2714,0.004310
83.658,70.2868,0.004310
83.689,70.3032,0.004310
83.720,70.3203,0.004310
83.751,70.3385,0.004310
83.783,70.3574,0.004310
83.813,70.3767,0.004310
83.845,70.3967,0.004310
83.876,70.4180,0.004319
83.908,70.4399,0.004319
83.939,70.4627,0.004319
83.970,70.4855,0.004319
84.001,70.5092,0.004319
84.032,70.5332,0.004319
84.062,70.5579,0.004319
84.093,70.5838,0.004319
84.124,70.6099,0.004301
84.156,70.6387,0.004301
84.187,70.6668,0.004301
84.218,70.6950,0.004301
84.252,70.7285,0.004301
84.281,70.7562,0.004301
84.310,70.7864,0.004301
84.341,70.8171,0.004301
84.372,70.8500,0.004310
84.403,70.8832,0.004310
84.435,70.9182,0.004310
84.467,70.9538,0.004310
84.497,70.9874,0.004310
84.527,71.0228,0.004310
84.558,71.0596,0.004310
84.589,71.0971,0.004310
84.619,71.1333,0.004291
84.652,71.1744,0.004291
84.683,71.2150,0.004291
84.714,71.2557,0.004291
84.744,71.2957,0.004291
84.776,71.3393,0.004291
84.809,71.3860,0.004291
84.837,71.4240,0.004291
84.868,71.4686,0.004282
84.900,71.5133,0.004282
84.930,71.5594,0.004282
84.961,71.6049,0.004282
84.993,71.6532,0.004282
85.024,71.7008,0.004282
85.055,71.7492,0.004282
85.086,71.7977,0.004319
85.117,71.8494,0.004319
85.148,71.8984,0.004319
85.179,71.9508,0.004319
85.209,72.0001,0.004319
85.239,72.0520,0.004319
85.271,72.1067,0.004319
85.302,72.1617,0.004319
85.334,72.2172,0.004291
85.365,72.2730,0.004291
85.396,72.3317,0.004291
85.427,72.3880,0.004291
85.457,72.4438,0.004291
85.488,72.5024,0.004291
85.520,72.5644,0.004291
85.551,72.6247,0.004291
85.582,72.6821,0.004291
85.612,72.7409,0.004272
85.643,72.7988,0.004272
85.674,72.8571,0.004272
85.706,72.9151,0.004272
85.736,72.9710,0.004272
85.767,73.0240,0.004272
85.798,73.0812,0.004272
85.830,73.1360,0.004272
85.865,73.1966,0.004461
85.893,73.2418,0.004461
85.923,73.2939,0.004461
85.954,73.3445,0.004461
85.985,73.3943,0.004461
86.017,73.4457,0.004461
86.048,73.4937,0.004461
86.082,73.5478,0.004461
86.110,73.5893,0.004461
86.141,73.6357,0.004592
86.172,73.6817,0.004592
86.202,73.7261,0.004592
86.233,73.7706,0.004592
86.264,73.8137,0.004592
86.294,73.8560,0.004592
86.330,73.9048,0.004592
86.371,73.9590,0.004564
86.402,73.9995,0.004564
86.433,74.0412,0.004564
86.466,74.0822,0.004564
86.495,74.1168,0.004564
86.525,74.1536,0.004564
86.556,74.1901,0.004564
86.586,74.2254,0.004564
86.615,74.2590,0.004545
86.646,74.2941,0.004545
86.677,74.3276,0.004545
86.708,74.3616,0.004545
86.738,74.3931,0.004545
86.769,74.4246,0.004545
86.800,74.4561,0.004545
86.831,74.4870,0.004545
86.863,74.5176,0.004555
86.893,74.5457,0.004555
86.925,74.5742,0.004555
86.956,74.6021,0.004555
86.988,74.6290,0.004555
87.018,74.6547,0.004555
87.049,74.6801,0.004555
87.080,74.7044,0.004555
87.111,74.7285,0.004555
87.142,74.7519,0.004555
87.171,74.7730,0.004555
87.203,74.7952,0.004555
87.233,74.8154,0.004555
87.263,74.8357,0.004555
87.294,74.8550,0.004555
87.325,74.8737,0.004555
87.356,74.8918,0.004555
87.386,74.9092,0.004592
87.418,74.9258,0.004592
87.448,74.9413,0.004592
87.479,74.9568,0.004592
87.510,74.9713,0.004592
87.541,74.9852,0.004592
87.572,74.9983,0.004592
87.603,75.0107,0.004611
87.634,75.0220,0.004611
87.666,75.0334,0.004611
87.697,75.0435,0.004611
87.728,75.0530,0.004611
87.759,75.0618,0.004611
87.790,75.0697,0.004611
87.822,75.0770,0.004611
87.851,75.0832,0.004573
87.885,75.0895,0.004573
87.912,75.0940,0.004573
87.944,75.0983,0.004573
87.974,75.1019,0.004573
88.005,75.1047,0.004573
88.035,75.1070,0.004573
88.068,75.1086,0.004573
88.097,75.1092,0.004573
88.133,75.1093,0.004573
88.159,75.1093,0.004573
88.190,75.1093,0.004573
