Elapsed Time (s),Position (mm),Force (N)
-0.014,67.6594,0.004338
0.018,67.6594,0.004338
0.049,67.6594,0.004338
0.080,67.6594,0.004338
0.111,67.6594,0.004338
0.143,67.6594,0.004338
0.173,67.6594,0.004338
0.205,67.6594,0.004272
0.236,67.6594,0.004272
0.267,67.6594,0.004272
0.298,67.6594,0.004272
0.329,67.6594,0.004272
0.360,67.6594,0.004272
0.391,67.6594,0.004272
0.422,67.6594,0.004272
0.454,67.6594,0.004272
0.486,67.6594,0.004272
0.518,67.6594,0.004272
0.549,67.6594,0.004272
0.580,67.6594,0.004272
0.611,67.6594,0.004272
0.642,67.6594,0.004272
0.673,67.6594,0.004272
0.703,67.6594,0.004253
0.734,67.6594,0.004253
0.766,67.6594,0.004253
0.796,67.6594,0.004253
0.828,67.6594,0.004253
0.859,67.6594,0.004253
0.891,67.6594,0.004253
0.921,67.6594,0.004253
0.951,67.6594,0.004235
0.982,67.6594,0.004235
1.013,67.6594,0.004235
1.045,67.6594,0.004235
1.075,67.6594,0.004235
1.107,67.6594,0.004235
1.139,67.6594,0.004235
1.169,67.6594,0.004235
1.201,67.6594,0.004235
1.232,67.6594,0.004253
1.261,67.6594,0.004253
1.293,67.6594,0.004253
1.323,67.6594,0.004253
1.354,67.6594,0.004253
1.385,67.6594,0.004253
1.416,67.6594,0.004253
1.448,67.6594,0.004253
1.478,67.6594,0.004301
1.508,67.6594,0.004301
1.539,67.6594,0.004301
1.569,67.6594,0.004301
1.600,67.6594,0.004301
1.632,67.6594,0.004301
1.663,67.6594,0.004301
1.693,67.6594,0.004301
1.724,67.6594,0.004329
1.755,67.6594,0.004329
1.786,67.6594,0.004329
1.817,67.6594,0.004329
1.848,67.6594,0.004329
1.880,67.6594,0.004329
1.910,67.6594,0.004329
1.941,67.6594,0.004329
1.972,67.6594,0.004329
2.004,67.6594,0.004319
2.033,67.6594,0.004319
2.064,67.6594,0.004319
2.095,67.6594,0.004319
2.126,67.6594,0.004319
2.157,67.6594,0.004319
2.189,67.6594,0.004319
2.219,67.6594,0.004282
2.253,67.6594,0.004282
2.283,67.6594,0.004282
2.314,67.6594,0.004282
2.345,67.6594,0.004282
2.376,67.6594,0.004282
2.407,67.6594,0.004282
2.443,67.6594,0.004282
2.471,67.6594,0.004263
2.501,67.6594,0.004263
2.533,67.6594,0.004263
2.564,67.6594,0.004263
2.595,67.6594,0.004263
2.626,67.6594,0.004263
2.656,67.6594,0.004263
2.688,67.6594,0.004263
2.718,67.6594,0.004244
2.749,67.6594,0.004244
2.780,67.6594,0.004244
2.812,67.6594,0.004244
2.843,67.6594,0.004244
2.874,67.6594,0.004244
2.905,67.6594,0.004244
2.936,67.6594,0.004225
2.967,67.6594,0.004225
2.997,67.6594,0.004225
3.030,67.6594,0.004225
3.059,67.6594,0.004225
3.090,67.6594,0.004225
3.121,67.6594,0.004225
3.152,67.6594,0.004225
3.182,67.6594,0.004225
3.213,67.6594,0.004272
3.244,67.6594,0.004272
3.276,67.6594,0.004272
3.306,67.6594,0.004272
3.338,67.6594,0.004272
3.369,67.6594,0.004272
3.400,67.6594,0.004272
3.430,67.6594,0.004272
3.461,67.6594,0.004272
3.491,67.6594,0.004272
3.521,67.6594,0.004272
3.552,67.6594,0.004272
3.583,67.6594,0.004272
3.613,67.6594,0.004272
3.645,67.6594,0.004272
3.675,67.6594,0.004272
3.707,67.6594,0.004263
3.739,67.6594,0.004263
3.769,67.6594,0.004263
3.801,67.6594,0.004263
3.832,67.6594,0.004263
3.863,67.6594,0.004263
3.896,67.6594,0.004263
3.926,67.6594,0.004263
3.957,67.6594,0.004263
3.989,67.6594,0.004263
4.024,67.6594,0.004263
4.051,67.6594,0.004263
4.083,67.6594,0.004263
4.114,67.6594,0.004263
4.145,67.6589,0.004263
4.176,67.6575,0.004263
4.207,67.6555,0.004263
4.238,67.6529,0.004291
4.269,67.6495,0.004291
4.300,67.6454,0.004291
4.331,67.6404,0.004291
4.362,67.6348,0.004291
4.395,67.6280,0.004291
4.424,67.6213,0.004291
4.456,67.6134,0.004291
4.486,67.6051,0.004413
4.519,67.5950,0.004413
4.547,67.5861,0.004413
4.579,67.5749,0.004413
4.609,67.5642,0.004413
4.639,67.5520,0.004413
4.670,67.5396,0.004413
4.701,67.5260,0.004413
4.732,67.5114,0.004442
4.763,67.4969,0.004442
4.794,67.4807,0.004442
4.825,67.4642,0.004442
4.856,67.4469,0.004442
4.886,67.4296,0.004442
4.917,67.4110,0.004442
4.948,67.3916,0.004348
4.980,67.3709,0.004348
5.010,67.3512,0.004348
5.041,67.3293,0.004348
5.072,67.3068,0.004348
5.102,67.2848,0.004348
5.135,67.2598,0.004348
5.164,67.2362,0.004348
5.196,67.2103,0.004348
5.226,67.1854,0.004348
5.260,67.1567,0.004348
5.288,67.1314,0.004348
5.320,67.1020,0.004348
5.351,67.0736,0.004348
5.382,67.0445,0.004348
5.413,67.0137,0.004348
5.445,66.9813,0.004348
5.476,66.9506,0.004319
5.507,66.9175,0.004319
5.538,66.8841,0.004319
5.569,66.8504,0.004319
5.600,66.8156,0.004319
5.633,66.7771,0.004319
5.663,66.7425,0.004319
5.694,66.7063,0.004319
5.724,66.6700,0.004338
5.755,66.6308,0.004338
5.786,66.5922,0.004338
5.818,66.5512,0.004338
5.848,66.5129,0.004338
5.879,66.4706,0.004338
5.910,66.4296,0.004338
5.941,66.3866,0.004338
5.972,66.3437,0.004348
6.004,66.2976,0.004348
6.035,66.2531,0.004348
6.065,66.2077,0.004348
6.097,66.1612,0.004348
6.127,66.1137,0.004348
6.158,66.0665,0.004348
6.189,66.0185,0.004348
6.220,65.9702,0.004366
6.250,65.9213,0.004366
6.281,65.8713,0.004366
6.312,65.8181,0.004366
6.343,65.7683,0.004366
6.374,65.7141,0.004366
6.404,65.6623,0.004366
6.435,65.6067,0.004366
6.466,65.5533,0.004413
6.497,65.4963,0.004413
6.528,65.4420,0.004413
6.560,65.3809,0.004413
6.590,65.3260,0.004413
6.620,65.2681,0.004413
6.651,65.2093,0.004413
6.682,65.1493,0.004413
6.713,65.0892,0.004385
6.744,65.0288,0.004385
6.775,64.9713,0.004385
6.807,64.9103,0.004385
6.838,64.8541,0.004385
6.870,64.7952,0.004385
6.900,64.7412,0.004385
6.931,64.6845,0.004385
6.962,64.6311,0.004225
6.993,64.5760,0.004225
7.024,64.5234,0.004225
7.056,64.4702,0.004225
7.088,64.4168,0.004225
7.119,64.3647,0.004225
7.149,64.3169,0.004225
7.180,64.2668,0.004225
7.211,64.2183,0.004159
7.242,64.1689,0.004159
7.273,64.1227,0.004159
7.304,64.0755,0.004159
7.334,64.0318,0.004159
7.366,63.9860,0.004159
7.397,63.9418,0.004159
7.428,63.8963,0.004159
7.460,63.8535,0.004159
7.491,63.8113,0.004188
7.522,63.7700,0.004188
7.553,63.7280,0.004188
7.584,63.6884,0.004188
7.615,63.6496,0.004188
7.646,63.6109,0.004188
7.677,63.5737,0.004188
7.708,63.5366,0.004131
7.739,63.5002,0.004131
7.770,63.4639,0.004131
7.800,63.4302,0.004131
7.831,63.3967,0.004131
7.862,63.3622,0.004131
7.894,63.3293,0.004131
7.925,63.2975,0.004131
7.957,63.2651,0.004094
7.988,63.2346,0.004094
8.019,63.2046,0.004094
8.050,63.1753,0.004094
8.081,63.1473,0.004094
8.111,63.1200,0.004094
8.143,63.0931,0.004094
8.173,63.0672,0.004094
8.204,63.0417,0.004094
8.235,63.0172,0.004094
8.266,62.9935,0.004094
8.296,62.9707,0.004094
8.326,62.9485,0.004094
8.358,62.9261,0.004094
8.389,62.9054,0.004094
8.420,62.8848,0.004094
8.451,62.8650,0.004094
8.482,62.8458,0.004094
8.513,62.8272,0.004094
8.545,62.8098,0.004094
8.575,62.7932,0.004094
8.607,62.7773,0.004094
8.638,62.7623,0.004094
8.669,62.7475,0.004094
8.700,62.7338,0.004112
8.731,62.7206,0.004112
8.762,62.7085,0.004112
8.793,62.6967,0.004112
8.824,62.6857,0.004112
8.858,62.6745,0.004112
8.885,62.6664,0.004112
8.916,62.6575,0.004112
8.948,62.6494,0.004131
8.978,62.6423,0.004131
9.010,62.6356,0.004131
9.041,62.6299,0.004131
9.072,62.6245,0.004131
9.104,62.6202,0.004131
9.134,62.6166,0.004131
9.165,62.6137,0.004131
9.196,62.6116,0.004112
9.227,62.6101,0.004112
9.257,62.6095,0.004112
9.289,62.6094,0.004112
9.320,62.6094,0.004112
9.351,62.6094,0.004112
9.383,62.6094,0.004112
9.414,62.6094,0.004112
9.444,62.6101,0.004150
9.475,62.6115,0.004150
9.506,62.6136,0.004150
9.538,62.6166,0.004150
9.568,62.6201,0.004150
9.599,62.6243,0.004150
9.631,62.6292,0.004150
9.661,62.6349,0.004150
9.692,62.6413,0.004150
9.723,62.6485,0.004084
9.754,62.6563,0.004084
9.784,62.6648,0.004084
9.815,62.6740,0.004084
9.847,62.6844,0.004084
9.876,62.6947,0.004084
9.908,62.7064,0.004084
9.939,62.7187,0.004075
9.969,62.7317,0.004075
10.003,62.7467,0.004075
10.031,62.7596,0.004075
10.065,62.7760,0.004075
10.093,62.7906,0.004075
10.124,62.8073,0.004075
10.156,62.8252,0.004075
10.187,62.8434,0.004075
10.218,62.8621,0.004178
10.249,62.8812,0.004178
10.281,62.9031,0.004178
10.311,62.9225,0.004178
10.341,62.9438,0.004178
10.374,62.9672,0.004178
10.407,62.9924,0.004178
10.435,63.0140,0.004178
10.465,63.0380,0.004188
10.497,63.0634,0.004188
10.527,63.0891,0.004188
10.558,63.1161,0.004188
10.588,63.1433,0.004188
10.619,63.1710,0.004188
10.650,63.2001,0.004188
10.681,63.2286,0.004188
10.711,63.2595,0.004141
10.745,63.2926,0.004141
10.775,63.3234,0.004141
10.806,63.3553,0.004141
10.837,63.3894,0.004141
10.867,63.4221,0.004141
10.898,63.4572,0.004141
10.929,63.4926,0.004141
10.960,63.5295,0.004131
10.991,63.5657,0.004131
11.022,63.6028,0.004131
11.052,63.6418,0.004131
11.084,63.6805,0.004131
11.116,63.7224,0.004131
11.147,63.7632,0.004131
11.185,63.8133,0.004131
11.224,63.8666,0.004094
11.256,63.9103,0.004094
11.287,63.9542,0.004094
11.317,63.9983,0.004094
11.349,64.0462,0.004094
11.380,64.0911,0.004094
11.411,64.1377,0.004094
11.442,64.1852,0.004131
11.477,64.2394,0.004131
11.505,64.2851,0.004131
11.536,64.3336,0.004131
11.567,64.3839,0.004131
11.598,64.4350,0.004131
11.629,64.4866,0.004131
11.659,64.5397,0.004131
11.691,64.5928,0.004131
11.722,64.6476,0.004131
11.753,64.7013,0.004131
11.784,64.7569,0.004131
11.815,64.8153,0.004131
11.846,64.8706,0.004131
11.876,64.9278,0.004131
11.907,64.9854,0.004131
11.938,65.0446,0.004103
11.969,65.1044,0.004103
12.000,65.1645,0.004103
12.032,65.2249,0.004103
12.062,65.2813,0.004103
12.093,65.3401,0.004103
12.123,65.3943,0.004103
12.155,65.4537,0.004103
12.185,65.5083,0.004103
12.216,65.5626,0.004235
12.248,65.6194,0.004235
12.279,65.6726,0.004235
12.310,65.7239,0.004235
12.341,65.7762,0.004235
12.372,65.8268,0.004235
12.403,65.8778,0.004235
12.433,65.9268,0.004235
12.464,65.9755,0.004338
12.495,66.0236,0.004338
12.526,66.0715,0.004338
12.557,66.1178,0.004338
12.587,66.1635,0.004338
12.618,66.2087,0.004338
12.649,66.2544,0.004338
12.680,66.2975,0.004338
12.711,66.3406,0.004376
12.742,66.3829,0.004376
12.773,66.4253,0.004376
12.803,66.4656,0.004376
12.834,66.5060,0.004376
12.866,66.5463,0.004376
12.897,66.5853,0.004376
12.928,66.6245,0.004376
12.959,66.6612,0.004376
12.990,66.6978,0.004366
13.021,66.7343,0.004366
13.052,66.7689,0.004366
13.082,66.8031,0.004366
13.113,66.8370,0.004366
13.144,66.8697,0.004366
13.175,66.9021,0.004366
13.205,66.9331,0.004366
13.236,66.9645,0.004404
13.267,66.9950,0.004404
13.298,67.0236,0.004404
13.329,67.0530,0.004404
13.361,67.0815,0.004404
13.392,67.1095,0.004404
13.424,67.1371,0.004404
13.454,67.1618,0.004404
13.485,67.1863,0.004423
13.516,67.2113,0.004423
13.547,67.2346,0.004423
13.578,67.2582,0.004423
13.609,67.2801,0.004423
13.641,67.3023,0.004423
13.671,67.3223,0.004423
13.702,67.3425,0.004423
13.733,67.3618,0.004366
13.765,67.3811,0.004366
13.794,67.3978,0.004366
13.825,67.4153,0.004366
13.856,67.4315,0.004366
13.892,67.4497,0.004366
13.919,67.4623,0.004366
13.950,67.4767,0.004366
13.981,67.4902,0.004348
14.012,67.5030,0.004348
14.045,67.5164,0.004348
14.073,67.5263,0.004348
14.104,67.5372,0.004348
14.134,67.5465,0.004348
14.165,67.5559,0.004348
14.197,67.5642,0.004348
14.228,67.5722,0.004385
14.259,67.5790,0.004385
14.290,67.5853,0.004385
14.320,67.5908,0.004385
14.351,67.5955,0.004385
14.381,67.5996,0.004385
14.412,67.6029,0.004385
14.444,67.6058,0.004376
14.474,67.6077,0.004376
14.504,67.6089,0.004376
14.534,67.6094,0.004376
14.565,67.6094,0.004376
14.596,67.6094,0.004376
14.627,67.6094,0.004376
14.659,67.6094,0.004376
14.690,67.6094,0.004376
14.720,67.6094,0.004282
14.750,67.6094,0.004282
14.781,67.6094,0.004282
14.812,67.6094,0.004282
14.844,67.6094,0.004282
14.874,67.6094,0.004282
14.905,67.6094,0.004282
14.937,67.6094,0.004263
14.968,67.6094,0.004263
15.000,67.6094,0.004263
15.031,67.6094,0.004263
15.063,67.6094,0.004263
15.093,67.6094,0.004263
15.124,67.6094,0.004263
15.155,67.6094,0.004263
15.185,67.6094,0.004282
15.217,67.6094,0.004282
15.248,67.6094,0.004282
15.280,67.6094,0.004282
15.311,67.6094,0.004282
15.341,67.6094,0.004282
15.372,67.6094,0.004282
15.403,67.6094,0.004282
15.434,67.6094,0.004282
15.466,67.6094,0.004235
15.497,67.6094,0.004235
15.528,67.6094,0.004235
15.559,67.6094,0.004235
15.591,67.6094,0.004235
15.622,67.6094,0.004235
15.653,67.6094,0.004235
15.684,67.6094,0.004235
15.715,67.6094,0.004235
15.745,67.6094,0.004235
15.777,67.6094,0.004235
15.808,67.6094,0.004235
15.839,67.6094,0.004235
15.870,67.6094,0.004235
15.901,67.6094,0.004235
15.932,67.6094,0.004235
15.963,67.6094,0.004225
15.995,67.6094,0.004225
16.027,67.6094,0.004225
16.058,67.6094,0.004225
16.089,67.6094,0.004225
16.119,67.6094,0.004225
16.150,67.6094,0.004225
16.181,67.6094,0.004225
16.211,67.6094,0.004225
16.242,67.6094,0.004225
16.274,67.6094,0.004225
16.304,67.6094,0.004225
16.336,67.6094,0.004225
16.366,67.6094,0.004225
16.398,67.6094,0.004225
16.429,67.6094,0.004225
16.463,67.6094,0.004225
16.492,67.6094,0.004272
16.522,67.6094,0.004272
16.553,67.6094,0.004272
16.584,67.6094,0.004272
16.614,67.6094,0.004272
16.650,67.6094,0.004272
16.676,67.6094,0.004272
16.708,67.6094,0.004272
16.738,67.6094,0.004225
16.773,67.6094,0.004225
16.800,67.6094,0.004225
16.832,67.6094,0.004225
16.863,67.6094,0.004225
16.894,67.6094,0.004225
16.924,67.6094,0.004225
16.955,67.6094,0.004197
16.986,67.6094,0.004197
17.020,67.6094,0.004197
17.048,67.6094,0.004197
17.079,67.6094,0.004197
17.109,67.6094,0.004197
17.141,67.6094,0.004197
17.172,67.6094,0.004197
17.205,67.6094,0.004225
17.234,67.6094,0.004225
17.264,67.6094,0.004225
17.297,67.6094,0.004225
17.327,67.6094,0.004225
17.359,67.6094,0.004225
17.390,67.6094,0.004225
17.421,67.6094,0.004225
17.451,67.6094,0.004225
17.483,67.6094,0.004235
17.513,67.6094,0.004235
17.544,67.6094,0.004235
17.575,67.6094,0.004235
17.605,67.6094,0.004235
17.637,67.6094,0.004235
17.668,67.6094,0.004235
17.699,67.6094,0.004235
17.729,67.6094,0.004291
17.755,67.6094,0.004291
17.791,67.6094,0.004291
17.823,67.6094,0.004291
17.854,67.6094,0.004291
17.886,67.6094,0.004291
17.916,67.6094,0.004291
17.947,67.6094,0.004291
17.977,67.6094,0.004253
18.008,67.6094,0.004253
18.040,67.6094,0.004253
18.072,67.6094,0.004253
18.102,67.6094,0.004253
18.133,67.6094,0.004253
18.164,67.6094,0.004253
18.196,67.6094,0.004253
18.228,67.6094,0.004159
18.259,67.6094,0.004159
18.289,67.6094,0.004159
18.320,67.6094,0.004159
18.352,67.6094,0.004159
18.383,67.6094,0.004159
18.414,67.6094,0.004159
18.445,67.6094,0.004159
18.475,67.6094,0.004206
18.506,67.6094,0.004206
18.536,67.6094,0.004206
18.567,67.6094,0.004206
18.599,67.6094,0.004206
18.630,67.6094,0.004206
18.661,67.6094,0.004206
18.692,67.6094,0.004244
18.723,67.6094,0.004244
18.754,67.6094,0.004244
18.784,67.6094,0.004244
18.815,67.6094,0.004244
18.846,67.6093,0.004244
18.878,67.6085,0.004244
18.909,67.6070,0.004244
18.940,67.6048,0.004263
18.971,67.6020,0.004263
19.002,67.5982,0.004263
19.033,67.5939,0.004263
19.064,67.5887,0.004263
19.095,67.5829,0.004263
19.126,67.5763,0.004263
19.157,67.5688,0.004263
19.188,67.5609,0.004338
19.221,67.5516,0.004338
19.251,67.5422,0.004338
19.281,67.5324,0.004338
19.312,67.5215,0.004338
19.343,67.5098,0.004338
19.374,67.4976,0.004338
19.405,67.4841,0.004338
19.436,67.4706,0.004366
19.468,67.4555,0.004366
19.501,67.4389,0.004366
19.529,67.4248,0.004366
19.559,67.4084,0.004366
19.590,67.3907,0.004366
19.621,67.3728,0.004366
19.652,67.3534,0.004366
19.684,67.3338,0.004366
19.714,67.3132,0.004338
19.744,67.2933,0.004338
19.774,67.2722,0.004338
19.805,67.2495,0.004338
19.835,67.2276,0.004338
19.866,67.2031,0.004338
19.897,67.1778,0.004338
19.929,67.1529,0.004338
19.960,67.1262,0.004338
19.991,67.1002,0.004338
20.022,67.0719,0.004338
20.052,67.0441,0.004338
20.084,67.0147,0.004338
20.114,66.9861,0.004338
20.145,66.9549,0.004338
20.176,66.9243,0.004338
20.208,66.8912,0.004338
20.238,66.8597,0.004357
20.269,66.8254,0.004357
20.300,66.7920,0.004357
20.331,66.7560,0.004357
20.362,66.7214,0.004357
20.394,66.6836,0.004357
20.425,66.6471,0.004357
20.455,66.6104,0.004357
20.487,66.5713,0.004376
20.518,66.5306,0.004376
20.549,66.4906,0.004376
20.581,66.4483,0.004376
20.612,66.4087,0.004376
20.643,66.3656,0.004376
20.674,66.3239,0.004376
20.705,66.2790,0.004376
20.736,66.2360,0.004376
20.766,66.1901,0.004376
20.798,66.1443,0.004376
20.830,66.0958,0.004376
20.861,66.0498,0.004376
20.890,66.0022,0.004376
20.922,65.9543,0.004376
20.954,65.9026,0.004376
20.985,65.8528,0.004385
21.016,65.8011,0.004385
21.046,65.7510,0.004385
21.078,65.6968,0.004385
21.109,65.6452,0.004385
21.139,65.5910,0.004385
21.171,65.5349,0.004385
21.202,65.4803,0.004385
21.234,65.4232,0.004376
21.264,65.3675,0.004376
21.296,65.3086,0.004376
21.326,65.2515,0.004376
21.358,65.1916,0.004376
21.391,65.1287,0.004376
21.420,65.0714,0.004376
21.451,65.0115,0.004376
21.482,64.9508,0.004366
21.513,64.8922,0.004366
21.545,64.8334,0.004366
21.575,64.7771,0.004366
21.610,64.7138,0.004366
21.639,64.6630,0.004366
21.669,64.6080,0.004366
21.701,64.5540,0.004366
21.734,64.4967,0.004244
21.762,64.4480,0.004244
21.792,64.3973,0.004244
21.824,64.3446,0.004244
21.855,64.2939,0.004244
21.886,64.2453,0.004244
21.916,64.1964,0.004244
21.948,64.1477,0.004244
21.979,64.0999,0.004065
22.010,64.0526,0.004065
22.040,64.0073,0.004065
22.073,63.9598,0.004065
22.103,63.9166,0.004065
22.133,63.8726,0.004065
22.164,63.8294,0.004065
22.195,63.7876,0.004046
22.225,63.7466,0.004046
22.256,63.7044,0.004046
22.284,63.6688,0.004046
22.318,63.6240,0.004046
22.349,63.5858,0.004046
22.380,63.5473,0.004046
22.410,63.5105,0.004046
22.441,63.4741,0.004122
22.472,63.4386,0.004122
22.503,63.4026,0.004122
22.534,63.3679,0.004122
22.566,63.3336,0.004122
22.596,63.3016,0.004122
22.628,63.2676,0.004122
22.658,63.2372,0.004122
22.689,63.2059,0.004122
22.719,63.1768,0.004178
22.751,63.1459,0.004178
22.782,63.1171,0.004178
22.809,63.0926,0.004178
22.844,63.0619,0.004178
22.874,63.0358,0.004178
22.905,63.0095,0.004178
22.936,62.9848,0.004178
22.968,62.9591,0.004169
22.999,62.9362,0.004169
23.030,62.9129,0.004169
23.061,62.8903,0.004169
23.092,62.8690,0.004169
23.123,62.8478,0.004169
23.153,62.8283,0.004169
23.185,62.8083,0.004169
23.216,62.7896,0.004150
23.248,62.7712,0.004150
23.278,62.7546,0.004150
23.310,62.7375,0.004150
23.340,62.7220,0.004150
23.372,62.7066,0.004150
23.403,62.6927,0.004150
23.434,62.6785,0.004112
23.464,62.6663,0.004112
23.496,62.6539,0.004112
23.529,62.6419,0.004112
23.558,62.6318,0.004112
23.589,62.6218,0.004112
23.619,62.6132,0.004112
23.650,62.6047,0.004112
23.681,62.5969,0.004112
23.712,62.5899,0.004159
23.743,62.5836,0.004159
23.774,62.5780,0.004159
23.805,62.5732,0.004159
23.836,62.5690,0.004159
23.867,62.5656,0.004159
23.900,62.5628,0.004159
23.930,62.5609,0.004159
23.962,62.5598,0.004150
23.992,62.5593,0.004150
24.023,62.5593,0.004150
24.054,62.5593,0.004150
24.085,62.5593,0.004150
24.116,62.5593,0.004150
24.146,62.5593,0.004150
24.177,62.5598,0.004150
24.209,62.5610,0.004169
24.240,62.5630,0.004169
24.271,62.5656,0.004169
24.302,62.5691,0.004169
24.334,62.5733,0.004169
24.365,62.5783,0.004169
24.397,62.5838,0.004169
24.427,62.5902,0.004169
24.458,62.5970,0.004169
24.488,62.6048,0.004122
24.518,62.6129,0.004122
24.549,62.6223,0.004122
24.580,62.6320,0.004122
24.612,62.6429,0.004122
24.643,62.6543,0.004122
24.673,62.6662,0.004122
24.706,62.6796,0.004122
24.736,62.6927,0.004094
24.766,62.7071,0.004094
24.797,62.7215,0.004094
24.829,62.7380,0.004094
24.860,62.7544,0.004094
24.891,62.7720,0.004094
24.921,62.7891,0.004094
24.952,62.8079,0.004094
24.982,62.8266,0.004159
25.013,62.8470,0.004159
25.044,62.8676,0.004159
25.078,62.8913,0.004159
25.107,62.9116,0.004159
25.138,62.9352,0.004159
25.169,62.9589,0.004159
25.202,62.9846,0.004159
25.232,63.0096,0.004112
25.264,63.0365,0.004112
25.293,63.0612,0.004112
25.324,63.0882,0.004112
25.355,63.1166,0.004112
25.390,63.1494,0.004112
25.417,63.1744,0.004112
25.448,63.2056,0.004112
25.478,63.2352,0.004112
25.509,63.2673,0.004169
25.540,63.2993,0.004169
25.572,63.3341,0.004169
25.603,63.3675,0.004169
25.634,63.4033,0.004169
25.665,63.4372,0.004169
25.700,63.4779,0.004169
25.728,63.5118,0.004169
25.760,63.5506,0.004169
25.790,63.5879,0.004169
25.823,63.6290,0.004169
25.854,63.6693,0.004169
25.885,63.7100,0.004169
25.915,63.7488,0.004169
25.946,63.7910,0.004169
25.976,63.8331,0.004112
26.007,63.8767,0.004112
26.038,63.9204,0.004112
26.069,63.9657,0.004112
26.100,64.0106,0.004112
26.131,64.0569,0.004112
26.162,64.1040,0.004112
26.193,64.1519,0.004112
26.225,64.2022,0.004141
26.256,64.2507,0.004141
26.286,64.2992,0.004141
26.321,64.3561,0.004141
26.348,64.4017,0.004141
26.379,64.4549,0.004141
26.411,64.5082,0.004141
26.441,64.5610,0.004141
26.472,64.6147,0.004150
26.503,64.6687,0.004150
26.533,64.7234,0.004150
26.564,64.7794,0.004150
26.595,64.8368,0.004150
26.626,64.8945,0.004150
26.656,64.9519,0.004150
26.687,65.0118,0.004150
26.719,65.0722,0.004178
26.749,65.1320,0.004178
26.781,65.1913,0.004178
26.812,65.2521,0.004178
26.842,65.3066,0.004178
26.876,65.3683,0.004178
26.904,65.4205,0.004178
26.937,65.4784,0.004178
26.967,65.5311,0.004253
26.999,65.5863,0.004253
27.029,65.6378,0.004253
27.060,65.6912,0.004253
27.091,65.7421,0.004253
27.122,65.7929,0.004253
27.155,65.8489,0.004253
27.184,65.8929,0.004253
27.215,65.9431,0.004366
27.246,65.9906,0.004366
27.278,66.0399,0.004366
27.309,66.0868,0.004366
27.340,66.1335,0.004366
27.373,66.1804,0.004366
27.403,66.2241,0.004366
27.434,66.2663,0.004423
27.465,66.3112,0.004423
27.496,66.3525,0.004423
27.527,66.3930,0.004423
27.557,66.4334,0.004423
27.589,66.4743,0.004423
27.620,66.5133,0.004423
27.651,66.5518,0.004423
27.682,66.5900,0.004395
27.713,66.6274,0.004395
27.744,66.6637,0.004395
27.774,66.6989,0.004395
27.805,66.7340,0.004395
27.836,66.7680,0.004395
27.867,66.8019,0.004395
27.898,66.8341,0.004395
27.930,66.8670,0.004395
27.961,66.8984,0.004348
27.992,66.9300,0.004348
28.023,66.9598,0.004348
28.054,66.9892,0.004348
28.085,67.0174,0.004348
28.116,67.0446,0.004348
28.149,67.0731,0.004348
28.179,67.0988,0.004348
28.208,67.1230,0.004395
28.241,67.1494,0.004395
28.271,67.1726,0.004395
28.301,67.1953,0.004395
28.333,67.2182,0.004395
28.364,67.2405,0.004395
28.395,67.2621,0.004395
28.426,67.2823,0.004395
28.458,67.3026,0.004423
28.488,67.3209,0.004423
28.519,67.3394,0.004423
28.550,67.3563,0.004423
28.581,67.3735,0.004423
28.611,67.3890,0.004423
28.643,67.4051,0.004423
28.673,67.4189,0.004423
28.706,67.4345,0.004376
28.736,67.4463,0.004376
28.766,67.4583,0.004376
28.798,67.4706,0.004376
28.829,67.4815,0.004376
28.860,67.4921,0.004376
28.891,67.5014,0.004376
28.922,67.5104,0.004376
28.955,67.5189,0.004357
28.985,67.5258,0.004357
29.018,67.5330,0.004357
29.046,67.5382,0.004357
29.080,67.5438,0.004357
29.107,67.5478,0.004357
29.138,67.5515,0.004357
29.170,67.5545,0.004357
29.201,67.5568,0.004357
29.232,67.5583,0.004338
29.263,67.5592,0.004338
29.294,67.5593,0.004338
29.322,67.5593,0.004338
29.356,67.5593,0.004338
29.387,67.5593,0.004338
29.419,67.5593,0.004338
29.452,67.5593,0.004338
29.481,67.5593,0.004338
29.512,67.5593,0.004338
29.543,67.5593,0.004338
29.574,67.5593,0.004338
29.604,67.5593,0.004338
29.636,67.5593,0.004338
29.666,67.5593,0.004338
29.697,67.5593,0.004338
29.728,67.5593,0.004319
29.758,67.5593,0.004319
29.788,67.5593,0.004319
29.819,67.5593,0.004319
29.850,67.5593,0.004319
29.881,67.5593,0.004319
29.912,67.5593,0.004319
29.943,67.5593,0.004319
29.974,67.5593,0.004263
30.004,67.5593,0.004263
30.035,67.5593,0.004263
30.066,67.5593,0.004263
30.097,67.5593,0.004263
30.128,67.5593,0.004263
30.159,67.5593,0.004263
30.190,67.5593,0.004263
30.221,67.5593,0.004272
30.252,67.5593,0.004272
30.284,67.5593,0.004272
30.316,67.5593,0.004272
30.347,67.5593,0.004272
30.378,67.5593,0.004272
30.409,67.5593,0.004272
30.439,67.5593,0.004272
30.470,67.5593,0.004263
30.502,67.5593,0.004263
30.533,67.5593,0.004263
30.563,67.5593,0.004263
30.594,67.5593,0.004263
30.625,67.5593,0.004263
30.655,67.5593,0.004263
30.686,67.5593,0.004263
30.716,67.5593,0.004206
30.748,67.5593,0.004206
30.779,67.5593,0.004206
30.810,67.5593,0.004206
30.841,67.5593,0.004206
30.873,67.5593,0.004206
30.905,67.5593,0.004206
30.931,67.5593,0.004206
30.966,67.5593,0.004235
30.996,67.5593,0.004235
31.028,67.5593,0.004235
31.062,67.5593,0.004235
31.091,67.5593,0.004235
31.122,67.5593,0.004235
31.154,67.5593,0.004235
31.188,67.5593,0.004235
31.217,67.5593,0.004235
31.247,67.5593,0.004319
31.278,67.5593,0.004319
31.310,67.5593,0.004319
31.341,67.5593,0.004319
31.372,67.5593,0.004319
31.402,67.5593,0.004319
31.433,67.5593,0.004319
31.465,67.5593,0.004301
31.495,67.5593,0.004301
31.526,67.5593,0.004301
31.558,67.5593,0.004301
31.589,67.5593,0.004301
31.620,67.5593,0.004301
31.650,67.5593,0.004301
31.681,67.5593,0.004301
31.712,67.5593,0.004301
31.744,67.5593,0.004235
31.774,67.5593,0.004235
31.805,67.5593,0.004235
31.836,67.5593,0.004235
31.866,67.5593,0.004235
31.898,67.5593,0.004235
31.929,67.5593,0.004235
31.959,67.5593,0.004235
31.990,67.5593,0.004244
32.023,67.5593,0.004244
32.056,67.5593,0.004244
32.084,67.5593,0.004244
32.115,67.5593,0.004244
32.145,67.5593,0.004244
32.176,67.5593,0.004244
32.207,67.5593,0.004282
32.245,67.5593,0.004282
32.286,67.5593,0.004282
32.318,67.5593,0.004282
32.349,67.5593,0.004282
32.381,67.5593,0.004282
32.412,67.5593,0.004282
32.443,67.5593,0.004282
32.474,67.5593,0.004225
32.506,67.5593,0.004225
32.537,67.5593,0.004225
32.568,67.5593,0.004225
32.599,67.5593,0.004225
32.630,67.5593,0.004225
32.661,67.5593,0.004225
32.692,67.5593,0.004235
32.723,67.5593,0.004235
32.755,67.5593,0.004235
32.785,67.5593,0.004235
32.816,67.5593,0.004235
32.847,67.5593,0.004235
32.878,67.5593,0.004235
32.909,67.5593,0.004235
32.941,67.5593,0.004235
32.972,67.5593,0.004216
33.004,67.5593,0.004216
33.035,67.5593,0.004216
33.065,67.5593,0.004216
33.097,67.5593,0.004216
33.129,67.5593,0.004216
33.159,67.5593,0.004216
33.191,67.5593,0.004216
33.222,67.5593,0.004225
33.253,67.5593,0.004225
33.285,67.5593,0.004225
33.315,67.5593,0.004225
33.345,67.5593,0.004225
33.376,67.5593,0.004225
33.408,67.5593,0.004225
33.445,67.5593,0.004225
33.486,67.5593,0.004272
33.517,67.5593,0.004272
33.548,67.5592,0.004272
33.579,67.5584,0.004272
33.611,67.5568,0.004272
33.644,67.5545,0.004272
33.673,67.5516,0.004272
33.703,67.5480,0.004282
33.734,67.5435,0.004282
33.767,67.5380,0.004282
33.796,67.5326,0.004282
33.829,67.5257,0.004282
33.860,67.5182,0.004282
33.892,67.5096,0.004282
33.921,67.5017,0.004282
33.952,67.4922,0.004357
33.984,67.4816,0.004357
34.017,67.4695,0.004357
34.046,67.4590,0.004357
34.076,67.4467,0.004357
34.107,67.4337,0.004357
34.138,67.4198,0.004357
34.169,67.4050,0.004357
34.199,67.3902,0.004357
34.230,67.3744,0.004376
34.265,67.3548,0.004376
34.293,67.3395,0.004376
34.325,67.3204,0.004376
34.357,67.3012,0.004376
34.387,67.2818,0.004376
34.418,67.2614,0.004376
34.449,67.2401,0.004376
34.480,67.2177,0.004385
34.510,67.1959,0.004385
34.541,67.1730,0.004385
34.572,67.1488,0.004385
34.603,67.1241,0.004385
34.634,67.0984,0.004385
34.665,67.0730,0.004385
34.696,67.0451,0.004385
34.726,67.0184,0.004413
34.757,66.9892,0.004413
34.789,66.9605,0.004413
34.820,66.9297,0.004413
34.850,66.9005,0.004413
34.887,66.8625,0.004413
34.928,66.8207,0.004413
34.959,66.7869,0.004319
34.989,66.7539,0.004319
35.020,66.7188,0.004319
35.052,66.6838,0.004319
35.083,66.6471,0.004319
35.114,66.6104,0.004319
35.145,66.5728,0.004319
35.176,66.5337,0.004319
35.207,66.4960,0.004319
35.238,66.4556,0.004329
35.269,66.4157,0.004329
35.300,66.3736,0.004329
35.331,66.3313,0.004329
35.363,66.2880,0.004329
35.394,66.2460,0.004329
35.424,66.2009,0.004329
35.456,66.1557,0.004366
35.488,66.1085,0.004366
35.520,66.0610,0.004366
35.550,66.0161,0.004366
35.581,65.9684,0.004366
35.612,65.9198,0.004366
35.643,65.8697,0.004366
35.673,65.8212,0.004366
35.704,65.7707,0.004366
35.735,65.7210,0.004366
35.765,65.6681,0.004395
35.796,65.6175,0.004395
35.828,65.5615,0.004395
35.858,65.5096,0.004395
35.888,65.4539,0.004395
35.920,65.3995,0.004395
35.951,65.3419,0.004376
35.983,65.2828,0.004376
36.014,65.2252,0.004376
36.045,65.1661,0.004376
36.076,65.1033,0.004376
36.106,65.0486,0.004376
36.137,64.9895,0.004376
36.168,64.9281,0.004376
36.200,64.8686,0.004376
36.230,64.8112,0.004291
36.261,64.7549,0.004291
36.291,64.6996,0.004291
36.322,64.6435,0.004291
36.353,64.5886,0.004291
36.384,64.5340,0.004291
36.415,64.4789,0.004291
36.446,64.4270,0.004291
36.477,64.3744,0.004206
36.508,64.3224,0.004206
36.539,64.2718,0.004206
36.575,64.2136,0.004206
36.615,64.1473,0.004206
36.648,64.0984,0.004206
36.679,64.0493,0.004206
36.710,64.0027,0.004178
36.741,63.9568,0.004178
36.773,63.9095,0.004178
36.804,63.8655,0.004178
36.835,63.8212,0.004178
36.864,63.7803,0.004178
36.897,63.7353,0.004178
36.928,63.6926,0.004178
36.958,63.6530,0.004197
36.989,63.6131,0.004197
37.020,63.5726,0.004197
37.052,63.5329,0.004197
37.084,63.4933,0.004197
37.115,63.4563,0.004197
37.146,63.4189,0.004197
37.176,63.3840,0.004197
37.207,63.3484,0.004197
37.238,63.3145,0.004103
37.269,63.2799,0.004103
37.300,63.2477,0.004103
37.332,63.2141,0.004103
37.364,63.1819,0.004103
37.397,63.1480,0.004103
37.426,63.1199,0.004103
37.457,63.0905,0.004103
37.488,63.0624,0.004112
37.520,63.0333,0.004112
37.551,63.0060,0.004112
37.582,62.9791,0.004112
37.614,62.9532,0.004112
37.645,62.9273,0.004112
37.676,62.9033,0.004112
37.707,62.8796,0.004112
37.738,62.8572,0.004178
37.770,62.8346,0.004178
37.801,62.8127,0.004178
37.831,62.7924,0.004178
37.862,62.7731,0.004178
37.892,62.7540,0.004178
37.923,62.7354,0.004178
37.954,62.7182,0.004159
37.986,62.7003,0.004159
38.016,62.6843,0.004159
38.049,62.6676,0.004159
38.078,62.6542,0.004159
38.109,62.6400,0.004159
38.139,62.6268,0.004159
38.171,62.6139,0.004159
38.201,62.6022,0.004084
38.232,62.5910,0.004084
38.262,62.5806,0.004084
38.294,62.5703,0.004084
38.325,62.5616,0.004084
38.355,62.5532,0.004084
38.387,62.5454,0.004084
38.419,62.5383,0.004084
38.451,62.5322,0.004084
38.482,62.5267,0.004056
38.513,62.5221,0.004056
38.544,62.5181,0.004056
38.575,62.5149,0.004056
38.606,62.5124,0.004056
38.637,62.5107,0.004056
38.668,62.5095,0.004056
38.699,62.5093,0.004112
38.731,62.5093,0.004112
38.761,62.5093,0.004112
38.792,62.5093,0.004112
38.822,62.5093,0.004112
38.855,62.5097,0.004112
38.885,62.5107,0.004112
38.916,62.5124,0.004112
38.946,62.5148,0.004197
38.978,62.5181,0.004197
39.009,62.5221,0.004197
39.040,62.5268,0.004197
39.071,62.5320,0.004197
39.101,62.5382,0.004197
39.133,62.5450,0.004197
39.163,62.5527,0.004197
39.195,62.5610,0.004206
39.225,62.5698,0.004206
39.255,62.5791,0.004206
39.286,62.5899,0.004206
39.317,62.6010,0.004206
39.349,62.6132,0.004206
39.380,62.6256,0.004206
39.411,62.6392,0.004206
39.442,62.6532,0.004122
39.473,62.6683,0.004122
39.503,62.6832,0.004122
39.534,62.6997,0.004122
39.565,62.7160,0.004122
39.596,62.7342,0.004122
39.627,62.7523,0.004122
39.658,62.7720,0.004122
39.689,62.7913,0.004122
39.719,62.8119,0.004103
39.750,62.8326,0.004103
39.782,62.8557,0.004103
39.813,62.8784,0.004103
39.844,62.9026,0.004103
39.876,62.9269,0.004103
39.906,62.9514,0.004103
39.936,62.9766,0.004103
39.968,63.0037,0.004056
39.999,63.0302,0.004056
40.030,63.0582,0.004056
40.061,63.0876,0.004056
40.093,63.1171,0.004056
40.124,63.1475,0.004056
40.154,63.1773,0.004056
40.185,63.2097,0.004056
40.215,63.2407,0.004084
40.247,63.2740,0.004084
40.277,63.3074,0.004084
40.313,63.3471,0.004084
40.340,63.3780,0.004084
40.372,63.4144,0.004084
40.403,63.4511,0.004084
40.436,63.4908,0.004084
40.466,63.5283,0.004122
40.497,63.5675,0.004122
40.528,63.6055,0.004122
40.558,63.6452,0.004122
40.589,63.6857,0.004122
40.624,63.7344,0.004122
40.650,63.7694,0.004122
40.681,63.8134,0.004122
40.712,63.8558,0.004122
40.743,63.9011,0.004122
40.774,63.9466,0.004122
40.806,63.9935,0.004122
40.836,64.0400,0.004122
40.867,64.0882,0.004122
40.898,64.1354,0.004122
40.928,64.1821,0.004122
40.960,64.2334,0.004150
40.991,64.2846,0.004150
41.021,64.3347,0.004150
41.058,64.3962,0.004150
41.098,64.4640,0.004150
41.130,64.5190,0.004150
41.161,64.5732,0.004150
41.191,64.6276,0.004150
41.224,64.6865,0.004141
41.254,64.7420,0.004141
41.286,64.8011,0.004141
41.316,64.8582,0.004141
41.347,64.9159,0.004141
41.378,64.9761,0.004141
41.409,65.0353,0.004141
41.440,65.0959,0.004122
41.471,65.1543,0.004122
41.506,65.2203,0.004122
41.534,65.2707,0.004122
41.565,65.3284,0.004122
41.596,65.3842,0.004122
41.629,65.4439,0.004122
41.658,65.4932,0.004122
41.689,65.5484,0.004122
41.720,65.6011,0.004122
41.751,65.6529,0.004319
41.781,65.7035,0.004319
41.815,65.7591,0.004319
41.842,65.8036,0.004319
41.874,65.8540,0.004319
41.904,65.9013,0.004319
41.938,65.9544,0.004319
41.967,65.9967,0.004376
42.000,66.0482,0.004376
42.029,66.0896,0.004376
42.061,66.1361,0.004376
42.092,66.1816,0.004376
42.124,66.2258,0.004376
42.153,66.2652,0.004376
42.183,66.3063,0.004376
42.214,66.3482,0.004348
42.245,66.3885,0.004348
42.275,66.4283,0.004348
42.307,66.4675,0.004348
42.337,66.5068,0.004348
42.368,66.5437,0.004348
42.400,66.5819,0.004348
42.431,66.6177,0.004348
42.461,66.6532,0.004357
42.492,66.6874,0.004357
42.523,66.7215,0.004357
42.554,66.7556,0.004357
42.585,66.7884,0.004357
42.616,66.8211,0.004357
42.648,66.8517,0.004357
42.679,66.8832,0.004357
42.710,66.9128,0.004357
42.741,66.9424,0.004329
42.773,66.9710,0.004329
42.804,66.9983,0.004329
42.834,67.0249,0.004329
42.866,67.0523,0.004329
42.896,67.0766,0.004329
42.932,67.1052,0.004329
42.959,67.1261,0.004432
42.989,67.1489,0.004432
43.020,67.1703,0.004432
43.049,67.1921,0.004432
43.080,67.2134,0.004432
43.117,67.2373,0.004432
43.158,67.2627,0.004432
43.189,67.2811,0.004432
43.219,67.2988,0.004385
43.250,67.3156,0.004385
43.281,67.3322,0.004385
43.313,67.3478,0.004385
43.344,67.3631,0.004385
43.375,67.3773,0.004385
43.407,67.3912,0.004385
43.438,67.4038,0.004319
43.469,67.4159,0.004319
43.499,67.4268,0.004319
43.531,67.4377,0.004319
43.562,67.4478,0.004319
43.593,67.4567,0.004319
43.624,67.4652,0.004319
43.655,67.4728,0.004319
43.687,67.4799,0.004338
43.718,67.4860,0.004338
43.749,67.4916,0.004338
43.780,67.4963,0.004338
43.814,67.5006,0.004338
43.842,67.5035,0.004338
43.872,67.5060,0.004338
43.905,67.5079,0.004338
43.934,67.5089,0.004319
43.965,67.5093,0.004319
43.997,67.5093,0.004319
44.030,67.5093,0.004319
44.059,67.5093,0.004319
44.090,67.5093,0.004319
44.121,67.5093,0.004319
44.152,67.5093,0.004319
44.182,67.5093,0.004357
44.214,67.5093,0.004357
44.245,67.5093,0.004357
44.275,67.5093,0.004357
44.307,67.5093,0.004357
44.338,67.5093,0.004357
44.369,67.5093,0.004357
44.400,67.5093,0.004357
44.432,67.5093,0.004357
44.463,67.5093,0.004291
44.493,67.5093,0.004291
44.528,67.5093,0.004291
44.555,67.5093,0.004291
44.586,67.5093,0.004291
44.616,67.5093,0.004291
44.646,67.5093,0.004291
44.678,67.5093,0.004291
44.708,67.5093,0.004291
44.739,67.5093,0.004263
44.770,67.5093,0.004263
44.801,67.5093,0.004263
44.832,67.5093,0.004263
44.863,67.5093,0.004263
44.894,67.5093,0.004263
44.925,67.5093,0.004263
44.956,67.5093,0.004263
44.986,67.5093,0.004291
45.018,67.5093,0.004291
45.049,67.5093,0.004291
45.080,67.5093,0.004291
45.111,67.5093,0.004291
45.142,67.5093,0.004291
45.173,67.5093,0.004291
45.204,67.5093,0.004291
45.235,67.5093,0.004263
45.266,67.5093,0.004263
45.298,67.5093,0.004263
45.329,67.5093,0.004263
45.360,67.5093,0.004263
45.392,67.5093,0.004263
45.422,67.5093,0.004263
45.454,67.5093,0.004263
45.485,67.5093,0.004310
45.515,67.5093,0.004310
45.545,67.5093,0.004310
45.577,67.5093,0.004310
45.608,67.5093,0.004310
45.639,67.5093,0.004310
45.670,67.5093,0.004310
45.701,67.5093,0.004310
45.732,67.5093,0.004301
45.763,67.5093,0.004301
45.796,67.5093,0.004301
45.826,67.5093,0.004301
45.857,67.5093,0.004301
45.887,67.5093,0.004301
45.917,67.5093,0.004301
45.949,67.5093,0.004225
45.983,67.5093,0.004225
46.010,67.5093,0.004225
46.041,67.5093,0.004225
46.072,67.5093,0.004225
46.103,67.5093,0.004225
46.134,67.5093,0.004225
46.165,67.5093,0.004225
46.196,67.5093,0.004225
46.226,67.5093,0.004235
46.256,67.5093,0.004235
46.289,67.5093,0.004235
46.319,67.5093,0.004235
46.349,67.5093,0.004235
46.381,67.5093,0.004235
46.411,67.5093,0.004235
46.442,67.5093,0.004235
46.473,67.5093,0.004235
46.503,67.5093,0.004282
46.534,67.5093,0.004282
46.565,67.5093,0.004282
46.596,67.5093,0.004282
46.627,67.5093,0.004282
46.657,67.5093,0.004282
46.692,67.5093,0.004282
46.720,67.5093,0.004329
46.751,67.5093,0.004329
46.781,67.5093,0.004329
46.811,67.5093,0.004329
46.841,67.5093,0.004329
46.872,67.5093,0.004329
46.903,67.5093,0.004329
46.934,67.5093,0.004329
46.966,67.5093,0.004338
46.998,67.5093,0.004338
47.029,67.5093,0.004338
47.060,67.5093,0.004338
47.094,67.5093,0.004338
47.122,67.5093,0.004338
47.153,67.5093,0.004338
47.184,67.5093,0.004338
47.215,67.5093,0.004329
47.245,67.5093,0.004329
47.276,67.5093,0.004329
47.308,67.5093,0.004329
47.338,67.5093,0.004329
47.369,67.5093,0.004329
47.400,67.5093,0.004329
47.431,67.5093,0.004329
47.463,67.5093,0.004319
47.494,67.5093,0.004319
47.524,67.5093,0.004319
47.555,67.5093,0.004319
47.586,67.5093,0.004319
47.617,67.5093,0.004319
47.648,67.5093,0.004319
47.679,67.5093,0.004319
47.710,67.5093,0.004291
47.741,67.5093,0.004291
47.772,67.5093,0.004291
47.804,67.5093,0.004291
47.835,67.5093,0.004291
47.865,67.5093,0.004291
47.898,67.5093,0.004291
47.928,67.5093,0.004291
47.959,67.5093,0.004291
47.990,67.5093,0.004244
48.021,67.5093,0.004244
48.052,67.5093,0.004244
48.084,67.5093,0.004244
48.115,67.5093,0.004244
48.146,67.5093,0.004244
48.179,67.5093,0.004244
48.210,67.5093,0.004244
48.240,67.5093,0.004216
48.273,67.5086,0.004216
48.303,67.5072,0.004216
48.333,67.5052,0.004216
48.364,67.5025,0.004216
48.396,67.4988,0.004216
48.427,67.4945,0.004216
48.458,67.4896,0.004310
48.491,67.4834,0.004310
48.521,67.4772,0.004310
48.552,67.4700,0.004310
48.583,67.4618,0.004310
48.614,67.4535,0.004310
48.645,67.4439,0.004310
48.676,67.4337,0.004310
48.708,67.4230,0.004385
48.739,67.4112,0.004385
48.770,67.3990,0.004385
48.800,67.3860,0.004385
48.831,67.3725,0.004385
48.862,67.3579,0.004385
48.893,67.3430,0.004385
48.925,67.3264,0.004385
48.956,67.3095,0.004395
48.987,67.2918,0.004395
49.018,67.2744,0.004395
49.050,67.2549,0.004395
49.082,67.2348,0.004395
49.116,67.2118,0.004395
49.143,67.1935,0.004395
49.175,67.1712,0.004395
49.205,67.1490,0.004395
49.236,67.1264,0.004413
49.267,67.1021,0.004413
49.298,67.0768,0.004413
49.330,67.0515,0.004413
49.360,67.0261,0.004413
49.390,67.0002,0.004413
49.422,66.9709,0.004413
49.452,66.9440,0.004376
49.483,66.9150,0.004376
49.514,66.8847,0.004376
49.545,66.8546,0.004376
49.575,66.8242,0.004376
49.606,66.7926,0.004376
49.636,66.7605,0.004376
49.668,66.7257,0.004376
49.698,66.6930,0.004357
49.728,66.6597,0.004357
49.760,66.6223,0.004357
49.791,66.5867,0.004357
49.821,66.5509,0.004357
49.853,66.5118,0.004357
49.883,66.4746,0.004357
49.915,66.4337,0.004357
49.946,66.3953,0.004385
49.982,66.3473,0.004385
50.023,66.2909,0.004385
50.054,66.2503,0.004385
50.086,66.2059,0.004385
50.116,66.1634,0.004385
50.146,66.1189,0.004385
50.177,66.0727,0.004385
50.208,66.0272,0.004385
50.240,65.9803,0.004385
50.271,65.9328,0.004385
50.302,65.8840,0.004385
50.333,65.8349,0.004385
50.364,65.7862,0.004385
50.395,65.7356,0.004385
50.425,65.6847,0.004385
50.456,65.6321,0.004385
50.487,65.5801,0.004366
50.519,65.5267,0.004366
50.550,65.4702,0.004366
50.584,65.4124,0.004366
50.612,65.3613,0.004366
50.643,65.3043,0.004366
50.674,65.2474,0.004366
50.705,65.1903,0.004366
50.737,65.1302,0.004366
50.768,65.0717,0.004366
50.799,65.0101,0.004366
50.829,64.9524,0.004366
50.860,64.8914,0.004366
50.891,64.8345,0.004366
50.922,64.7738,0.004366
50.953,64.7168,0.004301
50.985,64.6574,0.004301
51.016,64.6031,0.004301
51.047,64.5454,0.004301
51.078,64.4923,0.004301
51.108,64.4390,0.004301
51.139,64.3864,0.004301
51.173,64.3275,0.004301
51.202,64.2806,0.004169
51.234,64.2278,0.004169
51.264,64.1794,0.004169
51.295,64.1295,0.004169
51.325,64.0812,0.004169
51.356,64.0347,0.004169
51.386,63.9879,0.004169
51.418,63.9400,0.004169
51.448,63.8950,0.004131
51.480,63.8488,0.004131
51.511,63.8044,0.004131
51.542,63.7593,0.004131
51.572,63.7179,0.004131
51.603,63.6759,0.004131
51.634,63.6344,0.004131
51.665,63.5934,0.004131
51.696,63.5532,0.004094
51.727,63.5133,0.004094
51.758,63.4748,0.004094
51.788,63.4363,0.004094
51.820,63.3994,0.004094
51.851,63.3621,0.004094
51.882,63.3270,0.004094
51.913,63.2918,0.004094
51.943,63.2574,0.004094
51.974,63.2236,0.004094
52.005,63.1917,0.004094
52.037,63.1574,0.004094
52.067,63.1269,0.004094
52.098,63.0968,0.004094
52.129,63.0669,0.004094
52.163,63.0342,0.004094
52.191,63.0086,0.004178
52.222,62.9807,0.004178
52.253,62.9536,0.004178
52.285,62.9263,0.004178
52.315,62.9016,0.004178
52.345,62.8764,0.004178
52.376,62.8528,0.004178
52.407,62.8289,0.004178
52.437,62.8072,0.004225
52.468,62.7854,0.004225
52.499,62.7639,0.004225
52.531,62.7425,0.004225
52.561,62.7234,0.004225
52.591,62.7039,0.004225
52.622,62.6858,0.004225
52.654,62.6677,0.004225
52.684,62.6511,0.004225
52.715,62.6348,0.004169
52.745,62.6196,0.004169
52.776,62.6049,0.004169
52.807,62.5902,0.004169
52.838,62.5768,0.004169
52.870,62.5641,0.004169
52.900,62.5521,0.004169
52.931,62.5411,0.004131
52.961,62.5305,0.004131
52.993,62.5208,0.004131
53.024,62.5114,0.004131
53.055,62.5033,0.004131
53.086,62.4954,0.004131
53.116,62.4888,0.004131
53.147,62.4826,0.004131
53.178,62.4773,0.004131
53.209,62.4725,0.004131
53.240,62.4685,0.004122
53.272,62.4651,0.004122
53.302,62.4627,0.004122
53.332,62.4608,0.004122
53.364,62.4597,0.004122
53.395,62.4593,0.004122
53.426,62.4593,0.004122
53.457,62.4593,0.004122
53.488,62.4593,0.004141
53.519,62.4593,0.004141
53.550,62.4593,0.004141
53.580,62.4597,0.004141
53.611,62.4609,0.004141
53.643,62.4629,0.004141
53.672,62.4653,0.004141
53.703,62.4686,0.004141
53.734,62.4727,0.004197
53.766,62.4777,0.004197
53.796,62.4830,0.004197
53.827,62.4892,0.004197
53.858,62.4963,0.004197
53.890,62.5040,0.004197
53.920,62.5124,0.004197
53.951,62.5215,0.004197
53.983,62.5314,0.004178
54.013,62.5420,0.004178
54.043,62.5528,0.004178
54.074,62.5651,0.004178
54.105,62.5778,0.004178
54.136,62.5908,0.004178
54.166,62.6047,0.004178
54.197,62.6198,0.004178
54.228,62.6351,0.004159
54.259,62.6517,0.004159
54.290,62.6687,0.004159
54.321,62.6868,0.004159
54.352,62.7049,0.004159
54.383,62.7240,0.004159
54.414,62.7444,0.004159
54.444,62.7644,0.004159
54.476,62.7861,0.004141
54.507,62.8086,0.004141
54.539,62.8319,0.004141
54.569,62.8558,0.004141
54.601,62.8800,0.004141
54.632,62.9052,0.004141
54.664,62.9322,0.004141
54.695,62.9584,0.004141
54.726,62.9879,0.004141
54.757,63.0142,0.004141
54.789,63.0437,0.004141
54.820,63.0729,0.004141
54.850,63.1031,0.004141
54.882,63.1340,0.004141
54.912,63.1653,0.004141
54.944,63.1983,0.004141
54.973,63.2295,0.004197
55.005,63.2645,0.004197
55.035,63.2986,0.004197
55.067,63.3339,0.004197
55.098,63.3704,0.004197
55.129,63.4069,0.004197
55.160,63.4451,0.004197
55.191,63.4828,0.004197
55.221,63.5221,0.004235
55.253,63.5615,0.004235
55.283,63.6018,0.004235
55.315,63.6431,0.004235
55.346,63.6844,0.004235
55.377,63.7272,0.004235
55.406,63.7690,0.004235
55.437,63.8137,0.004235
55.468,63.8577,0.004169
55.500,63.9047,0.004169
55.530,63.9487,0.004169
55.561,63.9967,0.004169
55.592,64.0432,0.004169
55.623,64.0928,0.004169
55.654,64.1406,0.004169
55.684,64.1893,0.004169
55.716,64.2403,0.004103
55.747,64.2931,0.004103
55.778,64.3451,0.004103
55.809,64.3973,0.004103
55.840,64.4503,0.004103
55.872,64.5056,0.004103
55.902,64.5602,0.004103
55.933,64.6155,0.004103
55.965,64.6725,0.004131
55.996,64.7309,0.004131
56.026,64.7867,0.004131
56.057,64.8466,0.004131
56.088,64.9038,0.004131
56.119,64.9637,0.004131
56.150,65.0249,0.004131
56.181,65.0849,0.004131
56.213,65.1428,0.004150
56.244,65.2021,0.004150
56.275,65.2589,0.004150
56.306,65.3158,0.004150
56.337,65.3711,0.004150
56.369,65.4265,0.004150
56.401,65.4816,0.004150
56.432,65.5351,0.004150
56.463,65.5883,0.004263
56.495,65.6409,0.004263
56.525,65.6924,0.004263
56.556,65.7417,0.004263
56.588,65.7936,0.004263
56.619,65.8421,0.004263
56.650,65.8903,0.004263
56.681,65.9378,0.004263
56.712,65.9842,0.004385
56.749,66.0399,0.004385
56.789,66.0962,0.004385
56.819,66.1396,0.004385
56.850,66.1834,0.004385
56.880,66.2245,0.004385
56.912,66.2668,0.004385
56.944,66.3107,0.004385
56.973,66.3481,0.004385
57.005,66.3888,0.004385
57.035,66.4268,0.004385
57.067,66.4666,0.004385
57.097,66.5038,0.004385
57.129,66.5418,0.004385
57.161,66.5781,0.004385
57.195,66.6173,0.004385
57.224,66.6490,0.004395
57.255,66.6845,0.004395
57.286,66.7172,0.004395
57.320,66.7534,0.004395
57.347,66.7807,0.004395
57.379,66.8125,0.004395
57.410,66.8426,0.004395
57.442,66.8731,0.004395
57.473,66.9017,0.004442
57.504,66.9299,0.004442
57.535,66.9570,0.004442
57.566,66.9841,0.004442
57.596,67.0101,0.004442
57.628,67.0348,0.004442
57.661,67.0618,0.004442
57.690,67.0834,0.004442
57.721,67.1064,0.004461
57.752,67.1286,0.004461
57.784,67.1508,0.004461
57.815,67.1718,0.004461
57.846,67.1922,0.004461
57.876,67.2107,0.004461
57.908,67.2296,0.004461
57.939,67.2481,0.004432
57.973,67.2665,0.004432
58.001,67.2816,0.004432
58.033,67.2980,0.004432
58.064,67.3130,0.004432
58.095,67.3267,0.004432
58.126,67.3406,0.004432
58.158,67.3534,0.004432
58.189,67.3658,0.004413
58.220,67.3768,0.004413
58.251,67.3873,0.004413
58.281,67.3974,0.004413
58.313,67.4065,0.004413
58.344,67.4150,0.004413
58.375,67.4225,0.004413
58.405,67.4294,0.004413
58.436,67.4356,0.004413
58.467,67.4412,0.004385
58.498,67.4459,0.004385
58.530,67.4499,0.004385
58.560,67.4532,0.004385
58.591,67.4559,0.004385
58.623,67.4578,0.004385
58.654,67.4590,0.004385
58.685,67.4593,0.004395
58.715,67.4593,0.004395
58.747,67.4593,0.004395
58.777,67.4593,0.004395
58.809,67.4593,0.004395
58.839,67.4593,0.004395
58.871,67.4593,0.004395
58.902,67.4593,0.004395
58.933,67.4593,0.004395
58.964,67.4593,0.004376
58.995,67.4593,0.004376
59.026,67.4593,0.004376
59.058,67.4593,0.004376
59.088,67.4593,0.004376
59.119,67.4593,0.004376
59.150,67.4593,0.004376
59.181,67.4593,0.004376
59.211,67.4593,0.004338
59.243,67.4593,0.004338
59.273,67.4593,0.004338
59.306,67.4593,0.004338
59.334,67.4593,0.004338
59.366,67.4593,0.004338
59.396,67.4593,0.004338
59.428,67.4593,0.004338
59.462,67.4593,0.004282
59.490,67.4593,0.004282
59.523,67.4593,0.004282
59.552,67.4593,0.004282
59.582,67.4593,0.004282
59.613,67.4593,0.004282
59.644,67.4593,0.004282
59.674,67.4593,0.004282
59.705,67.4593,0.004253
59.737,67.4593,0.004253
59.771,67.4593,0.004253
59.803,67.4593,0.004253
59.833,67.4593,0.004253
59.863,67.4593,0.004253
59.894,67.4593,0.004253
59.925,67.4593,0.004253
59.956,67.4593,0.004263
59.986,67.4593,0.004263
60.017,67.4593,0.004263
60.048,67.4593,0.004263
60.081,67.4593,0.004263
60.115,67.4593,0.004263
60.155,67.4593,0.004263
60.187,67.4593,0.004263
60.217,67.4593,0.004263
60.248,67.4593,0.004263
60.279,67.4593,0.004263
60.311,67.4593,0.004263
60.342,67.4593,0.004263
60.373,67.4593,0.004263
60.405,67.4593,0.004263
60.435,67.4593,0.004263
60.466,67.4593,0.004301
60.497,67.4593,0.004301
60.529,67.4593,0.004301
60.561,67.4593,0.004301
60.591,67.4593,0.004301
60.622,67.4593,0.004301
60.654,67.4593,0.004301
60.687,67.4593,0.004329
60.716,67.4593,0.004329
60.747,67.4593,0.004329
60.778,67.4593,0.004329
60.808,67.4593,0.004329
60.839,67.4593,0.004329
60.871,67.4593,0.004329
60.901,67.4593,0.004329
60.933,67.4593,0.004301
60.965,67.4593,0.004301
60.995,67.4593,0.004301
61.025,67.4593,0.004301
61.057,67.4593,0.004301
61.088,67.4593,0.004301
61.119,67.4593,0.004301
61.150,67.4593,0.004301
61.181,67.4593,0.004301
61.212,67.4593,0.004282
61.244,67.4593,0.004282
61.277,67.4593,0.004282
61.306,67.4593,0.004282
61.337,67.4593,0.004282
61.368,67.4593,0.004282
61.398,67.4593,0.004282
61.429,67.4593,0.004282
61.460,67.4593,0.004263
61.491,67.4593,0.004263
61.522,67.4593,0.004263
61.553,67.4593,0.004263
61.584,67.4593,0.004263
61.616,67.4593,0.004263
61.647,67.4593,0.004263
61.678,67.4593,0.004263
61.710,67.4593,0.004263
61.740,67.4593,0.004253
61.771,67.4593,0.004253
61.802,67.4593,0.004253
61.833,67.4593,0.004253
61.864,67.4593,0.004253
61.895,67.4593,0.004253
61.926,67.4593,0.004253
61.957,67.4593,0.004253
61.988,67.4593,0.004291
62.019,67.4593,0.004291
62.050,67.4593,0.004291
62.081,67.4593,0.004291
62.112,67.4593,0.004291
62.144,67.4593,0.004291
62.175,67.4593,0.004291
62.205,67.4593,0.004291
62.236,67.4593,0.004291
62.267,67.4593,0.004291
62.298,67.4593,0.004291
62.328,67.4593,0.004291
62.360,67.4593,0.004291
62.391,67.4593,0.004291
62.422,67.4593,0.004291
62.453,67.4593,0.004301
62.483,67.4593,0.004301
62.514,67.4593,0.004301
62.546,67.4593,0.004301
62.576,67.4593,0.004301
62.607,67.4593,0.004301
62.637,67.4593,0.004301
62.668,67.4593,0.004301
62.699,67.4593,0.004301
62.730,67.4593,0.004263
62.761,67.4593,0.004263
62.792,67.4593,0.004263
62.823,67.4593,0.004263
62.854,67.4593,0.004263
62.885,67.4593,0.004263
62.916,67.4593,0.004263
62.947,67.4593,0.004263
62.977,67.4593,0.004188
63.007,67.4586,0.004188
63.039,67.4572,0.004188
63.070,67.4550,0.004188
63.101,67.4521,0.004188
63.132,67.4485,0.004188
63.164,67.4442,0.004188
63.195,67.4391,0.004301
63.225,67.4334,0.004301
63.256,67.4270,0.004301
63.286,67.4199,0.004301
63.318,67.4118,0.004301
63.349,67.4030,0.004301
63.381,67.3932,0.004301
63.411,67.3838,0.004301
63.442,67.3729,0.004489
63.472,67.3613,0.004489
63.503,67.3494,0.004489
63.533,67.3364,0.004489
63.564,67.3230,0.004489
63.595,67.3084,0.004489
63.625,67.2939,0.004489
63.655,67.2780,0.004489
63.686,67.2616,0.004489
63.717,67.2444,0.004470
63.748,67.2269,0.004470
63.783,67.2053,0.004470
63.809,67.1890,0.004470
63.839,67.1689,0.004470
63.871,67.1480,0.004470
63.902,67.1264,0.004470
63.933,67.1033,0.004376
63.964,67.0807,0.004376
63.995,67.0571,0.004376
64.027,67.0313,0.004376
64.058,67.0066,0.004376
64.089,66.9802,0.004376
64.120,66.9538,0.004376
64.150,66.9258,0.004376
64.181,66.8986,0.004376
64.211,66.8705,0.004376
64.242,66.8413,0.004376
64.274,66.8098,0.004376
64.304,66.7797,0.004376
64.335,66.7473,0.004376
64.366,66.7148,0.004376
64.399,66.6803,0.004376
64.429,66.6464,0.004423
64.461,66.6109,0.004423
64.493,66.5743,0.004423
64.524,66.5385,0.004423
64.554,66.5014,0.004423
64.585,66.4640,0.004423
64.617,66.4257,0.004423
64.648,66.3863,0.004423
64.679,66.3466,0.004423
64.709,66.3067,0.004385
64.740,66.2657,0.004385
64.770,66.2245,0.004385
64.802,66.1808,0.004385
64.833,66.1362,0.004385
64.865,66.0918,0.004385
64.896,66.0460,0.004385
64.926,66.0016,0.004385
64.958,65.9536,0.004385
64.989,65.9078,0.004366
65.021,65.8582,0.004366
65.052,65.8084,0.004366
65.083,65.7605,0.004366
65.114,65.7098,0.004366
65.145,65.6585,0.004366
65.176,65.6078,0.004366
65.206,65.5562,0.004366
65.237,65.5042,0.004395
65.267,65.4509,0.004395
65.299,65.3958,0.004395
65.330,65.3406,0.004395
65.361,65.2851,0.004395
65.393,65.2265,0.004395
65.423,65.1705,0.004395
65.454,65.1118,0.004395
65.485,65.0531,0.004461
65.517,64.9929,0.004461
65.548,64.9301,0.004461
65.580,64.8697,0.004461
65.611,64.8101,0.004461
65.642,64.7515,0.004461
65.673,64.6945,0.004461
65.705,64.6332,0.004338
65.735,64.5805,0.004338
65.765,64.5239,0.004338
65.796,64.4706,0.004338
65.828,64.4147,0.004338
65.859,64.3617,0.004338
65.889,64.3079,0.004338
65.920,64.2569,0.004338
65.951,64.2048,0.004338
65.981,64.1568,0.004141
66.012,64.1057,0.004141
66.043,64.0560,0.004141
66.075,64.0068,0.004141
66.105,63.9605,0.004141
66.136,63.9144,0.004141
66.168,63.8660,0.004141
66.199,63.8205,0.004141
66.229,63.7766,0.004141
66.261,63.7304,0.004141
66.292,63.6873,0.004141
66.323,63.6439,0.004141
66.355,63.6007,0.004141
66.386,63.5593,0.004141
66.416,63.5198,0.004141
66.447,63.4803,0.004141
66.478,63.4418,0.004131
66.509,63.4028,0.004131
66.541,63.3642,0.004131
66.572,63.3272,0.004131
66.603,63.2910,0.004131
66.634,63.2563,0.004131
66.665,63.2216,0.004131
66.695,63.1877,0.004131
66.727,63.1537,0.004122
66.760,63.1186,0.004122
66.789,63.0894,0.004122
66.820,63.0592,0.004122
66.850,63.0286,0.004122
66.881,62.9997,0.004122
66.912,62.9703,0.004122
66.944,62.9413,0.004122
66.975,62.9137,0.004150
67.006,62.8876,0.004150
67.037,62.8610,0.004150
67.069,62.8350,0.004150
67.099,62.8112,0.004150
67.130,62.7876,0.004150
67.161,62.7648,0.004150
67.192,62.7423,0.004150
67.222,62.7208,0.004159
67.253,62.6996,0.004159
67.284,62.6798,0.004159
67.316,62.6596,0.004159
67.346,62.6413,0.004159
67.378,62.6228,0.004159
67.410,62.6053,0.004159
67.441,62.5884,0.004159
67.472,62.5730,0.004178
67.503,62.5578,0.004178
67.534,62.5435,0.004178
67.565,62.5300,0.004178
67.597,62.5167,0.004178
67.627,62.5051,0.004178
67.659,62.4931,0.004178
67.690,62.4824,0.004178
67.721,62.4723,0.004178
67.751,62.4635,0.004169
67.783,62.4549,0.004169
67.814,62.4470,0.004169
67.845,62.4400,0.004169
67.876,62.4336,0.004169
67.908,62.4278,0.004169
67.940,62.4230,0.004169
67.969,62.4191,0.004169
68.000,62.4157,0.004122
68.031,62.4131,0.004122
68.061,62.4111,0.004122
68.093,62.4098,0.004122
68.123,62.4093,0.004122
68.154,62.4093,0.004122
68.185,62.4093,0.004122
68.216,62.4093,0.004112
68.247,62.4093,0.004112
68.277,62.4093,0.004112
68.308,62.4096,0.004112
68.339,62.4103,0.004112
68.370,62.4121,0.004112
68.401,62.4143,0.004112
68.431,62.4174,0.004112
68.463,62.4212,0.004131
68.494,62.4257,0.004131
68.525,62.4309,0.004131
68.557,62.4371,0.004131
68.587,62.4438,0.004131
68.619,62.4515,0.004131
68.650,62.4596,0.004131
68.681,62.4685,0.004131
68.709,62.4773,0.004178
68.744,62.4887,0.004178
68.775,62.4999,0.004178
68.807,62.5122,0.004178
68.838,62.5248,0.004178
68.868,62.5377,0.004178
68.900,62.5520,0.004178
68.931,62.5667,0.004178
68.962,62.5821,0.004178
68.993,62.5986,0.004178
69.024,62.6158,0.004178
69.055,62.6336,0.004178
69.086,62.6518,0.004178
69.117,62.6713,0.004178
69.149,62.6910,0.004178
69.179,62.7117,0.004178
69.210,62.7332,0.004178
69.241,62.7551,0.004178
69.274,62.7786,0.004178
69.303,62.8015,0.004178
69.335,62.8254,0.004178
69.366,62.8516,0.004178
69.397,62.8772,0.004178
69.430,62.9048,0.004178
69.459,62.9305,0.004150
69.490,62.9583,0.004150
69.521,62.9870,0.004150
69.552,63.0161,0.004150
69.583,63.0466,0.004150
69.614,63.0766,0.004150
69.645,63.1081,0.004150
69.675,63.1401,0.004150
69.707,63.1730,0.004131
69.737,63.2063,0.004131
69.768,63.2414,0.004131
69.799,63.2765,0.004131
69.831,63.3126,0.004131
69.861,63.3483,0.004131
69.893,63.3880,0.004131
69.923,63.4246,0.004131
69.954,63.4618,0.004131
69.984,63.5005,0.004131
70.016,63.5424,0.004131
70.047,63.5830,0.004131
70.080,63.6268,0.004131
70.108,63.6664,0.004131
70.140,63.7098,0.004131
70.171,63.7535,0.004131
70.201,63.7983,0.004131
70.232,63.8429,0.004150
70.265,63.8922,0.004150
70.294,63.9361,0.004150
70.321,63.9771,0.004150
70.357,64.0319,0.004150
70.390,64.0855,0.004150
70.419,64.1319,0.004150
70.450,64.1816,0.004141
70.481,64.2340,0.004141
70.513,64.2875,0.004141
70.542,64.3358,0.004141
70.573,64.3891,0.004141
70.604,64.4439,0.004141
70.638,64.5025,0.004141
70.666,64.5544,0.004141
70.697,64.6095,0.004075
70.728,64.6679,0.004075
70.759,64.7237,0.004075
70.790,64.7833,0.004075
70.821,64.8413,0.004075
70.852,64.9016,0.004075
70.882,64.9610,0.004075
70.913,65.0207,0.004075
70.945,65.0787,0.004075
70.977,65.1393,0.004094
71.008,65.1958,0.004094
71.039,65.2532,0.004094
71.070,65.3081,0.004094
71.100,65.3611,0.004094
71.134,65.4200,0.004094
71.163,65.4706,0.004094
71.194,65.5248,0.004094
71.225,65.5763,0.004272
71.257,65.6282,0.004272
71.288,65.6786,0.004272
71.319,65.7289,0.004272
71.351,65.7793,0.004272
71.381,65.8274,0.004272
71.412,65.8754,0.004272
71.444,65.9221,0.004272
71.475,65.9694,0.004376
71.505,66.0121,0.004376
71.536,66.0576,0.004376
71.568,66.1026,0.004376
71.599,66.1462,0.004376
71.629,66.1867,0.004376
71.660,66.2281,0.004376
71.691,66.2692,0.004376
71.722,66.3096,0.004329
71.754,66.3517,0.004329
71.784,66.3889,0.004329
71.815,66.4262,0.004329
71.845,66.4629,0.004329
71.878,66.5027,0.004329
71.907,66.5365,0.004329
71.938,66.5708,0.004329
71.968,66.6058,0.004357
71.999,66.6387,0.004357
72.030,66.6718,0.004357
72.060,66.7028,0.004357
72.091,66.7350,0.004357
72.122,66.7657,0.004357
72.153,66.7956,0.004357
72.184,66.8256,0.004357
72.215,66.8541,0.004366
72.248,66.8836,0.004366
72.278,66.9101,0.004366
72.309,66.9377,0.004366
72.340,66.9626,0.004366
72.371,66.9882,0.004366
72.402,67.0120,0.004366
72.433,67.0365,0.004366
72.464,67.0587,0.004366
72.495,67.0814,0.004348
72.526,67.1026,0.004348
72.558,67.1242,0.004348
72.591,67.1454,0.004348
72.620,67.1630,0.004348
72.652,67.1824,0.004348
72.681,67.1991,0.004348
72.713,67.2170,0.004357
72.744,67.2332,0.004357
72.774,67.2484,0.004357
72.805,67.2634,0.004357
72.836,67.2774,0.004357
72.868,67.2911,0.004357
72.898,67.3037,0.004357
72.929,67.3157,0.004357
72.960,67.3271,0.004357
72.991,67.3375,0.004357
73.022,67.3476,0.004357
73.053,67.3566,0.004357
73.084,67.3649,0.004357
73.115,67.3729,0.004357
73.147,67.3797,0.004357
73.178,67.3862,0.004357
73.208,67.3912,0.004385
73.239,67.3962,0.004385
73.270,67.4000,0.004385
73.303,67.4035,0.004385
73.333,67.4061,0.004385
73.364,67.4079,0.004385
73.395,67.4090,0.004385
73.426,67.4093,0.004385
73.457,67.4093,0.004395
73.488,67.4093,0.004395
73.519,67.4093,0.004395
73.550,67.4093,0.004395
73.581,67.4093,0.004395
73.612,67.4093,0.004395
73.643,67.4093,0.004395
73.673,67.4093,0.004395
73.704,67.4093,0.004357
73.737,67.4093,0.004357
73.766,67.4093,0.004357
73.797,67.4093,0.004357
73.829,67.4093,0.004357
73.859,67.4093,0.004357
73.891,67.4093,0.004357
73.921,67.4093,0.004357
73.952,67.4093,0.004301
73.983,67.4093,0.004301
74.014,67.4093,0.004301
74.044,67.4093,0.004301
74.075,67.4093,0.004301
74.105,67.4093,0.004301
74.138,67.4093,0.004301
74.168,67.4093,0.004301
74.198,67.4093,0.004282
74.230,67.4093,0.004282
74.261,67.4093,0.004282
74.291,67.4093,0.004282
74.324,67.4093,0.004282
74.355,67.4093,0.004282
74.385,67.4093,0.004282
74.416,67.4093,0.004282
74.447,67.4093,0.004272
74.478,67.4093,0.004272
74.509,67.4093,0.004272
74.539,67.4093,0.004272
74.570,67.4093,0.004272
74.600,67.4093,0.004272
74.632,67.4093,0.004272
74.664,67.4093,0.004272
74.694,67.4093,0.004272
74.725,67.4093,0.004272
74.756,67.4093,0.004272
74.787,67.4093,0.004272
74.819,67.4093,0.004272
74.849,67.4093,0.004272
74.880,67.4093,0.004272
74.910,67.4093,0.004272
74.941,67.4093,0.004244
74.972,67.4093,0.004244
75.004,67.4093,0.004244
75.036,67.4093,0.004244
75.066,67.4093,0.004244
75.097,67.4093,0.004244
75.128,67.4093,0.004244
75.159,67.4093,0.004244
75.189,67.4093,0.004244
75.221,67.4093,0.004206
75.251,67.4093,0.004206
75.285,67.4093,0.004206
75.314,67.4093,0.004206
75.345,67.4093,0.004206
75.376,67.4093,0.004206
75.407,67.4093,0.004206
75.436,67.4093,0.004235
75.467,67.4093,0.004235
75.498,67.4093,0.004235
75.529,67.4093,0.004235
75.560,67.4093,0.004235
75.591,67.4093,0.004235
75.622,67.4093,0.004235
75.653,67.4093,0.004235
75.684,67.4093,0.004235
75.715,67.4093,0.004301
75.746,67.4093,0.004301
75.777,67.4093,0.004301
75.808,67.4093,0.004301
75.839,67.4093,0.004301
75.870,67.4093,0.004301
75.900,67.4093,0.004301
75.931,67.4093,0.004301
75.963,67.4093,0.004348
75.993,67.4093,0.004348
76.024,67.4093,0.004348
76.055,67.4093,0.004348
76.091,67.4093,0.004348
76.117,67.4093,0.004348
76.149,67.4093,0.004348
76.180,67.4093,0.004348
76.211,67.4093,0.004272
76.242,67.4093,0.004272
76.274,67.4093,0.004272
76.305,67.4093,0.004272
76.337,67.4093,0.004272
76.366,67.4093,0.004272
76.398,67.4093,0.004272
76.429,67.4093,0.004272
76.461,67.4093,0.004272
76.491,67.4093,0.004272
76.522,67.4093,0.004272
76.553,67.4093,0.004272
76.583,67.4093,0.004272
76.614,67.4093,0.004272
76.644,67.4093,0.004272
76.675,67.4093,0.004272
76.706,67.4093,0.004272
76.738,67.4093,0.004291
76.769,67.4093,0.004291
76.801,67.4093,0.004291
76.831,67.4093,0.004291
76.862,67.4093,0.004291
76.893,67.4093,0.004291
76.924,67.4093,0.004291
76.955,67.4093,0.004291
76.986,67.4093,0.004253
77.017,67.4093,0.004253
77.048,67.4093,0.004253
77.079,67.4093,0.004253
77.110,67.4093,0.004253
77.142,67.4093,0.004253
77.172,67.4093,0.004253
77.205,67.4093,0.004253
77.235,67.4093,0.004244
77.267,67.4093,0.004244
77.298,67.4093,0.004244
77.329,67.4093,0.004244
77.360,67.4093,0.004244
77.391,67.4093,0.004244
77.421,67.4093,0.004244
77.453,67.4093,0.004244
77.484,67.4093,0.004244
77.515,67.4093,0.004244
77.546,67.4093,0.004244
77.577,67.4093,0.004244
77.609,67.4093,0.004244
77.639,67.4093,0.004244
77.670,67.4093,0.004244
77.701,67.4090,0.004244
77.732,67.4080,0.004282
77.762,67.4062,0.004282
77.793,67.4038,0.004282
77.824,67.4005,0.004282
77.855,67.3967,0.004282
77.885,67.3920,0.004282
77.916,67.3865,0.004282
77.947,67.3806,0.004282
77.978,67.3736,0.004413
78.009,67.3661,0.004413
78.040,67.3579,0.004413
78.070,67.3493,0.004413
78.101,67.3393,0.004413
78.132,67.3289,0.004413
78.163,67.3181,0.004413
78.194,67.3058,0.004413
78.225,67.2935,0.004470
78.255,67.2800,0.004470
78.286,67.2663,0.004470
78.318,67.2511,0.004470
78.348,67.2358,0.004470
78.380,67.2193,0.004470
78.410,67.2032,0.004470
78.441,67.1851,0.004470
78.471,67.1674,0.004470
78.503,67.1478,0.004404
78.534,67.1278,0.004404
78.564,67.1073,0.004404
78.595,67.0861,0.004404
78.626,67.0644,0.004404
78.657,67.0420,0.004404
78.689,67.0174,0.004404
78.719,66.9939,0.004404
78.750,66.9687,0.004404
78.782,66.9430,0.004404
78.812,66.9166,0.004404
78.844,66.8884,0.004404
78.878,66.8583,0.004404
78.905,66.8334,0.004404
78.936,66.8039,0.004404
78.967,66.7737,0.004413
78.999,66.7412,0.004413
79.030,66.7107,0.004413
79.061,66.6781,0.004413
79.092,66.6454,0.004413
79.124,66.6104,0.004413
79.155,66.5759,0.004413
79.186,66.5402,0.004413
79.218,66.5042,0.004413
79.249,66.4666,0.004413
79.280,66.4301,0.004413
79.311,66.3904,0.004413
79.343,66.3523,0.004413
79.373,66.3130,0.004413
79.405,66.2717,0.004413
79.435,66.2316,0.004413
79.466,66.1899,0.004423
79.497,66.1468,0.004423
79.528,66.1033,0.004423
79.560,66.0596,0.004423
79.591,66.0148,0.004423
79.623,65.9670,0.004423
79.653,65.9228,0.004423
79.684,65.8763,0.004423
79.715,65.8289,0.004423
79.748,65.7762,0.004432
79.777,65.7298,0.004432
79.810,65.6772,0.004432
79.840,65.6290,0.004432
79.871,65.5778,0.004432
79.902,65.5273,0.004432
79.933,65.4730,0.004432
79.964,65.4198,0.004385
79.995,65.3648,0.004385
80.028,65.3071,0.004385
80.057,65.2552,0.004385
80.087,65.2004,0.004385
80.118,65.1426,0.004385
80.149,65.0838,0.004385
80.181,65.0240,0.004385
80.212,64.9647,0.004385
80.243,64.9053,0.004385
80.273,64.8466,0.004385
80.308,64.7788,0.004385
80.336,64.7276,0.004385
80.368,64.6669,0.004385
80.397,64.6109,0.004385
80.429,64.5523,0.004385
80.461,64.4960,0.004301
80.490,64.4448,0.004301
80.521,64.3891,0.004301
80.552,64.3359,0.004301
80.583,64.2820,0.004301
80.614,64.2293,0.004301
80.645,64.1777,0.004301
80.675,64.1276,0.004301
80.706,64.0784,0.004122
80.737,64.0282,0.004122
80.768,63.9806,0.004122
80.800,63.9297,0.004122
80.830,63.8835,0.004122
80.862,63.8352,0.004122
80.893,63.7906,0.004122
80.924,63.7435,0.004122
80.955,63.6994,0.004122
80.986,63.6560,0.004103
81.016,63.6142,0.004103
81.047,63.5714,0.004103
81.079,63.5282,0.004103
81.110,63.4875,0.004103
81.141,63.4488,0.004103
81.172,63.4082,0.004103
81.202,63.3709,0.004103
81.234,63.3324,0.004150
81.265,63.2952,0.004150
81.296,63.2577,0.004150
81.327,63.2231,0.004150
81.357,63.1877,0.004150
81.388,63.1545,0.004150
81.420,63.1189,0.004150
81.450,63.0866,0.004206
81.480,63.0560,0.004206
81.510,63.0256,0.004206
81.541,62.9951,0.004206
81.572,62.9652,0.004206
81.603,62.9354,0.004206
81.635,62.9059,0.004206
81.665,62.8799,0.004206
81.695,62.8522,0.004235
81.726,62.8262,0.004235
81.757,62.8008,0.004235
81.788,62.7755,0.004235
81.819,62.7514,0.004235
81.851,62.7270,0.004235
81.882,62.7048,0.004235
81.913,62.6824,0.004235
81.944,62.6615,0.004188
81.974,62.6409,0.004188
82.005,62.6213,0.004188
82.038,62.6005,0.004188
82.067,62.5835,0.004188
82.098,62.5657,0.004188
82.128,62.5495,0.004188
82.160,62.5326,0.004188
82.191,62.5175,0.004131
82.221,62.5029,0.004131
82.253,62.4885,0.004131
82.285,62.4748,0.004131
82.316,62.4619,0.004131
82.348,62.4501,0.004131
82.380,62.4386,0.004131
82.410,62.4286,0.004131
82.441,62.4186,0.004131
82.471,62.4100,0.004122
82.503,62.4015,0.004122
82.535,62.3941,0.004122
82.565,62.3874,0.004122
82.596,62.3813,0.004122
82.627,62.3760,0.004122
82.659,62.3714,0.004122
82.690,62.3674,0.004122
82.722,62.3644,0.004178
82.753,62.3621,0.004178
82.783,62.3605,0.004178
82.814,62.3596,0.004178
82.845,62.3594,0.004178
82.876,62.3594,0.004178
82.907,62.3594,0.004178
82.937,62.3594,0.004178
82.969,62.3594,0.004216
82.999,62.3595,0.004216
83.030,62.3603,0.004216
83.062,62.3620,0.004216
83.093,62.3642,0.004216
83.125,62.3673,0.004216
83.155,62.3710,0.004216
83.185,62.3754,0.004206
83.216,62.3804,0.004206
83.247,62.3864,0.004206
83.278,62.3930,0.004206
83.309,62.4004,0.004206
83.340,62.4087,0.004206
83.371,62.4173,0.004206
83.402,62.4271,0.004206
83.434,62.4374,0.004206
83.464,62.4483,0.004197
83.494,62.4596,0.004197
83.526,62.4722,0.004197
83.557,62.4854,0.004197
83.587,62.4994,0.004197
83.618,62.5136,0.004197
83.649,62.5293,0.004197
83.680,62.5454,0.004197
83.711,62.5618,0.004225
83.743,62.5799,0.004225
83.774,62.5983,0.004225
83.805,62.6174,0.004225
83.837,62.6379,0.004225
83.868,62.6579,0.004225
83.899,62.6793,0.004225
83.930,62.7010,0.004225
83.960,62.7234,0.004216
83.992,62.7468,0.004216
84.022,62.7712,0.004216
84.053,62.7954,0.004216
84.084,62.8211,0.004216
84.115,62.8470,0.004216
84.146,62.8750,0.004216
84.176,62.9011,0.004216
84.209,62.9312,0.004216
84.239,62.9599,0.004178
84.270,62.9900,0.004178
84.302,63.0208,0.004178
84.333,63.0530,0.004178
84.363,63.0839,0.004178
84.396,63.1189,0.004178
84.425,63.1499,0.004178
84.456,63.1845,0.004178
84.488,63.2198,0.004178
84.518,63.2551,0.004122
84.549,63.2918,0.004122
84.580,63.3290,0.004122
84.611,63.3666,0.004122
84.642,63.4052,0.004122
84.673,63.4441,0.004122
84.703,63.4846,0.004122
84.734,63.5248,0.004150
84.766,63.5671,0.004150
84.797,63.6104,0.004150
84.828,63.6519,0.004150
84.859,63.6961,0.004150
84.890,63.7402,0.004150
84.921,63.7854,0.004150
84.952,63.8321,0.004150
84.983,63.8773,0.004150
85.014,63.9269,0.004188
85.045,63.9734,0.004188
85.076,64.0228,0.004188
85.107,64.0719,0.004188
85.139,64.1243,0.004188
85.170,64.1749,0.004188
85.201,64.2273,0.004188
85.232,64.2799,0.004141
85.263,64.3327,0.004141
85.293,64.3855,0.004141
85.323,64.4382,0.004141
85.354,64.4937,0.004141
85.385,64.5497,0.004141
85.416,64.6072,0.004141
85.449,64.6666,0.004141
85.479,64.7246,0.004141
85.510,64.7833,0.004141
85.542,64.8440,0.004141
85.573,64.9044,0.004141
85.604,64.9638,0.004141
85.636,65.0250,0.004141
85.667,65.0814,0.004141
85.698,65.1412,0.004141
85.729,65.1954,0.004244
85.760,65.2526,0.004244
85.791,65.3064,0.004244
85.822,65.3601,0.004244
85.853,65.4139,0.004244
85.884,65.4673,0.004244
85.916,65.5207,0.004244
85.947,65.5722,0.004244
85.978,65.6223,0.004310
86.009,65.6729,0.004310
86.040,65.7219,0.004310
86.071,65.7719,0.004310
86.103,65.8196,0.004310
86.133,65.8661,0.004310
86.164,65.9115,0.004310
86.195,65.9574,0.004310
86.226,66.0017,0.004319
86.257,66.0455,0.004319
86.288,66.0891,0.004319
86.319,66.1331,0.004319
86.351,66.1749,0.004319
86.383,66.2180,0.004319
86.414,66.2579,0.004319
86.446,66.2986,0.004319
86.476,66.3369,0.004357
86.507,66.3752,0.004357
86.538,66.4118,0.004357
86.568,66.4482,0.004357
86.600,66.4851,0.004357
86.631,66.5208,0.004357
86.662,66.5544,0.004357
86.692,66.5879,0.004357
86.723,66.6206,0.004395
86.754,66.6529,0.004395
86.784,66.6847,0.004395
86.816,66.7153,0.004395
86.846,66.7459,0.004395
86.878,66.7757,0.004395
86.909,66.8052,0.004395
86.941,66.8337,0.004395
86.973,66.8612,0.004423
87.002,66.8868,0.004423
87.033,66.9129,0.004423
87.064,66.9374,0.004423
87.095,66.9615,0.004423
87.126,66.9852,0.004423
87.157,67.0083,0.004423
87.186,67.0301,0.004423
87.218,67.0519,0.004413
87.249,67.0729,0.004413
87.284,67.0948,0.004413
87.325,67.1204,0.004413
87.357,67.1391,0.004413
87.387,67.1565,0.004413
87.421,67.1748,0.004413
87.450,67.1896,0.004385
87.482,67.2052,0.004385
87.511,67.2192,0.004385
87.542,67.2332,0.004385
87.575,67.2467,0.004385
87.605,67.2590,0.004385
87.636,67.2709,0.004385
87.667,67.2817,0.004385
87.698,67.2920,0.004366
87.735,67.3037,0.004366
87.775,67.3146,0.004366
87.807,67.3225,0.004366
87.835,67.3287,0.004366
87.869,67.3355,0.004366
87.899,67.3410,0.004366
87.931,67.3458,0.004395
87.962,67.3499,0.004395
87.993,67.3533,0.004395
88.025,67.3559,0.004395
88.056,67.3579,0.004395
88.087,67.3590,0.004395
88.119,67.3594,0.004395
88.150,67.3594,0.004395
88.182,67.3594,0.004376
88.212,67.3594,0.004376
88.243,67.3594,0.004376
88.273,67.3594,0.004376
