Elapsed Time (s),Position (mm),Force (N)
-0.011,61.2001,-0.022961
0.020,61.2001,-0.027794
0.053,61.2001,-0.019335
0.082,61.2001,-0.026586
0.113,61.2001,-0.024169
0.144,61.2001,-0.026586
0.176,61.2001,-0.022961
0.206,61.2001,-0.022961
0.237,61.2001,-0.022961
0.268,61.2001,-0.027794
0.300,61.2001,-0.024169
0.331,61.2001,-0.022961
0.362,61.2001,-0.025377
0.394,61.2001,-0.024169
0.425,61.2001,-0.020544
0.445,61.2001,-0.024169
0.475,61.2001,-0.024169
0.504,61.2001,-0.022961
0.534,61.2001,-0.020544
0.565,61.2001,-0.022961
0.599,61.2001,-0.021752
0.619,61.2001,-0.021752
0.643,61.2001,-0.021752
0.674,61.2001,-0.022961
0.704,61.2001,-0.022961
0.736,61.2001,-0.022961
0.767,61.2001,-0.021752
0.798,61.2001,-0.024169
0.828,61.2001,-0.024169
0.859,61.2001,-0.024169
0.893,61.2001,-0.025377
0.921,61.2001,-0.024169
0.953,61.2001,-0.022961
0.983,61.2001,-0.020544
1.014,61.2001,-0.018127
1.035,61.2001,-0.018127
1.060,61.2001,-0.024169
1.092,61.2001,-0.024169
1.125,61.2001,-0.021752
1.155,61.2001,-0.021752
1.186,61.2001,-0.025377
1.216,61.2001,-0.025377
1.247,61.2001,-0.020544
1.280,61.2001,-0.021752
1.310,61.2001,-0.019335
1.342,61.2001,-0.020544
1.373,61.2001,-0.019335
1.404,61.2001,-0.020544
1.436,61.2001,-0.019335
1.467,61.2001,-0.020544
1.498,61.2001,-0.025377
1.529,61.2001,-0.022961
1.561,61.2001,-0.018127
1.592,61.2001,-0.022961
1.623,61.2001,-0.024169
1.655,61.2001,-0.015710
1.686,61.2001,-0.018127
1.707,61.2001,-0.018127
1.733,61.2001,-0.020544
1.762,61.2001,-0.022961
1.792,61.2001,-0.019335
1.824,61.2001,-0.018127
1.855,61.2001,-0.020544
1.886,61.2001,-0.021752
1.916,61.2001,-0.019335
1.948,61.2001,-0.019335
1.979,61.2001,-0.019335
2.010,61.2001,-0.021752
2.041,61.2001,-0.021752
2.072,61.2001,-0.018127
2.103,61.2001,-0.021752
2.134,61.2001,-0.016918
2.155,61.2001,-0.016918
2.180,61.2001,-0.018127
2.211,61.2001,-0.024169
2.242,61.2001,-0.020544
2.273,61.2001,-0.021752
2.304,61.2001,-0.020544
2.334,61.2001,-0.019335
2.366,61.2001,-0.020544
2.398,61.2001,-0.020544
2.428,61.2001,-0.020544
2.459,61.2001,-0.015710
2.490,61.2001,-0.016918
2.521,61.2001,-0.020544
2.553,61.2001,-0.022961
2.583,61.2001,-0.018127
2.615,61.2001,-0.016918
2.645,61.2001,-0.016918
2.667,61.2001,-0.020544
2.691,61.2001,-0.020544
2.722,61.2001,-0.020544
2.752,61.2001,-0.018127
2.784,61.2001,-0.021752
2.815,61.2001,-0.021752
2.847,61.2001,-0.016918
2.878,61.2001,-0.021752
2.910,61.2001,-0.021752
2.939,61.2001,-0.016918
2.970,61.2001,-0.015710
3.000,61.2001,-0.021752
3.031,61.2001,-0.021752
3.062,61.2001,-0.016918
3.094,61.2001,-0.018127
3.117,61.2001,-0.024169
3.140,61.2001,-0.024169
3.172,61.2001,-0.020544
3.202,61.2001,-0.019335
3.226,61.2001,-0.021752
3.248,61.2001,-0.021752
3.279,61.2001,-0.019335
3.311,61.2001,-0.016918
3.341,61.2001,-0.019335
3.372,61.2001,-0.020544
3.404,61.2001,-0.022961
3.435,61.2001,-0.019335
3.467,61.2001,-0.019335
3.498,61.2001,-0.022961
3.529,61.2001,-0.019335
3.560,61.2001,-0.019335
3.591,61.2001,-0.020544
3.622,61.2001,-0.021752
3.654,61.2001,-0.016918
3.685,61.2001,-0.020544
3.705,61.2001,-0.024169
3.731,61.2001,-0.024169
3.762,61.2001,-0.020544
3.794,61.2001,-0.021752
3.824,61.2001,-0.020544
3.854,61.2001,-0.021752
3.886,61.2001,-0.021752
3.917,61.2001,-0.019335
3.949,61.2001,-0.020544
3.980,61.2001,-0.016918
4.012,61.2001,-0.014501
4.043,61.2001,-0.015710
4.075,61.2001,-0.022961
4.106,61.2001,-0.016918
4.136,61.2001,-0.018127
4.166,61.2001,-0.013293
4.197,61.2001,-0.018127
4.228,61.2001,-0.019335
4.249,61.2001,-0.021752
4.275,61.2001,-0.019335
4.296,61.2001,-0.021752
4.321,61.2001,-0.019335
4.351,61.2001,-0.014501
4.383,61.2001,-0.014501
4.413,61.2001,-0.018127
4.446,61.2001,-0.015710
4.477,61.2001,-0.013293
4.508,61.2001,-0.013293
4.539,61.2001,-0.016918
4.571,61.2001,-0.018127
4.602,61.2001,-0.018127
4.632,61.2001,-0.020544
4.663,61.2001,-0.015710
4.694,61.2001,-0.015710
4.724,61.2001,-0.019335
4.746,61.2001,-0.019335
4.771,61.2001,-0.020544
4.792,61.2001,-0.020544
4.817,61.2001,-0.019335
4.849,61.2001,-0.019335
4.881,61.2001,-0.021752
4.911,61.2001,-0.020544
4.941,61.2001,-0.020544
4.973,61.2001,-0.020544
5.005,61.2001,-0.021752
5.035,61.2001,-0.013293
5.067,61.2001,-0.014501
5.098,61.2001,-0.015710
5.129,61.2001,-0.015710
5.150,61.2001,-0.022961
5.174,61.2001,-0.022961
5.206,61.2001,-0.022961
5.237,61.2001,-0.019335
5.268,61.2001,-0.016918
5.299,61.2001,-0.020544
5.320,61.2001,-0.022961
5.346,61.2001,-0.022961
5.377,61.2001,-0.020544
5.411,61.2001,-0.015710
5.432,61.2001,-0.015710
5.455,61.2001,-0.021752
5.486,61.2001,-0.018127
5.517,61.2001,-0.013293
5.548,61.2001,-0.016918
5.578,61.2001,-0.025377
5.609,61.2001,-0.025377
5.640,61.2001,-0.021752
5.671,61.2001,-0.019335
5.702,61.2001,-0.019335
5.733,61.2001,-0.016918
5.756,61.2001,-0.020544
5.779,61.2001,-0.019335
5.800,61.2001,-0.020544
5.826,61.2001,-0.020544
5.857,61.2001,-0.016918
5.889,61.2001,-0.016918
5.919,61.2001,-0.020544
5.951,61.2001,-0.018127
5.981,61.2001,-0.019335
6.012,61.2001,-0.018127
6.043,61.2001,-0.016918
6.074,61.2001,-0.018127
6.105,61.2001,-0.019335
6.136,61.2001,-0.016918
6.166,61.2001,-0.014501
6.198,61.2001,-0.019335
6.229,61.2001,-0.018127
6.260,61.2001,-0.018127
6.290,61.2001,-0.015710
6.311,61.2001,-0.016918
6.338,61.2001,-0.014501
6.359,61.2001,-0.014501
6.384,61.2001,-0.013293
6.416,61.2001,-0.021752
6.446,61.2001,-0.016918
6.470,61.2001,-0.016918
6.493,61.2001,-0.016918
6.524,61.2001,-0.015710
6.555,61.2001,-0.013293
6.586,61.2001,-0.016918
6.617,61.2001,-0.022961
6.649,61.2001,-0.012084
6.681,61.2001,-0.020544
6.713,61.2001,-0.016918
6.743,61.2001,-0.016918
6.775,61.2001,-0.014501
6.806,61.2001,-0.018127
6.837,61.2001,-0.024169
6.870,61.2001,-0.021752
6.900,61.2001,-0.020544
6.925,61.2001,-0.021752
6.947,61.2001,-0.022961
6.977,61.2001,-0.020544
6.998,61.2001,-0.020544
7.023,61.2001,-0.021752
7.044,61.2001,-0.018127
7.070,61.2001,-0.018127
7.101,61.2001,-0.018127
7.131,61.2001,-0.020544
7.163,61.2001,-0.019335
7.194,61.2001,-0.020544
7.226,61.2001,-0.018127
7.257,61.2001,-0.015710
7.288,61.2001,-0.015710
7.320,61.2001,-0.015710
7.351,61.2001,-0.015710
7.383,61.2001,-0.018127
7.414,61.2001,-0.022961
7.444,61.2001,-0.018127
7.476,61.2001,-0.016918
7.507,61.2001,-0.019335
7.539,61.2001,-0.021752
7.570,61.2001,-0.018127
7.602,61.2001,-0.018127
7.631,61.2001,-0.021752
7.663,61.2001,-0.014501
7.694,61.2001,-0.014501
7.714,61.2001,-0.015710
7.735,61.2001,-0.016918
7.756,61.2001,-0.016918
7.789,61.2001,-0.015710
7.811,61.2001,-0.014501
7.836,61.2001,-0.014501
7.869,61.2001,-0.019335
7.890,61.2001,-0.019335
7.914,61.2001,-0.018127
7.943,61.2001,-0.018127
7.974,61.2001,-0.016918
8.005,61.2001,-0.016918
8.037,61.2001,-0.012084
8.068,61.2001,-0.013293
8.100,61.2001,-0.016918
8.131,61.2001,-0.016918
8.155,61.2001,-0.016918
8.178,61.2001,-0.016918
8.209,61.2001,-0.019335
8.240,61.2001,-0.016918
8.270,61.2001,-0.016918
8.302,61.2001,-0.018127
8.334,61.2001,-0.016918
8.365,61.2001,-0.014501
8.396,61.2001,-0.016918
8.426,61.2001,-0.016918
8.458,61.2001,-0.016918
8.480,61.2001,-0.016918
8.505,61.2001,-0.018127
8.536,61.2001,-0.019335
8.567,61.2001,-0.019335
8.587,61.2001,-0.020544
8.613,61.2001,-0.018127
8.644,61.2001,-0.016918
8.675,61.2001,-0.021752
8.697,61.2001,-0.021752
8.721,61.2001,-0.021752
8.752,61.2001,-0.015710
8.782,61.2001,-0.016918
8.813,61.2001,-0.018127
8.845,61.2001,-0.020544
8.877,61.2001,-0.016918
8.907,61.2001,-0.018127
8.939,61.2001,-0.014501
8.970,61.2001,-0.014501
9.002,61.2001,-0.018127
9.033,61.2001,-0.016918
9.064,61.2001,-0.013293
9.095,61.2001,-0.016918
9.126,61.2001,-0.018127
9.157,61.2001,-0.015710
9.188,61.2001,-0.015710
9.209,61.2001,-0.018127
9.239,61.2001,-0.014501
9.266,61.2001,-0.014501
9.287,61.2001,-0.014501
9.312,61.2001,-0.016918
9.343,61.2001,-0.018127
9.374,61.2001,-0.018127
9.406,61.2001,-0.015710
9.436,61.2001,-0.010876
9.467,61.2001,-0.016918
9.498,61.2001,-0.015710
9.529,61.2001,-0.015710
9.560,61.2001,-0.016918
9.590,61.2001,-0.020544
9.622,61.2001,-0.015710
9.654,61.2001,-0.014501
9.686,61.2001,-0.016918
9.717,61.2001,-0.021752
9.747,61.2001,-0.016918
9.777,61.2001,-0.013293
9.798,61.2001,-0.013293
9.825,61.2001,-0.018127
9.848,61.2001,-0.015710
9.870,61.2001,-0.012084
9.901,61.2001,-0.014501
9.933,61.2001,-0.016918
9.963,61.2001,-0.015710
9.995,61.2001,-0.018127
10.027,61.2001,-0.020544
10.057,61.2001,-0.014501
10.088,61.2001,-0.014501
10.118,61.2001,-0.010876
10.149,61.2001,-0.014501
10.180,61.2001,-0.013293
10.211,61.2001,-0.016918
10.242,61.2001,-0.016918
10.262,61.2001,-0.018127
10.288,61.2001,-0.018127
10.319,61.2001,-0.013293
10.349,61.2001,-0.014501
10.381,61.2001,-0.016918
10.411,61.2001,-0.014501
10.442,61.2001,-0.013293
10.473,61.2001,-0.015710
10.505,61.2001,-0.014501
10.536,61.2001,-0.014501
10.567,61.2001,-0.014501
10.598,61.2001,-0.015710
10.630,61.2001,-0.015710
10.660,61.2001,-0.014501
10.692,61.2001,-0.014501
10.723,61.2001,-0.015710
10.755,61.2001,-0.010876
10.785,61.2001,-0.012084
10.806,61.2001,-0.013293
10.832,61.2001,-0.013293
10.864,61.2001,-0.013293
10.894,61.2001,-0.015710
10.926,61.2001,-0.015710
10.956,61.2001,-0.019335
10.987,61.2001,-0.019335
11.017,61.2001,-0.014501
11.048,61.2001,-0.018127
11.081,61.2001,-0.015710
11.111,61.2001,-0.015710
11.142,60.9248,-0.014501
11.172,60.5138,0.072507
11.203,60.0835,0.036253
11.234,59.6739,0.106343
11.254,59.3863,0.148639
11.281,59.0273,0.203019
11.302,58.7423,0.319030
11.327,58.3902,0.319030
11.357,57.9792,0.399996
11.379,57.6833,0.399996
11.404,57.3285,0.036253
11.426,57.0298,0.004834
11.450,56.7119,0.004834
11.481,56.2900,0.002417
11.513,55.8393,0.000000
11.543,55.4310,-0.003625
11.575,55.1501,-0.003625
11.607,55.1501,-0.032628
11.639,55.1501,-0.003625
11.669,55.1501,-0.003625
11.701,55.1501,-0.002417
11.732,55.1501,-0.003625
11.764,55.1501,0.002417
11.794,55.1501,-0.003625
11.825,55.1501,-0.003625
11.856,55.1501,0.002417
11.887,55.1501,0.003625
11.918,55.1501,-0.006042
11.941,55.1501,-0.006042
11.965,55.1501,0.001208
11.988,55.1509,0.000000
12.011,55.3899,-0.007251
12.042,55.8187,-0.074924
12.073,56.2448,-0.001208
12.104,56.6612,0.002417
12.134,57.0791,0.001208
12.167,57.5340,0.000000
12.197,57.9464,0.003625
12.229,58.3696,0.002417
12.260,58.7943,-0.003625
12.290,59.2162,-0.002417
12.321,59.6410,-0.007251
12.353,60.0794,-0.013293
12.384,60.5000,-0.029003
12.418,60.9754,-0.041087
12.448,61.1501,-0.041087
12.476,61.1501,-0.033837
12.507,61.1501,-0.054380
12.538,61.1501,-0.050755
12.560,61.1501,-0.050755
12.584,61.1501,-0.044713
12.616,61.1501,-0.045921
12.647,61.1501,-0.045921
12.678,61.1501,-0.037462
12.709,61.1501,-0.033837
12.741,61.1501,-0.036253
12.771,61.1501,-0.033837
12.802,61.1501,-0.033837
12.833,61.1501,-0.030211
12.864,61.1501,-0.029003
12.895,61.1501,-0.030211
12.929,61.1501,-0.030211
12.958,61.1501,-0.033837
12.989,61.1501,-0.035045
13.020,61.1501,-0.033837
13.051,61.1501,-0.029003
13.082,61.1501,-0.029003
13.112,61.1501,-0.030211
13.144,61.1501,-0.029003
13.174,61.1501,-0.026586
13.205,61.1501,-0.025377
13.236,61.1501,-0.026586
13.268,61.1501,-0.030211
13.299,61.1501,-0.026586
13.330,61.1501,-0.030211
13.362,61.1501,-0.026586
13.393,61.1501,-0.025377
13.424,61.1501,-0.024169
13.455,61.1501,-0.025377
13.486,61.1501,-0.026586
13.517,61.1501,-0.025377
13.547,61.1501,-0.029003
13.578,61.1501,-0.021752
13.599,61.1501,-0.021752
13.624,61.1501,-0.025377
13.656,61.1501,-0.022961
13.687,61.1501,-0.026586
13.719,61.1501,-0.027794
13.750,61.1501,-0.020544
13.781,61.1501,-0.029003
13.814,61.1501,-0.030211
13.844,61.1501,-0.025377
13.877,61.1501,-0.020544
13.907,61.1501,-0.022961
13.938,61.1501,-0.022961
13.970,61.1501,-0.022961
14.001,61.1501,-0.027794
14.032,61.1501,-0.027794
14.062,61.1501,-0.026586
14.094,61.1501,-0.018127
14.125,61.1501,-0.019335
14.156,61.1501,-0.027794
14.188,61.1501,-0.024169
14.218,61.1501,-0.021752
14.238,61.1501,-0.021752
14.265,61.1501,-0.021752
14.297,61.1501,-0.021752
14.329,61.1501,-0.024169
14.351,61.1501,-0.021752
14.378,61.1501,-0.026586
14.399,61.1501,-0.026586
14.423,61.1501,-0.025377
14.453,61.1501,-0.016918
14.483,61.1501,-0.019335
14.515,61.1501,-0.026586
14.545,61.1501,-0.027794
14.577,61.1501,-0.025377
14.608,61.1501,-0.024169
14.629,61.1501,-0.027794
14.655,61.1501,-0.026586
14.687,61.1501,-0.020544
14.718,61.1501,-0.021752
14.748,61.1501,-0.021752
14.778,61.1501,-0.020544
14.809,61.1501,-0.020544
14.845,61.1501,-0.018127
14.872,61.1501,-0.019335
14.903,61.1501,-0.020544
14.934,61.1501,-0.016918
14.965,61.1501,-0.018127
14.995,61.1501,-0.018127
15.026,61.1501,-0.019335
15.058,61.1501,-0.022961
15.088,61.1501,-0.022961
15.109,61.1501,-0.019335
15.135,61.1501,-0.020544
15.166,61.1501,-0.024169
15.198,61.1501,-0.021752
15.228,61.1501,-0.021752
15.259,61.1501,-0.024169
15.289,61.1501,-0.020544
15.321,61.1501,-0.021752
15.353,61.1501,-0.018127
15.386,61.1501,-0.020544
15.414,61.1501,-0.021752
15.445,61.1501,-0.020544
15.466,61.1501,-0.019335
15.493,61.1501,-0.020544
15.523,61.1501,-0.022961
15.554,61.1501,-0.025377
15.585,61.1501,-0.022961
15.616,61.1501,-0.021752
15.637,61.1501,-0.021752
15.662,61.1501,-0.021752
15.693,61.1501,-0.021752
15.716,61.1501,-0.018127
15.739,61.1501,-0.018127
15.770,61.1501,-0.024169
15.801,61.1501,-0.021752
15.832,61.1501,-0.020544
15.864,61.1501,-0.020544
15.894,61.1501,-0.022961
15.925,61.1501,-0.022961
15.956,61.1501,-0.021752
15.986,61.1501,-0.020544
16.018,61.1501,-0.022961
16.050,61.1501,-0.020544
16.082,61.1501,-0.018127
16.113,61.1501,-0.024169
16.147,61.1501,-0.019335
16.175,61.1501,-0.019335
16.196,61.1501,-0.019335
16.222,61.1501,-0.019335
16.253,61.1501,-0.018127
16.284,61.1501,-0.019335
16.315,61.1501,-0.021752
16.347,61.1501,-0.021752
16.377,61.1501,-0.022961
16.408,61.1501,-0.019335
16.439,61.1501,-0.022961
16.470,61.1501,-0.022961
16.501,61.1501,-0.018127
16.532,61.1501,-0.020544
16.563,61.1501,-0.022961
16.594,61.1501,-0.018127
16.624,61.1501,-0.016918
16.656,61.1501,-0.021752
16.686,61.1501,-0.021752
16.708,61.1501,-0.021752
16.733,61.1501,-0.021752
16.765,61.1501,-0.019335
16.795,61.1501,-0.021752
16.827,61.1501,-0.022961
16.858,61.1501,-0.020544
16.890,61.1501,-0.015710
16.920,61.1501,-0.022961
16.952,61.1501,-0.024169
16.982,61.1501,-0.016918
17.013,61.1501,-0.019335
17.044,61.1501,-0.021752
17.075,61.1501,-0.018127
17.106,61.1501,-0.020544
17.136,61.1501,-0.020544
17.166,61.1501,-0.025377
17.187,61.1501,-0.022961
17.213,61.1501,-0.019335
17.244,61.1501,-0.021752
17.275,61.1501,-0.022961
17.305,61.1501,-0.021752
17.337,61.1501,-0.016918
17.370,61.1501,-0.021752
17.399,61.1501,-0.019335
17.430,61.1501,-0.016918
17.460,61.1501,-0.020544
17.491,61.1501,-0.018127
17.521,61.1501,-0.020544
17.553,61.1501,-0.019335
17.584,61.1501,-0.021752
17.615,61.1501,-0.019335
17.637,61.1501,-0.018127
17.661,61.1501,-0.018127
17.693,61.1501,-0.016918
17.724,61.1501,-0.021752
17.754,61.1501,-0.020544
17.785,61.1501,-0.020544
17.816,61.1501,-0.018127
17.847,61.1501,-0.022961
17.877,61.1501,-0.021752
17.909,61.1501,-0.021752
17.939,61.1501,-0.024169
17.970,61.1501,-0.024169
18.002,61.1501,-0.020544
18.033,61.1501,-0.020544
18.065,61.1501,-0.019335
18.096,61.1501,-0.022961
18.128,61.1501,-0.021752
18.159,61.1501,-0.019335
18.190,61.1501,-0.016918
18.210,61.1501,-0.016918
18.237,61.1501,-0.020544
18.267,61.1501,-0.018127
18.297,61.1501,-0.016918
18.328,61.1501,-0.020544
18.358,61.1501,-0.019335
18.390,61.1501,-0.016918
18.421,61.1501,-0.021752
18.453,61.1501,-0.020544
18.484,61.1501,-0.018127
18.515,61.1501,-0.021752
18.545,61.1501,-0.018127
18.577,61.1501,-0.014501
18.607,61.1501,-0.018127
18.638,61.1501,-0.018127
18.659,61.1501,-0.018127
18.685,61.1501,-0.020544
18.707,61.1501,-0.020544
18.730,61.1501,-0.025377
18.761,61.1501,-0.024169
18.793,61.1501,-0.016918
18.823,61.1501,-0.015710
18.855,61.1501,-0.018127
18.885,61.1501,-0.018127
18.916,61.1501,-0.016918
18.948,61.1501,-0.014501
18.978,61.1501,-0.016918
19.011,61.1501,-0.019335
19.041,61.1501,-0.016918
19.072,61.1501,-0.015710
19.103,61.1501,-0.014501
19.134,61.1501,-0.016918
19.154,61.1501,-0.019335
19.180,61.1501,-0.018127
19.211,61.1501,-0.016918
19.243,61.1501,-0.021752
19.274,61.1501,-0.018127
19.304,61.1501,-0.014501
19.336,61.1501,-0.021752
19.367,61.1501,-0.021752
19.399,61.1501,-0.018127
19.430,61.1501,-0.018127
19.461,61.1501,-0.016918
19.492,61.1501,-0.019335
19.524,61.1501,-0.020544
19.555,61.1501,-0.019335
19.587,61.1501,-0.015710
19.617,61.1501,-0.015710
19.647,61.1501,-0.019335
19.679,61.1501,-0.021752
19.711,61.1501,-0.019335
19.743,61.1501,-0.014501
19.774,61.1501,-0.019335
19.806,61.1501,-0.021752
19.836,61.1501,-0.021752
19.867,61.1501,-0.022961
19.897,61.1501,-0.021752
19.931,61.1501,-0.015710
19.960,61.1501,-0.018127
19.991,61.1501,-0.016918
20.022,61.1501,-0.018127
20.055,61.1501,-0.019335
20.085,61.1501,-0.019335
20.116,61.1501,-0.013293
20.147,61.1501,-0.015710
20.179,61.1501,-0.016918
20.209,61.1501,-0.016918
20.240,61.1501,-0.018127
20.271,61.1501,-0.022961
20.301,61.1501,-0.015710
20.322,61.1501,-0.016918
20.347,61.1501,-0.016918
20.379,61.1501,-0.020544
20.410,61.1501,-0.020544
20.441,61.1501,-0.020544
20.473,61.1501,-0.020544
20.504,61.1501,-0.020544
20.535,61.1501,-0.022961
20.566,61.1501,-0.020544
20.597,61.1501,-0.018127
20.629,61.1501,-0.020544
20.661,61.1501,-0.013293
20.692,61.1501,-0.015710
20.722,61.1501,-0.019335
20.753,61.1501,-0.018127
20.784,61.1501,-0.016918
20.816,61.1501,-0.014501
20.846,61.1501,-0.014501
20.877,61.1501,-0.013293
20.898,61.1501,-0.013293
20.925,61.1501,-0.012084
20.945,61.1501,-0.018127
20.971,61.1501,-0.015710
21.002,61.1501,-0.014501
21.033,61.1501,-0.014501
21.064,61.1501,-0.016918
21.085,61.1501,-0.014501
21.110,61.1501,-0.014501
21.141,61.1501,-0.013293
21.172,61.1501,-0.015710
21.204,61.1501,-0.020544
21.233,61.1501,-0.020544
21.264,61.1501,-0.016918
21.294,61.1501,-0.014501
21.326,61.1501,-0.014501
21.356,61.1501,-0.016918
21.388,61.1501,-0.018127
21.419,61.1501,-0.014501
21.450,61.1501,-0.015710
21.481,61.1501,-0.015710
21.501,61.1501,-0.020544
21.528,61.1501,-0.018127
21.549,61.1501,-0.013293
21.574,61.1501,-0.013293
21.605,61.1501,-0.015710
21.636,61.1501,-0.015710
21.667,61.1501,-0.016918
21.698,61.1501,-0.016918
21.729,61.1501,-0.014501
21.761,61.1501,-0.015710
21.792,61.1501,-0.015710
21.822,61.1501,-0.013293
21.855,61.1501,-0.015710
21.885,61.1501,-0.018127
21.915,61.1501,-0.013293
21.947,61.1501,-0.013293
21.978,61.1501,-0.018127
22.009,61.1501,-0.015710
22.029,61.1501,-0.013293
22.057,61.1501,-0.018127
22.086,61.1501,-0.018127
22.117,61.1501,-0.018127
22.147,61.1501,-0.020544
22.180,61.1501,-0.018127
22.210,61.1501,-0.012084
22.240,61.1501,-0.019335
22.272,61.1501,-0.014501
22.302,61.1501,-0.015710
22.334,61.1501,-0.018127
22.366,61.1501,-0.019335
22.397,61.1501,-0.015710
22.428,61.1501,-0.016918
22.459,61.1501,-0.015710
22.491,61.1501,-0.013293
22.522,61.1501,-0.013293
22.553,61.1501,-0.014501
22.585,61.1501,-0.015710
22.617,61.1501,-0.013293
22.647,61.1501,-0.013293
22.678,61.1501,-0.018127
22.710,61.1501,-0.019335
22.732,61.1501,-0.018127
22.757,61.1501,-0.014501
22.790,61.1501,-0.020544
22.812,61.1501,-0.018127
22.837,61.1501,-0.012084
22.868,61.1501,-0.013293
22.898,61.1501,-0.014501
22.930,61.1501,-0.013293
22.961,61.1501,-0.014501
22.993,61.1501,-0.012084
23.024,61.1501,-0.019335
23.054,61.1501,-0.016918
23.086,61.1501,-0.014501
23.117,61.1501,-0.015710
23.148,61.1501,-0.018127
23.179,61.1501,-0.012084
23.209,61.1501,-0.015710
23.240,61.1501,-0.015710
23.271,61.1501,-0.016918
23.291,61.1501,-0.016918
23.317,61.1501,-0.015710
23.348,61.1501,-0.019335
23.379,61.1501,-0.019335
23.411,61.1501,-0.014501
23.441,61.1501,-0.016918
23.471,61.1501,-0.014501
23.502,61.1501,-0.014501
23.534,61.1501,-0.014501
23.566,61.1501,-0.013293
23.597,61.1501,-0.016918
23.628,61.1501,-0.016918
23.659,61.1501,-0.015710
23.690,61.1501,-0.014501
23.721,61.1501,-0.019335
23.752,61.1501,-0.016918
23.783,61.1501,-0.016918
23.803,61.1501,-0.016918
23.829,61.1501,-0.016918
23.860,61.1501,-0.015710
23.891,61.1501,-0.015710
23.923,61.1501,-0.016918
23.953,61.1494,-0.020544
23.984,60.8186,-0.018127
24.016,60.3911,0.068882
24.047,59.9569,0.036253
24.078,59.5418,0.154681
24.108,59.1170,0.154681
24.140,58.6869,0.320239
24.171,58.2512,0.383078
24.202,57.8388,0.433833
24.233,57.4087,0.198185
24.264,56.9935,0.004834
24.295,56.5620,0.003625
24.327,56.1195,0.001208
24.347,55.8496,0.001208
24.373,55.4880,-0.002417
24.395,55.2002,-0.001208
24.419,55.1000,0.001208
24.450,55.1000,-0.068882
24.481,55.1000,-0.008459
24.512,55.1000,0.000000
24.544,55.1000,0.001208
24.575,55.1000,-0.002417
24.607,55.1000,-0.003625
24.642,55.1000,-0.002417
24.669,55.1000,-0.002417
24.699,55.1428,0.000000
24.730,55.5507,-0.056797
24.761,55.9769,-0.001208
24.792,56.4070,0.000000
24.823,56.8372,0.000000
24.846,57.1605,-0.002417
24.870,57.4701,0.001208
24.890,57.7510,0.001208
24.916,58.1086,0.002417
24.947,58.5278,-0.002417
24.978,58.9552,0.003625
25.009,59.3786,0.004834
25.040,59.8141,-0.006042
25.071,60.2293,-0.014501
25.102,60.6581,-0.016918
25.133,61.0680,-0.041087
25.165,61.1000,-0.048338
25.196,61.1000,-0.051963
25.227,61.1000,-0.049546
25.257,61.1000,-0.049546
25.288,61.1000,-0.044713
25.319,61.1000,-0.037462
25.349,61.1000,-0.042296
25.371,61.1000,-0.042296
25.396,61.1000,-0.036253
25.418,61.1000,-0.036253
25.442,61.1000,-0.033837
25.473,61.1000,-0.030211
25.504,61.1000,-0.029003
25.535,61.1000,-0.037462
25.566,61.1000,-0.036253
25.597,61.1000,-0.031420
25.628,61.1000,-0.031420
25.660,61.1000,-0.027794
25.691,61.1000,-0.029003
25.722,61.1000,-0.035045
25.753,61.1000,-0.032628
25.785,61.1000,-0.030211
25.817,61.1000,-0.025377
25.848,61.1000,-0.027794
25.878,61.1000,-0.025377
25.898,61.1000,-0.026586
25.924,61.1000,-0.026586
25.955,61.1000,-0.022961
25.986,61.1000,-0.026586
26.009,61.1000,-0.025377
26.032,61.1000,-0.025377
26.065,61.1000,-0.026586
26.094,61.1000,-0.025377
26.125,61.1000,-0.026586
26.155,61.1000,-0.022961
26.186,61.1000,-0.022961
26.217,61.1000,-0.025377
26.248,61.1000,-0.025377
26.279,61.1000,-0.021752
26.310,61.1000,-0.020544
26.342,61.1000,-0.018127
26.372,61.1000,-0.021752
26.403,61.1000,-0.024169
26.424,61.1000,-0.020544
26.448,61.1000,-0.020544
26.480,61.1000,-0.022961
26.512,61.1000,-0.027794
26.542,61.1000,-0.024169
26.564,61.1000,-0.022961
26.590,61.1000,-0.021752
26.621,61.1000,-0.021752
26.652,61.1000,-0.021752
26.684,61.1000,-0.025377
26.714,61.1000,-0.024169
26.745,61.1000,-0.020544
26.776,61.1000,-0.024169
26.808,61.1000,-0.027794
26.839,61.1000,-0.019335
26.870,61.1000,-0.024169
26.901,61.1000,-0.022961
26.931,61.1000,-0.022961
26.962,61.1000,-0.016918
26.993,61.1000,-0.020544
27.024,61.1000,-0.019335
27.055,61.1000,-0.020544
27.076,61.1000,-0.020544
27.102,61.1000,-0.024169
27.123,61.1000,-0.022961
27.148,61.1000,-0.022961
27.179,61.1000,-0.024169
27.210,61.1000,-0.020544
27.240,61.1000,-0.024169
27.271,61.1000,-0.022961
27.302,61.1000,-0.022961
27.333,61.1000,-0.021752
27.369,61.1000,-0.018127
27.395,61.1000,-0.021752
27.426,61.1000,-0.021752
27.457,61.1000,-0.020544
27.487,61.1000,-0.019335
27.519,61.1000,-0.018127
27.539,61.1000,-0.018127
27.566,61.1000,-0.019335
27.597,61.1000,-0.024169
27.628,61.1000,-0.022961
27.658,61.1000,-0.020544
27.690,61.1000,-0.021752
27.721,61.1000,-0.018127
27.753,61.1000,-0.019335
27.784,61.1000,-0.020544
27.816,61.1000,-0.019335
27.846,61.1000,-0.024169
27.877,61.1000,-0.020544
27.907,61.1000,-0.019335
27.938,61.1000,-0.019335
27.969,61.1000,-0.021752
28.000,61.1000,-0.019335
28.020,61.1000,-0.018127
28.046,61.1000,-0.018127
28.067,61.1000,-0.018127
28.092,61.1000,-0.021752
28.123,61.1000,-0.018127
28.154,61.1000,-0.018127
28.185,61.1000,-0.024169
28.210,61.1000,-0.024169
28.232,61.1000,-0.019335
28.263,61.1000,-0.021752
28.293,61.1000,-0.022961
28.324,61.1000,-0.019335
28.356,61.1000,-0.020544
28.387,61.1000,-0.019335
28.418,61.1000,-0.022961
28.449,61.1000,-0.022961
28.480,61.1000,-0.016918
28.511,61.1000,-0.020544
28.543,61.1000,-0.020544
28.573,61.1000,-0.019335
28.606,61.1000,-0.018127
28.636,61.1000,-0.018127
28.667,61.1000,-0.016918
28.688,61.1000,-0.018127
28.714,61.1000,-0.014501
28.745,61.1000,-0.018127
28.766,61.1000,-0.021752
28.791,61.1000,-0.020544
28.822,61.1000,-0.018127
28.854,61.1000,-0.019335
28.886,61.1000,-0.022961
28.917,61.1000,-0.015710
28.948,61.1000,-0.020544
28.979,61.1000,-0.018127
29.010,61.1000,-0.018127
29.041,61.1000,-0.014501
29.073,61.1000,-0.018127
29.105,61.1000,-0.019335
29.138,61.1000,-0.016918
29.168,61.1000,-0.018127
29.199,61.1000,-0.018127
29.230,61.1000,-0.020544
29.261,61.1000,-0.019335
29.292,61.1000,-0.018127
29.324,61.1000,-0.020544
29.354,61.1000,-0.021752
29.375,61.1000,-0.020544
29.400,61.1000,-0.015710
29.431,61.1000,-0.020544
29.462,61.1000,-0.019335
29.492,61.1000,-0.014501
29.523,61.1000,-0.016918
29.555,61.1000,-0.016918
29.586,61.1000,-0.019335
29.619,61.1000,-0.015710
29.649,61.1000,-0.015710
29.680,61.1000,-0.021752
29.710,61.1000,-0.021752
29.741,61.1000,-0.015710
29.772,61.1000,-0.020544
29.802,61.1000,-0.019335
29.834,61.1000,-0.018127
29.865,61.1000,-0.015710
29.897,61.1000,-0.016918
29.918,61.1000,-0.016918
29.943,61.1000,-0.016918
29.975,61.1000,-0.014501
30.006,61.1000,-0.016918
30.037,61.1000,-0.015710
30.071,61.1000,-0.018127
30.099,61.1000,-0.016918
30.130,61.1000,-0.016918
30.160,61.1000,-0.013293
30.191,61.1000,-0.016918
30.222,61.1000,-0.020544
30.253,61.1000,-0.020544
30.285,61.1000,-0.020544
30.316,61.1000,-0.015710
30.347,61.1000,-0.015710
30.378,61.1000,-0.021752
30.409,61.1000,-0.022961
30.431,61.1000,-0.022961
30.456,61.1000,-0.020544
30.477,61.1000,-0.020544
30.503,61.1000,-0.020544
30.534,61.1000,-0.015710
30.566,61.1000,-0.016918
30.596,61.1000,-0.016918
30.627,61.1000,-0.018127
30.657,61.1000,-0.019335
30.688,61.1000,-0.014501
30.720,61.1000,-0.016918
30.751,61.1000,-0.018127
30.784,61.1000,-0.019335
30.815,61.1000,-0.018127
30.846,61.1000,-0.020544
30.877,61.1000,-0.014501
30.908,61.1000,-0.015710
30.938,61.1000,-0.019335
30.969,61.1000,-0.022961
31.000,61.1000,-0.019335
31.032,61.1000,-0.016918
31.063,61.1000,-0.014501
31.094,61.1000,-0.016918
31.114,61.1000,-0.016918
31.140,61.1000,-0.016918
31.172,61.1000,-0.019335
31.203,61.1000,-0.020544
31.234,61.1000,-0.013293
31.266,61.1000,-0.013293
31.296,61.1000,-0.015710
31.327,61.1000,-0.016918
31.358,61.1000,-0.014501
31.389,61.1000,-0.014501
31.420,61.1000,-0.018127
31.452,61.1000,-0.015710
31.483,61.1000,-0.019335
31.504,61.1000,-0.018127
31.530,61.1000,-0.018127
31.560,61.1000,-0.020544
31.590,61.1000,-0.016918
31.622,61.1000,-0.012084
31.653,61.1000,-0.015710
31.684,61.1000,-0.016918
31.715,61.1000,-0.015710
31.746,61.1000,-0.015710
31.777,61.1000,-0.018127
31.808,61.1000,-0.018127
31.839,61.1000,-0.019335
31.870,61.1000,-0.019335
31.900,61.1000,-0.018127
31.932,61.1000,-0.014501
31.952,61.1000,-0.015710
31.980,61.1000,-0.018127
32.010,61.1000,-0.018127
32.040,61.1000,-0.018127
32.061,61.1000,-0.020544
32.087,61.1000,-0.020544
32.119,61.1000,-0.016918
32.149,61.1000,-0.016918
32.180,61.1000,-0.015710
32.210,61.1000,-0.018127
32.242,61.1000,-0.014501
32.273,61.1000,-0.014501
32.305,61.1000,-0.016918
32.336,61.1000,-0.013293
32.368,61.1000,-0.018127
32.398,61.1000,-0.016918
32.430,61.1000,-0.014501
32.461,61.1000,-0.013293
32.492,61.1000,-0.015710
32.523,61.1000,-0.015710
32.554,61.1000,-0.014501
32.584,61.1000,-0.013293
32.616,61.1000,-0.016918
32.647,61.1000,-0.016918
32.670,61.1000,-0.015710
32.695,61.1000,-0.014501
32.716,61.1000,-0.016918
32.741,61.1000,-0.016918
32.772,61.1000,-0.019335
32.805,61.1000,-0.016918
32.835,61.1000,-0.015710
32.866,61.1000,-0.013293
32.897,61.1000,-0.019335
32.936,61.1000,-0.014501
32.956,61.1000,-0.014501
32.990,61.1000,-0.014501
33.022,61.1000,-0.021752
33.053,61.1000,-0.013293
33.084,61.1000,-0.015710
33.115,61.1000,-0.018127
33.146,61.1000,-0.016918
33.177,61.1000,-0.018127
33.208,61.1000,-0.018127
33.238,61.1000,-0.021752
33.260,61.1000,-0.021752
33.285,61.1000,-0.020544
33.316,61.1000,-0.016918
33.346,61.1000,-0.016918
33.377,61.1000,-0.016918
33.409,61.1000,-0.016918
33.440,61.1000,-0.018127
33.471,61.1000,-0.020544
33.503,61.1000,-0.013293
33.532,61.1000,-0.015710
33.563,61.1000,-0.015710
33.594,61.1000,-0.021752
33.625,61.1000,-0.016918
33.656,61.1000,-0.015710
33.687,61.1000,-0.016918
33.708,61.1000,-0.016918
33.735,61.1000,-0.018127
33.756,61.1000,-0.016918
33.781,61.1000,-0.014501
33.813,61.1000,-0.018127
33.845,61.1000,-0.014501
33.875,61.1000,-0.015710
33.907,61.1000,-0.014501
33.945,61.1000,-0.016918
33.968,61.1000,-0.016918
34.000,61.1000,-0.015710
34.031,61.1000,-0.019335
34.062,61.1000,-0.014501
34.093,61.1000,-0.012084
34.126,61.1000,-0.014501
34.155,61.1000,-0.015710
34.186,61.1000,-0.014501
34.217,61.1000,-0.010876
34.248,61.1000,-0.013293
34.280,61.1000,-0.019335
34.301,61.1000,-0.018127
34.326,61.1000,-0.018127
34.357,61.1000,-0.014501
34.388,61.1000,-0.016918
34.419,61.1000,-0.018127
34.450,61.1000,-0.018127
34.482,61.1000,-0.014501
34.512,61.1000,-0.014501
34.544,61.1000,-0.018127
34.574,61.1000,-0.019335
34.606,61.1000,-0.018127
34.637,61.1000,-0.012084
34.668,61.1000,-0.012084
34.699,61.1000,-0.014501
34.730,61.1000,-0.018127
34.757,61.1000,-0.015710
34.793,61.1000,-0.018127
34.825,61.1000,-0.013293
34.856,61.1000,-0.018127
34.887,61.1000,-0.019335
34.917,61.1000,-0.018127
34.949,61.1000,-0.018127
34.981,61.1000,-0.015710
35.011,61.1000,-0.015710
35.043,61.1000,-0.014501
35.074,61.1000,-0.018127
35.104,61.1000,-0.015710
35.125,61.1000,-0.013293
35.152,61.1000,-0.018127
35.182,61.1000,-0.016918
35.213,61.1000,-0.015710
35.244,61.1000,-0.013293
35.274,61.1000,-0.014501
35.295,61.1000,-0.016918
35.321,61.1000,-0.018127
35.351,61.1000,-0.013293
35.383,61.1000,-0.016918
35.413,61.1000,-0.018127
35.445,61.1000,-0.015710
35.475,61.1000,-0.013293
35.505,61.1000,-0.013293
35.536,61.1000,-0.018127
35.568,61.1000,-0.018127
35.598,61.1000,-0.013293
35.630,61.1000,-0.013293
35.661,61.1000,-0.015710
35.692,61.1000,-0.013293
35.723,61.1000,-0.015710
35.743,61.1000,-0.015710
35.769,61.1000,-0.015710
35.801,61.1000,-0.016918
35.821,61.1000,-0.016918
35.847,61.1000,-0.016918
35.878,61.1000,-0.016918
35.911,61.1000,-0.018127
35.941,61.1000,-0.018127
35.972,61.1000,-0.015710
36.003,61.1000,-0.019335
36.034,61.1000,-0.012084
36.067,61.1000,-0.013293
36.096,61.1000,-0.018127
36.127,61.1000,-0.018127
36.158,61.1000,-0.015710
36.189,61.1000,-0.015710
36.220,61.1000,-0.015710
36.251,61.1000,-0.019335
36.283,61.1000,-0.010876
36.316,61.1000,-0.019335
36.345,61.1000,-0.019335
36.375,61.1000,-0.015710
36.406,61.1000,-0.014501
36.437,61.1000,-0.014501
36.468,61.1000,-0.015710
36.499,61.1000,-0.010876
36.520,61.1000,-0.012084
36.545,61.1000,-0.012084
36.577,61.1000,-0.018127
36.608,61.1000,-0.019335
36.640,61.1000,-0.012084
36.671,61.1000,-0.014501
36.701,61.0660,-0.016918
36.733,60.6330,0.035045
36.764,60.2161,0.068882
36.794,59.8021,0.071298
36.825,59.3633,0.158307
36.855,58.9534,0.268275
36.877,58.6554,0.268275
36.901,58.3076,0.328698
36.933,57.8687,0.425374
36.963,57.4713,0.362534
36.994,57.0242,0.006042
37.026,56.5867,-0.002417
37.057,56.1576,0.003625
37.080,55.8456,0.003625
37.103,55.5213,0.002417
37.134,55.1016,0.000000
37.166,55.0500,-0.001208
37.197,55.0500,-0.006042
37.228,55.0500,-0.001208
37.258,55.0500,0.000000
37.289,55.0500,0.000000
37.320,55.0500,-0.004834
37.352,55.0500,-0.001208
37.373,55.0500,0.000000
37.397,55.0500,-0.001208
37.428,55.0672,-0.003625
37.459,55.4606,-0.013293
37.490,55.8869,-0.021752
37.521,56.3092,0.004834
37.553,56.7550,-0.002417
37.585,57.2063,-0.007251
37.614,57.5982,0.001208
37.645,58.0316,0.002417
37.677,58.4690,-0.002417
37.709,58.9203,-0.002417
37.739,59.3218,0.001208
37.769,59.7441,-0.003625
37.800,60.1664,-0.015710
37.822,60.4659,-0.022961
37.847,60.8081,-0.022961
37.878,61.0500,-0.032628
37.909,61.0500,-0.030211
37.940,61.0500,0.007251
37.972,61.0500,-0.050755
38.003,61.0500,-0.044713
38.034,61.0500,-0.045921
38.065,61.0500,-0.041087
38.096,61.0500,-0.038670
38.126,61.0500,-0.039879
38.158,61.0500,-0.037462
38.189,61.0500,-0.037462
38.220,61.0500,-0.032628
