Elapsed Time (s),Position (mm),Force (N)
-0.020,71.9093,-0.182514
0.012,71.9093,-0.182514
0.042,71.9093,-0.182514
0.073,71.9093,-0.182514
0.106,71.9093,-0.182514
0.136,71.9093,-0.182514
0.168,71.9093,-0.129769
0.199,71.9093,-0.129769
0.231,71.9093,-0.129769
0.262,71.9093,-0.129769
0.293,71.9093,-0.129769
0.325,71.9093,-0.129769
0.355,71.9093,-0.129769
0.385,71.9093,-0.118721
0.416,71.9093,-0.118721
0.446,71.9093,-0.118721
0.478,71.9093,-0.118721
0.509,71.9093,-0.118721
0.540,71.9093,-0.118721
0.571,71.9093,-0.118721
0.602,71.9093,-0.118721
0.633,71.9093,-0.112106
0.664,71.9093,-0.112106
0.695,71.9093,-0.112106
0.726,71.9093,-0.112106
0.757,71.9093,-0.112106
0.789,71.9093,-0.112106
0.820,71.9093,-0.112106
0.851,71.9093,-0.112106
0.882,71.9093,-0.112106
0.914,71.9093,-0.107175
0.946,71.9093,-0.107175
0.976,71.9093,-0.107175
1.007,71.9093,-0.107175
1.039,71.9093,-0.107175
1.071,71.9093,-0.107175
1.101,71.9093,-0.107175
1.133,71.9093,-0.107175
1.164,71.9093,-0.103392
1.195,71.9093,-0.103392
1.226,71.9093,-0.103392
1.258,71.9093,-0.103392
1.288,71.9093,-0.103392
1.319,71.9093,-0.103392
1.350,71.9093,-0.103392
1.381,71.9093,-0.100315
1.412,71.9093,-0.100315
1.443,71.9093,-0.100315
1.474,71.9093,-0.100315
1.505,71.9093,-0.100315
1.537,71.9093,-0.100315
1.568,71.9093,-0.100315
1.599,71.9093,-0.100315
1.630,71.9093,-0.097755
1.659,71.9093,-0.097755
1.690,71.9093,-0.097755
1.723,71.9093,-0.097755
1.752,71.9093,-0.097755
1.785,71.9093,-0.097755
1.814,71.9093,-0.097755
1.845,71.9093,-0.097755
1.876,71.9093,-0.095572
1.906,71.9093,-0.095572
1.936,71.9093,-0.095572
1.967,71.9093,-0.095572
1.997,71.9093,-0.095572
2.028,71.9093,-0.095572
2.058,71.9093,-0.095572
2.090,71.9093,-0.095572
2.120,71.9093,-0.093662
2.151,71.9093,-0.093662
2.182,71.9093,-0.093662
2.213,71.9093,-0.093662
2.244,71.9093,-0.093662
2.275,71.9093,-0.093662
2.306,71.9093,-0.093662
2.338,71.9093,-0.093662
2.369,71.9093,-0.093662
2.401,71.9093,-0.091968
2.432,71.9093,-0.091968
2.462,71.9093,-0.091968
2.493,71.9093,-0.091968
2.524,71.9093,-0.091968
2.555,71.9093,-0.091968
2.586,71.9093,-0.091968
2.617,71.9093,-0.091968
2.648,71.9093,-0.091968
2.679,71.9093,-0.090471
2.710,71.9093,-0.090471
2.741,71.9093,-0.090471
2.773,71.9093,-0.090471
2.805,71.9093,-0.090471
2.836,71.9093,-0.090471
2.867,71.9093,-0.090471
2.899,71.9093,-0.090471
2.931,71.9093,-0.089098
2.961,71.9093,-0.089098
2.993,71.9093,-0.089098
3.023,71.9093,-0.089098
3.054,71.9093,-0.089098
3.085,71.9093,-0.089098
3.117,71.9093,-0.089098
3.147,71.9093,-0.087874
3.180,71.9093,-0.087874
3.210,71.9093,-0.087874
3.238,71.9093,-0.087874
3.272,71.9093,-0.087874
3.302,71.9093,-0.087874
3.333,71.9093,-0.087874
3.365,71.9093,-0.087874
3.396,71.9093,-0.086830
3.426,71.9093,-0.086830
3.457,71.9093,-0.086830
3.487,71.9093,-0.086830
3.518,71.9093,-0.086830
3.549,71.9093,-0.086830
3.580,71.9093,-0.086830
3.611,71.9093,-0.086830
3.642,71.9093,-0.085682
3.673,71.9093,-0.085682
3.704,71.9093,-0.085682
3.735,71.9093,-0.085682
3.767,71.9093,-0.085682
3.799,71.9093,-0.085682
3.830,71.9093,-0.085682
3.861,71.9093,-0.085682
3.892,71.9093,-0.084355
3.923,71.9093,-0.084355
3.956,71.9093,-0.084355
3.987,71.9093,-0.084355
4.019,71.9093,-0.084355
4.050,71.9093,-0.084355
4.082,71.9093,-0.084355
4.113,71.9090,-0.084355
4.143,71.9080,-0.083084
4.174,71.9062,-0.083084
4.205,71.9038,-0.083084
4.237,71.9005,-0.083084
4.267,71.8968,-0.083084
4.298,71.8920,-0.083084
4.330,71.8866,-0.083084
4.360,71.8806,-0.083084
4.391,71.8738,-0.015744
4.423,71.8660,-0.015744
4.453,71.8579,-0.015744
4.484,71.8489,-0.015744
4.515,71.8392,-0.015744
4.546,71.8288,-0.015744
4.576,71.8176,-0.015744
4.608,71.8057,-0.015744
4.639,71.7930,0.017720
4.669,71.7799,0.017720
4.701,71.7655,0.017720
4.732,71.7510,0.017720
4.762,71.7353,0.017720
4.795,71.7184,0.017720
4.825,71.7018,0.017720
4.856,71.6844,0.017720
4.887,71.6657,-0.009570
4.918,71.6464,-0.009570
4.949,71.6271,-0.009570
4.980,71.6056,-0.009570
5.011,71.5851,-0.009570
5.042,71.5625,-0.009570
5.073,71.5393,-0.009570
5.105,71.5153,-0.009570
5.135,71.4919,0.006004
5.166,71.4666,0.006004
5.197,71.4407,0.006004
5.228,71.4143,0.006004
5.259,71.3873,0.006004
5.291,71.3592,0.006004
5.320,71.3310,0.006004
5.351,71.3028,0.006004
5.383,71.2717,0.006004
5.413,71.2419,0.023865
5.446,71.2078,0.023865
5.474,71.1788,0.023865
5.505,71.1451,0.023865
5.536,71.1116,0.023865
5.570,71.0730,0.023865
5.599,71.0424,0.023865
5.630,71.0060,0.037190
5.661,70.9686,0.037190
5.693,70.9304,0.037190
5.725,70.8911,0.037190
5.756,70.8524,0.037190
5.786,70.8139,0.037190
5.820,70.7695,0.037190
5.848,70.7323,0.037190
5.879,70.6909,0.037190
5.910,70.6485,0.044972
5.941,70.6043,0.044972
5.971,70.5633,0.044972
6.002,70.5189,0.044972
6.034,70.4723,0.044972
6.064,70.4267,0.044972
6.095,70.3791,0.044972
6.129,70.3287,0.044972
6.157,70.2871,0.044972
6.188,70.2405,0.049950
6.219,70.1933,0.049950
6.253,70.1431,0.049950
6.282,70.0992,0.049950
6.313,70.0543,0.049950
6.343,70.0076,0.049950
6.374,69.9614,0.049950
6.405,69.9146,0.049950
6.436,69.8687,0.053752
6.463,69.8289,0.053752
6.497,69.7770,0.053752
6.529,69.7283,0.053752
6.560,69.6833,0.053752
6.592,69.6347,0.053752
6.623,69.5883,0.056368
6.657,69.5372,0.056368
6.686,69.4936,0.056368
6.717,69.4475,0.056368
6.748,69.4005,0.056368
6.778,69.3559,0.056368
6.810,69.3069,0.056368
6.841,69.2620,0.056368
6.871,69.2161,0.056368
6.902,69.1697,0.056368
6.933,69.1229,0.057121
6.966,69.0746,0.057121
6.997,69.0282,0.057121
7.027,68.9830,0.057121
7.058,68.9362,0.057121
7.089,68.8896,0.057121
7.121,68.8407,0.057121
7.151,68.7963,0.050666
7.183,68.7483,0.050666
7.212,68.7045,0.050666
7.243,68.6584,0.050666
7.273,68.6134,0.050666
7.304,68.5664,0.050666
7.335,68.5205,0.050666
7.367,68.4725,0.050666
7.398,68.4260,0.028175
7.428,68.3801,0.028175
7.459,68.3351,0.028175
7.491,68.2868,0.028175
7.521,68.2434,0.028175
7.551,68.1990,0.028175
7.582,68.1571,0.028175
7.613,68.1126,0.028175
7.643,68.0721,0.010897
7.674,68.0293,0.010897
7.705,67.9898,0.010897
7.737,67.9469,0.010897
7.766,67.9108,0.010897
7.799,67.8696,0.010897
7.829,67.8335,0.010897
7.860,67.7949,0.010897
7.891,67.7582,0.009693
7.927,67.7169,0.009693
7.953,67.6884,0.009693
7.985,67.6539,0.009693
8.015,67.6201,0.009693
8.046,67.5868,0.009693
8.078,67.5549,0.009693
8.110,67.5225,0.009693
8.140,67.4924,0.009250
8.171,67.4622,0.009250
8.202,67.4330,0.009250
8.233,67.4050,0.009250
8.263,67.3773,0.009250
8.294,67.3503,0.009250
8.325,67.3241,0.009250
8.356,67.2982,0.009250
8.387,67.2737,0.009072
8.418,67.2492,0.009072
8.450,67.2252,0.009072
8.481,67.2026,0.009072
8.512,67.1803,0.009072
8.542,67.1597,0.009072
8.573,67.1392,0.009072
8.605,67.1186,0.009072
8.635,67.1003,0.009072
8.666,67.0820,0.008987
8.697,67.0647,0.008987
8.728,67.0473,0.008987
8.759,67.0313,0.008987
8.791,67.0154,0.008987
8.821,67.0012,0.008987
8.854,66.9864,0.008987
8.881,66.9745,0.008874
8.912,66.9620,0.008874
8.943,66.9502,0.008874
8.974,66.9392,0.008874
9.004,66.9289,0.008874
9.037,66.9190,0.008874
9.067,66.9098,0.008874
9.098,66.9018,0.008874
9.129,66.8943,0.008780
9.160,66.8876,0.008780
9.191,66.8814,0.008780
9.222,66.8762,0.008780
9.252,66.8717,0.008780
9.284,66.8676,0.008780
9.315,66.8645,0.008780
9.347,66.8622,0.008780
9.377,66.8604,0.008676
9.408,66.8595,0.008676
9.439,66.8593,0.008676
9.470,66.8593,0.008676
9.501,66.8593,0.008676
9.532,66.8593,0.008676
9.562,66.8593,0.008676
9.594,66.8598,0.008676
9.625,66.8609,0.008620
9.657,66.8629,0.008620
9.687,66.8654,0.008620
9.719,66.8688,0.008620
9.750,66.8729,0.008620
9.781,66.8778,0.008620
9.811,66.8831,0.008620
9.842,66.8894,0.008620
9.873,66.8964,0.008620
9.904,66.9041,0.008620
9.936,66.9128,0.008498
9.968,66.9222,0.008498
9.999,66.9323,0.008498
10.030,66.9431,0.008498
10.061,66.9544,0.008498
10.093,66.9667,0.008498
10.123,66.9796,0.008498
10.154,66.9931,0.008366
10.186,67.0075,0.008366
10.218,67.0230,0.008366
10.248,67.0385,0.008366
10.280,67.0555,0.008366
10.309,67.0719,0.008366
10.342,67.0911,0.008366
10.373,67.1097,0.008366
10.405,67.1293,0.008140
10.437,67.1501,0.008140
10.468,67.1715,0.008140
10.499,67.1932,0.008140
10.530,67.2155,0.008140
10.560,67.2382,0.008140
10.591,67.2618,0.008140
10.622,67.2864,0.008140
10.653,67.3124,0.008140
10.684,67.3377,0.007829
10.716,67.3653,0.007829
10.747,67.3921,0.007829
10.778,67.4209,0.007829
10.808,67.4497,0.007829
10.840,67.4798,0.007829
10.871,67.5099,0.007829
10.901,67.5404,0.007829
10.932,67.5719,0.007594
10.963,67.6043,0.007594
10.993,67.6378,0.007594
11.024,67.6714,0.007594
11.055,67.7056,0.007594
11.087,67.7420,0.007594
11.118,67.7774,0.007594
11.149,67.8153,0.007302
11.181,67.8535,0.007302
11.212,67.8925,0.007302
11.243,67.9315,0.007302
11.275,67.9724,0.007302
11.304,68.0110,0.007302
11.336,68.0540,0.007302
11.368,68.0964,0.007302
11.398,68.1392,0.006898
11.429,68.1824,0.006898
11.461,68.2278,0.006898
11.492,68.2719,0.006898
11.523,68.3193,0.006898
11.557,68.3694,0.006898
11.585,68.4115,0.006898
11.617,68.4594,0.006898
11.647,68.5038,0.006296
11.678,68.5505,0.006296
11.708,68.5960,0.006296
11.739,68.6419,0.006296
11.770,68.6880,0.006296
11.801,68.7354,0.006296
11.832,68.7809,0.006296
11.862,68.8267,0.006296
11.893,68.8727,0.006296
11.924,68.9192,0.005703
11.955,68.9657,0.005703
11.986,69.0122,0.005703
12.016,69.0569,0.005703
12.047,69.1049,0.005703
12.078,69.1493,0.005703
12.109,69.1973,0.005703
12.139,69.2424,0.005063
12.171,69.2899,0.005063
12.201,69.3365,0.005063
12.238,69.3899,0.005063
12.279,69.4520,0.005063
12.310,69.4979,0.005063
12.341,69.5445,0.005063
12.372,69.5914,0.005063
12.403,69.6382,0.004094
12.434,69.6844,0.004094
12.466,69.7319,0.004094
12.497,69.7786,0.004094
12.528,69.8248,0.004094
12.560,69.8724,0.004094
12.590,69.9181,0.004094
12.621,69.9641,0.004094
12.652,70.0114,0.002560
12.682,70.0571,0.002560
12.713,70.1030,0.002560
12.744,70.1495,0.002560
12.775,70.1961,0.002560
12.807,70.2439,0.002560
12.838,70.2919,0.002560
12.870,70.3375,-0.000386
12.902,70.3857,-0.000386
12.932,70.4298,-0.000386
12.962,70.4746,-0.000386
12.993,70.5184,-0.000386
13.024,70.5635,-0.000386
13.056,70.6069,-0.000386
13.089,70.6526,-0.000386
13.116,70.6891,-0.000386
13.147,70.7292,-0.006352
13.178,70.7694,-0.006352
13.209,70.8087,-0.006352
13.239,70.8463,-0.006352
13.269,70.8837,-0.006352
13.300,70.9219,-0.006352
13.332,70.9585,-0.006352
13.364,70.9950,-0.017287
13.394,71.0298,-0.017287
13.426,71.0648,-0.017287
13.456,71.0987,-0.017287
13.488,71.1310,-0.017287
13.518,71.1638,-0.017287
13.550,71.1949,-0.017287
13.580,71.2257,-0.017287
13.612,71.2556,-0.017287
13.642,71.2850,-0.034837
13.674,71.3140,-0.034837
13.705,71.3410,-0.034837
13.735,71.3677,-0.034837
13.766,71.3940,-0.034837
13.797,71.4198,-0.034837
13.828,71.4443,-0.034837
13.859,71.4690,-0.034837
13.890,71.4923,-0.058589
13.921,71.5153,-0.058589
13.952,71.5371,-0.058589
13.983,71.5583,-0.058589
14.014,71.5790,-0.058589
14.046,71.5990,-0.058589
14.077,71.6188,-0.058589
14.108,71.6368,-0.058589
14.140,71.6549,-0.058589
14.170,71.6715,-0.086500
14.202,71.6880,-0.086500
14.233,71.7035,-0.086500
14.264,71.7184,-0.086500
14.295,71.7321,-0.086500
14.326,71.7453,-0.086500
14.356,71.7574,-0.086500
14.388,71.7698,-0.086500
14.418,71.7802,-0.128282
14.449,71.7907,-0.128282
14.479,71.8003,-0.128282
14.510,71.8091,-0.128282
14.541,71.8173,-0.128282
14.572,71.8247,-0.128282
14.603,71.8315,-0.128282
14.634,71.8374,-0.128282
14.664,71.8424,-0.194409
14.696,71.8471,-0.194409
14.726,71.8509,-0.194409
14.757,71.8541,-0.194409
14.788,71.8565,-0.194409
14.819,71.8582,-0.194409
14.850,71.8591,-0.194409
14.881,71.8593,-0.194409
14.912,71.8593,-0.238996
14.943,71.8593,-0.238996
14.973,71.8593,-0.238996
15.004,71.8593,-0.238996
15.035,71.8593,-0.238996
15.066,71.8593,-0.238996
15.097,71.8593,-0.238996
15.132,71.8593,-0.238996
15.159,71.8593,-0.238996
15.191,71.8593,-0.194644
15.222,71.8593,-0.194644
15.253,71.8593,-0.194644
15.284,71.8593,-0.194644
15.316,71.8593,-0.194644
15.346,71.8593,-0.194644
15.378,71.8593,-0.194644
15.409,71.8593,-0.134785
15.439,71.8593,-0.134785
15.470,71.8593,-0.134785
15.501,71.8593,-0.134785
15.532,71.8593,-0.134785
15.563,71.8593,-0.134785
15.593,71.8593,-0.134785
15.625,71.8593,-0.134785
15.655,71.8593,-0.120556
15.686,71.8593,-0.120556
15.716,71.8593,-0.120556
15.748,71.8593,-0.120556
15.777,71.8593,-0.120556
15.810,71.8593,-0.120556
15.840,71.8593,-0.120556
15.872,71.8593,-0.120556
15.902,71.8593,-0.113376
15.933,71.8593,-0.113376
15.964,71.8593,-0.113376
15.996,71.8593,-0.113376
16.027,71.8593,-0.113376
16.058,71.8593,-0.113376
16.088,71.8593,-0.113376
16.120,71.8593,-0.113376
16.152,71.8593,-0.108154
16.182,71.8593,-0.108154
16.213,71.8593,-0.108154
16.244,71.8593,-0.108154
16.275,71.8593,-0.108154
16.307,71.8593,-0.108154
16.337,71.8593,-0.108154
16.368,71.8593,-0.108154
16.399,71.8593,-0.104164
16.432,71.8593,-0.104164
16.460,71.8593,-0.104164
16.492,71.8593,-0.104164
16.523,71.8593,-0.104164
16.556,71.8593,-0.104164
16.586,71.8593,-0.104164
16.616,71.8593,-0.104164
16.647,71.8593,-0.100908
16.678,71.8593,-0.100908
16.709,71.8593,-0.100908
16.740,71.8593,-0.100908
16.770,71.8593,-0.100908
16.802,71.8593,-0.100908
16.832,71.8593,-0.100908
16.863,71.8593,-0.100908
16.894,71.8593,-0.098244
16.925,71.8593,-0.098244
16.955,71.8593,-0.098244
16.988,71.8593,-0.098244
17.017,71.8593,-0.098244
17.051,71.8593,-0.098244
17.080,71.8593,-0.098244
17.114,71.8593,-0.098244
17.143,71.8593,-0.095995
17.174,71.8593,-0.095995
17.205,71.8593,-0.095995
17.239,71.8593,-0.095995
17.267,71.8593,-0.095995
17.298,71.8593,-0.095995
17.329,71.8593,-0.095995
17.360,71.8593,-0.095995
17.391,71.8593,-0.094038
17.427,71.8593,-0.094038
17.454,71.8593,-0.094038
17.484,71.8593,-0.094038
17.515,71.8593,-0.094038
17.546,71.8593,-0.094038
17.578,71.8593,-0.094038
17.613,71.8593,-0.094038
17.640,71.8593,-0.092372
17.673,71.8593,-0.092372
17.701,71.8593,-0.092372
17.732,71.8593,-0.092372
17.763,71.8593,-0.092372
17.794,71.8593,-0.092372
17.825,71.8593,-0.092372
17.851,71.8593,-0.092372
17.887,71.8593,-0.092372
17.918,71.8593,-0.090810
17.949,71.8593,-0.090810
17.982,71.8593,-0.090810
18.012,71.8593,-0.090810
18.042,71.8593,-0.090810
18.074,71.8593,-0.090810
18.104,71.8593,-0.090810
18.136,71.8593,-0.089417
18.167,71.8593,-0.089417
18.198,71.8593,-0.089417
18.230,71.8593,-0.089417
18.260,71.8593,-0.089417
18.291,71.8593,-0.089417
18.322,71.8593,-0.089417
18.353,71.8593,-0.089417
18.385,71.8593,-0.088288
18.416,71.8593,-0.088288
18.447,71.8593,-0.088288
18.478,71.8593,-0.088288
18.508,71.8593,-0.088288
18.539,71.8593,-0.088288
18.570,71.8593,-0.088288
18.601,71.8593,-0.088288
18.632,71.8593,-0.087206
18.663,71.8593,-0.087206
18.693,71.8593,-0.087206
18.724,71.8593,-0.087206
18.755,71.8593,-0.087206
18.786,71.8593,-0.087206
18.818,71.8593,-0.087206
18.849,71.8593,-0.087206
18.880,71.8593,-0.086105
18.911,71.8593,-0.086105
18.942,71.8593,-0.086105
18.973,71.8593,-0.086105
19.004,71.8593,-0.086105
19.035,71.8593,-0.086105
19.066,71.8593,-0.086105
19.097,71.8593,-0.086105
19.127,71.8593,-0.084882
19.159,71.8593,-0.084882
19.189,71.8593,-0.084882
19.221,71.8593,-0.084882
19.252,71.8593,-0.084882
19.282,71.8593,-0.084882
19.312,71.8593,-0.084882
19.344,71.8593,-0.084882
19.374,71.8593,-0.083564
19.405,71.8593,-0.083564
19.436,71.8593,-0.083564
19.471,71.8593,-0.083564
19.499,71.8593,-0.083564
19.530,71.8593,-0.083564
19.562,71.8593,-0.083564
19.592,71.8593,-0.083564
19.622,71.8593,-0.082388
19.652,71.8591,-0.082388
19.684,71.8581,-0.082388
19.715,71.8563,-0.082388
19.746,71.8540,-0.082388
19.776,71.8509,-0.082388
19.806,71.8473,-0.082388
19.838,71.8424,-0.082388
19.869,71.8370,-0.041490
19.900,71.8312,-0.041490
19.931,71.8243,-0.041490
19.961,71.8170,-0.041490
19.992,71.8088,-0.041490
20.023,71.7999,-0.041490
20.055,71.7901,-0.041490
20.086,71.7797,-0.041490
20.118,71.7677,-0.041490
20.148,71.7566,-0.041490
20.180,71.7436,-0.007246
20.210,71.7303,-0.007246
20.241,71.7164,-0.007246
20.273,71.7017,-0.007246
20.303,71.6862,-0.007246
20.335,71.6691,-0.007246
20.366,71.6524,-0.007246
20.398,71.6343,-0.009674
20.429,71.6157,-0.009674
20.460,71.5965,-0.009674
20.492,71.5760,-0.009674
20.523,71.5552,-0.009674
20.555,71.5335,-0.009674
20.586,71.5108,-0.009674
20.618,71.4877,-0.009674
20.650,71.4626,-0.009674
20.680,71.4399,-0.009674
20.712,71.4138,0.003595
20.742,71.3888,0.003595
20.772,71.3626,0.003595
20.803,71.3357,0.003595
20.834,71.3072,0.003595
20.865,71.2787,0.003595
20.897,71.2484,0.021870
20.927,71.2192,0.021870
20.959,71.1875,0.021870
20.990,71.1566,0.021870
21.026,71.1181,0.021870
21.051,71.0906,0.021870
21.084,71.0563,0.021870
21.114,71.0219,0.036079
21.146,70.9858,0.036079
21.177,70.9503,0.036079
21.208,70.9137,0.036079
21.238,70.8767,0.036079
21.269,70.8376,0.036079
21.300,70.7998,0.036079
21.330,70.7611,0.036079
21.361,70.7218,0.036079
21.392,70.6800,0.036079
21.423,70.6378,0.044492
21.454,70.5951,0.044492
21.487,70.5481,0.044492
21.516,70.5082,0.044492
21.550,70.4591,0.044492
21.579,70.4177,0.044492
21.610,70.3700,0.044492
21.640,70.3251,0.049668
21.672,70.2779,0.049668
21.704,70.2300,0.049668
21.735,70.1831,0.049668
21.765,70.1381,0.049668
21.797,70.0911,0.049668
21.826,70.0472,0.049668
21.860,69.9963,0.049668
21.888,69.9527,0.053667
21.919,69.9074,0.053667
21.949,69.8608,0.053667
21.980,69.8156,0.053667
22.011,69.7696,0.053667
22.042,69.7219,0.053667
22.074,69.6755,0.053667
22.106,69.6270,0.053667
22.136,69.5819,0.056359
22.167,69.5352,0.056359
22.198,69.4892,0.056359
22.230,69.4406,0.056359
22.260,69.3958,0.056359
22.291,69.3486,0.056359
22.322,69.3031,0.056359
22.353,69.2561,0.056359
22.384,69.2099,0.057770
22.416,69.1623,0.057770
22.446,69.1169,0.057770
22.477,69.0695,0.057770
22.508,69.0236,0.057770
22.539,68.9780,0.057770
22.569,68.9321,0.057770
22.601,68.8851,0.057770
22.630,68.8396,0.053169
22.661,68.7939,0.053169
22.692,68.7477,0.053169
22.724,68.7007,0.053169
22.753,68.6557,0.053169
22.784,68.6098,0.053169
22.814,68.5649,0.053169
22.846,68.5163,0.053169
22.876,68.4716,0.030716
22.907,68.4250,0.030716
22.939,68.3777,0.030716
22.970,68.3308,0.030716
23.001,68.2849,0.030716
23.031,68.2394,0.030716
23.062,68.1949,0.030716
23.093,68.1494,0.030716
23.124,68.1065,0.011754
23.155,68.0620,0.011754
23.186,68.0203,0.011754
23.218,67.9775,0.011754
23.249,67.9366,0.011754
23.280,67.8973,0.011754
23.311,67.8566,0.011754
23.342,67.8181,0.011754
23.374,67.7791,0.011754
23.405,67.7425,0.011754
23.436,67.7058,0.009834
23.467,67.6697,0.009834
23.501,67.6313,0.009834
23.529,67.6008,0.009834
23.560,67.5675,0.009834
23.590,67.5351,0.009834
23.622,67.5027,0.009834
23.652,67.4721,0.009373
23.683,67.4412,0.009373
23.715,67.4102,0.009373
23.745,67.3818,0.009373
23.775,67.3544,0.009373
23.807,67.3259,0.009373
23.838,67.2981,0.009373
23.869,67.2714,0.009373
23.901,67.2456,0.009373
23.932,67.2211,0.009194
23.962,67.1976,0.009194
23.994,67.1736,0.009194
24.024,67.1515,0.009194
24.055,67.1293,0.009194
24.086,67.1085,0.009194
24.117,67.0877,0.009194
24.148,67.0680,0.009043
24.180,67.0487,0.009043
24.210,67.0311,0.009043
24.241,67.0132,0.009043
24.272,66.9963,0.009043
24.304,66.9798,0.009043
24.335,66.9642,0.009043
24.366,66.9497,0.009043
24.398,66.9356,0.008940
24.429,66.9223,0.008940
24.459,66.9100,0.008940
24.489,66.8986,0.008940
24.521,66.8875,0.008940
24.552,66.8772,0.008940
24.582,66.8677,0.008940
24.614,66.8586,0.008940
24.645,66.8506,0.008818
24.677,66.8429,0.008818
24.707,66.8365,0.008818
24.738,66.8304,0.008818
24.770,66.8253,0.008818
24.800,66.8209,0.008818
24.832,66.8171,0.008818
24.863,66.8140,0.008818
24.895,66.8118,0.008705
24.926,66.8102,0.008705
24.958,66.8094,0.008705
24.989,66.8093,0.008705
25.021,66.8093,0.008705
25.052,66.8093,0.008705
25.083,66.8093,0.008705
25.114,66.8093,0.008639
25.146,66.8094,0.008639
25.177,66.8101,0.008639
25.208,66.8115,0.008639
25.240,66.8138,0.008639
25.271,66.8166,0.008639
25.302,66.8204,0.008639
25.333,66.8247,0.008639
25.364,66.8299,0.008639
25.395,66.8356,0.008526
25.426,66.8421,0.008526
25.456,66.8493,0.008526
25.487,66.8573,0.008526
25.518,66.8660,0.008526
25.550,66.8755,0.008526
25.581,66.8860,0.008526
25.611,66.8965,0.008526
25.642,66.9082,0.008375
25.674,66.9208,0.008375
25.707,66.9348,0.008375
25.735,66.9472,0.008375
25.767,66.9624,0.008375
25.798,66.9774,0.008375
25.829,66.9936,0.008375
25.859,67.0097,0.008375
25.890,67.0272,0.008243
25.922,67.0460,0.008243
25.953,67.0644,0.008243
25.984,67.0843,0.008243
26.017,67.1062,0.008243
26.046,67.1258,0.008243
26.076,67.1473,0.008243
26.107,67.1695,0.008243
26.138,67.1928,0.008065
26.170,67.2174,0.008065
26.201,67.2427,0.008065
26.233,67.2686,0.008065
26.264,67.2954,0.008065
26.295,67.3214,0.008065
26.325,67.3489,0.008065
26.356,67.3767,0.008065
26.386,67.4054,0.007754
26.417,67.4353,0.007754
26.448,67.4655,0.007754
26.478,67.4954,0.007754
26.512,67.5309,0.007754
26.540,67.5609,0.007754
26.571,67.5936,0.007754
26.602,67.6277,0.007754
26.630,67.6601,0.007359
26.664,67.6984,0.007359
26.695,67.7349,0.007359
26.727,67.7722,0.007359
26.757,67.8098,0.007359
26.789,67.8494,0.007359
26.820,67.8877,0.007359
26.852,67.9291,0.007359
26.882,67.9688,0.007001
26.913,68.0105,0.007001
26.944,68.0524,0.007001
26.975,68.0948,0.007001
27.006,68.1384,0.007001
27.037,68.1825,0.007001
27.068,68.2279,0.007001
27.098,68.2734,0.007001
27.129,68.3208,0.006503
27.161,68.3677,0.006503
27.192,68.4149,0.006503
27.224,68.4614,0.006503
27.254,68.5076,0.006503
27.285,68.5542,0.006503
27.316,68.6001,0.006503
27.347,68.6465,0.006503
27.378,68.6924,0.006503
27.409,68.7397,0.005919
27.439,68.7851,0.005919
27.472,68.8334,0.005919
27.502,68.8786,0.005919
27.533,68.9255,0.005919
27.563,68.9710,0.005919
27.594,69.0176,0.005919
27.624,69.0626,0.005919
27.655,69.1081,0.005270
27.685,69.1540,0.005270
27.716,69.2006,0.005270
27.748,69.2477,0.005270
27.778,69.2929,0.005270
27.809,69.3395,0.005270
27.840,69.3863,0.005270
27.871,69.4325,0.005270
27.902,69.4798,0.004366
27.932,69.5243,0.004366
27.964,69.5718,0.004366
27.994,69.6177,0.004366
28.026,69.6646,0.004366
28.056,69.7103,0.004366
28.088,69.7586,0.004366
28.118,69.8031,0.004366
28.150,69.8507,0.003058
28.179,69.8946,0.003058
28.210,69.9410,0.003058
28.241,69.9870,0.003058
28.273,70.0354,0.003058
28.303,70.0820,0.003058
28.334,70.1267,0.003058
28.365,70.1738,0.003058
28.397,70.2210,0.000640
28.428,70.2672,0.000640
28.459,70.3155,0.000640
28.490,70.3602,0.000640
28.521,70.4066,0.000640
28.552,70.4514,0.000640
28.583,70.4960,0.000640
28.614,70.5388,0.000640
28.645,70.5821,0.000640
28.676,70.6238,-0.004263
28.709,70.6671,-0.004263
28.739,70.7065,-0.004263
28.770,70.7467,-0.004263
28.803,70.7870,-0.004263
28.832,70.8227,-0.004263
28.863,70.8613,-0.004263
28.894,70.8979,-0.004263
28.926,70.9342,-0.013542
28.957,70.9701,-0.013542
28.988,71.0052,-0.013542
29.019,71.0380,-0.013542
29.053,71.0754,-0.013542
29.080,71.1031,-0.013542
29.112,71.1354,-0.013542
29.142,71.1655,-0.029219
29.173,71.1958,-0.029219
29.205,71.2260,-0.029219
29.235,71.2543,-0.029219
29.267,71.2826,-0.029219
29.297,71.3091,-0.029219
29.327,71.3358,-0.029219
29.358,71.3612,-0.029219
29.389,71.3870,-0.051352
29.420,71.4108,-0.051352
29.452,71.4346,-0.051352
29.481,71.4568,-0.051352
29.513,71.4800,-0.051352
29.545,71.5020,-0.051352
29.575,71.5223,-0.051352
29.606,71.5424,-0.051352
29.637,71.5614,-0.078040
29.669,71.5804,-0.078040
29.699,71.5980,-0.078040
29.731,71.6156,-0.078040
29.761,71.6318,-0.078040
29.792,71.6475,-0.078040
29.823,71.6622,-0.078040
29.854,71.6765,-0.078040
29.885,71.6900,-0.078040
29.917,71.7032,-0.113997
29.949,71.7157,-0.113997
29.980,71.7268,-0.113997
30.010,71.7373,-0.113997
30.041,71.7471,-0.113997
30.071,71.7561,-0.113997
30.103,71.7648,-0.113997
30.134,71.7725,-0.174365
30.165,71.7794,-0.174365
30.197,71.7858,-0.174365
30.228,71.7912,-0.174365
30.258,71.7959,-0.174365
30.289,71.8000,-0.174365
30.320,71.8034,-0.174365
30.351,71.8058,-0.174365
30.381,71.8077,-0.174365
30.413,71.8090,-0.235128
30.444,71.8093,-0.235128
30.475,71.8093,-0.235128
30.505,71.8093,-0.235128
30.538,71.8093,-0.235128
30.567,71.8093,-0.235128
30.598,71.8093,-0.235128
30.629,71.8093,-0.208525
30.663,71.8093,-0.208525
30.691,71.8093,-0.208525
30.722,71.8093,-0.208525
30.752,71.8093,-0.208525
30.789,71.8093,-0.208525
30.830,71.8093,-0.208525
30.861,71.8093,-0.208525
30.892,71.8093,-0.143226
30.923,71.8093,-0.143226
30.955,71.8093,-0.143226
30.986,71.8093,-0.143226
31.016,71.8093,-0.143226
31.047,71.8093,-0.143226
31.078,71.8093,-0.143226
31.109,71.8093,-0.143226
31.140,71.8093,-0.143226
31.171,71.8093,-0.122326
31.203,71.8093,-0.122326
31.235,71.8093,-0.122326
31.266,71.8093,-0.122326
31.297,71.8093,-0.122326
31.329,71.8093,-0.122326
31.359,71.8093,-0.122326
31.390,71.8093,-0.122326
31.421,71.8093,-0.114788
31.452,71.8093,-0.114788
31.484,71.8093,-0.114788
31.515,71.8093,-0.114788
31.546,71.8093,-0.114788
31.577,71.8093,-0.114788
31.607,71.8093,-0.114788
31.638,71.8093,-0.114788
31.669,71.8093,-0.109198
31.701,71.8093,-0.109198
31.731,71.8093,-0.109198
31.763,71.8093,-0.109198
31.794,71.8093,-0.109198
31.825,71.8093,-0.109198
31.857,71.8093,-0.109198
31.888,71.8093,-0.104916
31.918,71.8093,-0.104916
31.951,71.8093,-0.104916
31.981,71.8093,-0.104916
32.011,71.8093,-0.104916
32.043,71.8093,-0.104916
32.073,71.8093,-0.104916
32.104,71.8093,-0.104916
32.134,71.8093,-0.101510
32.166,71.8093,-0.101510
32.197,71.8093,-0.101510
32.229,71.8093,-0.101510
32.259,71.8093,-0.101510
32.290,71.8093,-0.101510
32.321,71.8093,-0.101510
32.352,71.8093,-0.101510
32.383,71.8093,-0.098753
32.420,71.8093,-0.098753
32.446,71.8093,-0.098753
32.477,71.8093,-0.098753
32.508,71.8093,-0.098753
32.538,71.8093,-0.098753
32.569,71.8093,-0.098753
32.600,71.8093,-0.098753
32.631,71.8093,-0.096372
32.661,71.8093,-0.096372
32.692,71.8093,-0.096372
32.724,71.8093,-0.096372
32.754,71.8093,-0.096372
32.786,71.8093,-0.096372
32.816,71.8093,-0.096372
32.847,71.8093,-0.096372
32.878,71.8093,-0.094320
32.910,71.8093,-0.094320
32.942,71.8093,-0.094320
32.973,71.8093,-0.094320
33.003,71.8093,-0.094320
33.034,71.8093,-0.094320
33.065,71.8093,-0.094320
33.096,71.8093,-0.094320
33.127,71.8093,-0.094320
33.157,71.8093,-0.092589
33.187,71.8093,-0.092589
33.219,71.8093,-0.092589
33.250,71.8093,-0.092589
33.282,71.8093,-0.092589
33.312,71.8093,-0.092589
33.344,71.8093,-0.092589
33.374,71.8093,-0.091017
33.407,71.8093,-0.091017
33.439,71.8093,-0.091017
33.469,71.8093,-0.091017
33.502,71.8093,-0.091017
33.530,71.8093,-0.091017
33.561,71.8093,-0.091017
33.591,71.8093,-0.091017
33.623,71.8093,-0.091017
33.654,71.8093,-0.089606
33.685,71.8093,-0.089606
33.716,71.8093,-0.089606
33.747,71.8093,-0.089606
33.778,71.8093,-0.089606
33.810,71.8093,-0.089606
33.841,71.8093,-0.089606
33.871,71.8093,-0.089606
33.903,71.8093,-0.088373
33.934,71.8093,-0.088373
33.964,71.8093,-0.088373
33.995,71.8093,-0.088373
34.026,71.8093,-0.088373
34.057,71.8093,-0.088373
34.087,71.8093,-0.088373
34.119,71.8093,-0.088373
34.151,71.8093,-0.088373
34.181,71.8093,-0.087281
34.212,71.8093,-0.087281
34.243,71.8093,-0.087281
34.273,71.8093,-0.087281
34.304,71.8093,-0.087281
34.335,71.8093,-0.087281
34.365,71.8093,-0.087281
34.396,71.8093,-0.086133
34.427,71.8093,-0.086133
34.459,71.8093,-0.086133
34.490,71.8093,-0.086133
34.522,71.8093,-0.086133
34.553,71.8093,-0.086133
34.584,71.8093,-0.086133
34.616,71.8093,-0.086133
34.646,71.8093,-0.084806
34.678,71.8093,-0.084806
34.709,71.8093,-0.084806
34.739,71.8093,-0.084806
34.770,71.8093,-0.084806
34.801,71.8093,-0.084806
34.832,71.8093,-0.084806
34.863,71.8093,-0.084806
34.894,71.8093,-0.083555
34.926,71.8093,-0.083555
34.957,71.8093,-0.083555
34.988,71.8093,-0.083555
35.019,71.8093,-0.083555
35.051,71.8087,-0.083555
35.082,71.8075,-0.083555
35.112,71.8054,-0.083555
35.143,71.8026,-0.081701
35.174,71.7993,-0.081701
35.207,71.7947,-0.081701
35.235,71.7901,-0.081701
35.266,71.7844,-0.081701
35.297,71.7781,-0.081701
35.327,71.7712,-0.081701
35.359,71.7632,-0.081701
35.390,71.7548,-0.021418
35.421,71.7455,-0.021418
35.452,71.7353,-0.021418
35.483,71.7249,-0.021418
35.514,71.7135,-0.021418
35.545,71.7013,-0.021418
35.576,71.6885,-0.021418
35.606,71.6749,-0.021418
35.637,71.6602,-0.021418
35.668,71.6455,0.011904
35.699,71.6295,0.011904
35.730,71.6134,0.011904
35.761,71.5959,0.011904
35.793,71.5774,0.011904
35.824,71.5592,0.011904
35.855,71.5392,0.011904
35.886,71.5194,-0.005637
35.917,71.4983,-0.005637
35.949,71.4758,-0.005637
35.980,71.4530,-0.005637
36.011,71.4303,-0.005637
36.042,71.4061,-0.005637
36.073,71.3818,-0.005637
36.104,71.3563,-0.005637
36.135,71.3307,0.012064
36.166,71.3038,0.012064
36.198,71.2758,0.012064
36.228,71.2480,0.012064
36.259,71.2186,0.012064
36.290,71.1892,0.012064
36.321,71.1591,0.012064
36.352,71.1281,0.012064
36.383,71.0959,0.012064
36.413,71.0642,0.029012
36.444,71.0305,0.029012
36.475,70.9970,0.029012
36.508,70.9598,0.029012
36.539,70.9247,0.029012
36.570,70.8865,0.029012
36.601,70.8516,0.029012
36.632,70.8135,0.029012
36.663,70.7752,0.040455
36.695,70.7358,0.040455
36.726,70.6941,0.040455
36.756,70.6558,0.040455
36.787,70.6145,0.040455
36.818,70.5722,0.040455
36.849,70.5305,0.040455
36.879,70.4864,0.040455
36.910,70.4439,0.047014
36.942,70.3971,0.047014
36.972,70.3525,0.047014
37.003,70.3058,0.047014
37.035,70.2580,0.047014
37.066,70.2115,0.047014
37.097,70.1656,0.047014
37.128,70.1190,0.047014
37.159,70.0729,0.051851
37.190,70.0246,0.051851
37.222,69.9787,0.051851
37.253,69.9312,0.051851
37.284,69.8850,0.051851
37.316,69.8371,0.051851
37.346,69.7907,0.051851
37.378,69.7436,0.051851
37.408,69.6996,0.051851
37.439,69.6528,0.055248
37.470,69.6065,0.055248
37.501,69.5597,0.055248
37.531,69.5141,0.055248
37.563,69.4666,0.055248
37.593,69.4210,0.055248
37.625,69.3733,0.055248
37.655,69.3284,0.057178
37.686,69.2810,0.057178
37.717,69.2355,0.057178
37.750,69.1864,0.057178
37.780,69.1403,0.057178
37.810,69.0957,0.057178
37.842,69.0486,0.057178
37.874,69.0011,0.057178
37.904,68.9544,0.056105
37.935,68.9070,0.056105
37.967,68.8609,0.056105
37.998,68.8138,0.056105
38.029,68.7669,0.056105
38.060,68.7206,0.056105
38.091,68.6744,0.056105
38.121,68.6289,0.056105
38.152,68.5827,0.043852
38.183,68.5360,0.043852
38.215,68.4891,0.043852
38.245,68.4431,0.043852
38.276,68.3974,0.043852
38.307,68.3502,0.043852
38.338,68.3039,0.043852
38.370,68.2559,0.043852
38.400,68.2108,0.022359
38.431,68.1653,0.022359
38.463,68.1190,0.022359
38.494,68.0752,0.022359
38.525,68.0313,0.022359
38.557,67.9880,0.022359
38.588,67.9459,0.022359
38.620,67.9039,0.022359
38.651,67.8633,0.010436
38.682,67.8225,0.010436
38.713,67.7843,0.010436
38.745,67.7446,0.010436
38.775,67.7082,0.010436
38.805,67.6719,0.010436
38.836,67.6367,0.010436
38.867,67.6012,0.010436
38.899,67.5660,0.009589
38.930,67.5311,0.009589
38.961,67.4981,0.009589
38.993,67.4653,0.009589
39.023,67.4344,0.009589
39.054,67.4030,0.009589
39.085,67.3726,0.009589
39.116,67.3437,0.009326
39.150,67.3119,0.009326
39.178,67.2867,0.009326
39.209,67.2592,0.009326
39.240,67.2330,0.009326
39.271,67.2064,0.009326
39.305,67.1795,0.009326
39.334,67.1560,0.009326
39.365,67.1333,0.009326
39.396,67.1095,0.009137
39.428,67.0874,0.009137
39.459,67.0649,0.009137
39.489,67.0451,0.009137
39.520,67.0254,0.009137
39.550,67.0066,0.009137
39.581,66.9882,0.009137
39.612,66.9698,0.009137
39.638,66.9554,0.009006
39.675,66.9364,0.009006
39.706,66.9208,0.009006
39.738,66.9053,0.009006
39.769,66.8908,0.009006
39.801,66.8773,0.009006
39.832,66.8644,0.009006
39.864,66.8520,0.009006
39.895,66.8404,0.008883
39.925,66.8306,0.008883
39.956,66.8206,0.008883
39.988,66.8114,0.008883
40.019,66.8031,0.008883
40.050,66.7953,0.008883
40.081,66.7886,0.008883
40.111,66.7824,0.008883
40.144,66.7768,0.008770
40.173,66.7724,0.008770
40.203,66.7685,0.008770
40.233,66.7653,0.008770
40.264,66.7627,0.008770
40.294,66.7609,0.008770
40.325,66.7597,0.008770
40.356,66.7593,0.008770
40.388,66.7593,0.008620
40.419,66.7593,0.008620
40.451,66.7593,0.008620
40.482,66.7593,0.008620
40.513,66.7596,0.008620
40.544,66.7605,0.008620
40.576,66.7621,0.008620
40.606,66.7644,0.008620
40.638,66.7675,0.008620
40.669,66.7714,0.008601
40.701,66.7761,0.008601
40.732,66.7812,0.008601
40.763,66.7875,0.008601
40.794,66.7942,0.008601
40.825,66.8016,0.008601
40.856,66.8097,0.008601
40.886,66.8186,0.008545
40.917,66.8283,0.008545
40.948,66.8385,0.008545
40.980,66.8497,0.008545
41.010,66.8615,0.008545
41.041,66.8743,0.008545
41.072,66.8870,0.008545
41.103,66.9013,0.008545
41.134,66.9156,0.008545
41.165,66.9314,0.008347
41.196,66.9474,0.008347
41.227,66.9640,0.008347
41.257,66.9815,0.008347
41.288,66.9998,0.008347
41.319,67.0189,0.008347
41.351,67.0390,0.008347
41.382,67.0596,0.008149
41.412,67.0807,0.008149
41.443,67.1025,0.008149
41.475,67.1255,0.008149
41.505,67.1480,0.008149
41.536,67.1731,0.008149
41.567,67.1974,0.008149
41.598,67.2239,0.008149
41.630,67.2502,0.008149
41.662,67.2785,0.007886
41.692,67.3059,0.007886
41.724,67.3349,0.007886
41.755,67.3637,0.007886
41.787,67.3957,0.007886
41.817,67.4246,0.007886
41.848,67.4572,0.007886
41.880,67.4895,0.007886
41.910,67.5222,0.007604
41.941,67.5551,0.007604
41.972,67.5893,0.007604
42.002,67.6234,0.007604
42.032,67.6580,0.007604
42.063,67.6948,0.007604
42.094,67.7312,0.007604
42.124,67.7693,0.007604
42.154,67.8065,0.007246
42.185,67.8459,0.007246
42.215,67.8848,0.007246
42.247,67.9271,0.007246
42.274,67.9627,0.007246
42.308,68.0086,0.007246
42.339,68.0528,0.007246
42.370,68.0953,0.006794
42.401,68.1403,0.006794
42.431,68.1840,0.006794
42.462,68.2295,0.006794
42.493,68.2773,0.006794
42.523,68.3215,0.006794
42.554,68.3687,0.006794
42.586,68.4152,0.006794
42.616,68.4617,0.006794
42.648,68.5078,0.006192
42.678,68.5552,0.006192
42.710,68.6020,0.006192
42.741,68.6490,0.006192
42.772,68.6951,0.006192
42.803,68.7412,0.006192
42.834,68.7885,0.006192
42.865,68.8342,0.005533
42.897,68.8829,0.005533
42.928,68.9279,0.005533
42.959,68.9758,0.005533
42.989,69.0207,0.005533
43.023,69.0718,0.005533
43.051,69.1137,0.005533
43.084,69.1622,0.005533
43.113,69.2068,0.005533
43.144,69.2537,0.004818
43.175,69.2998,0.004818
43.208,69.3497,0.004818
43.238,69.3932,0.004818
43.268,69.4399,0.004818
43.298,69.4850,0.004818
43.330,69.5311,0.004818
43.361,69.5776,0.004818
43.392,69.6254,0.004818
43.422,69.6699,0.003755
43.453,69.7174,0.003755
43.484,69.7629,0.003755
43.517,69.8116,0.003755
43.546,69.8556,0.003755
43.578,69.9038,0.003755
43.609,69.9498,0.003755
43.645,70.0038,0.001920
43.671,70.0425,0.001920
43.702,70.0905,0.001920
43.733,70.1364,0.001920
43.764,70.1840,0.001920
43.796,70.2300,0.001920
43.827,70.2785,0.001920
43.857,70.3214,0.001920
43.888,70.3667,-0.001694
43.919,70.4117,-0.001694
43.950,70.4567,-0.001694
43.981,70.4999,-0.001694
44.012,70.5413,-0.001694
44.043,70.5840,-0.001694
44.075,70.6247,-0.001694
44.106,70.6661,-0.001694
44.136,70.7045,-0.001694
44.168,70.7446,-0.008874
44.199,70.7824,-0.008874
44.230,70.8207,-0.008874
44.261,70.8565,-0.008874
44.292,70.8930,-0.008874
44.323,70.9279,-0.008874
44.355,70.9635,-0.008874
44.388,70.9981,-0.008874
44.418,71.0301,-0.008874
44.449,71.0629,-0.021540
44.480,71.0942,-0.021540
44.511,71.1251,-0.021540
44.542,71.1550,-0.021540
44.574,71.1846,-0.021540
44.604,71.2128,-0.021540
44.635,71.2404,-0.021540
44.666,71.2680,-0.040916
44.697,71.2935,-0.040916
44.728,71.3199,-0.040916
44.759,71.3449,-0.040916
44.791,71.3698,-0.040916
44.820,71.3924,-0.040916
44.852,71.4152,-0.040916
44.883,71.4371,-0.040916
44.913,71.4577,-0.065826
44.945,71.4787,-0.065826
44.975,71.4981,-0.065826
45.006,71.5174,-0.065826
45.036,71.5350,-0.065826
45.067,71.5531,-0.065826
45.098,71.5696,-0.065826
45.129,71.5858,-0.065826
45.160,71.6011,-0.095779
45.190,71.6160,-0.095779
45.222,71.6304,-0.095779
45.254,71.6439,-0.095779
45.284,71.6562,-0.095779
45.316,71.6688,-0.095779
45.348,71.6798,-0.095779
45.378,71.6899,-0.095779
45.408,71.6994,-0.144995
45.443,71.7096,-0.144995
45.470,71.7166,-0.144995
45.502,71.7242,-0.144995
45.533,71.7311,-0.144995
45.565,71.7374,-0.144995
45.596,71.7426,-0.144995
45.627,71.7473,-0.144995
45.657,71.7509,-0.144995
45.688,71.7541,-0.213682
45.719,71.7565,-0.213682
45.750,71.7582,-0.213682
45.781,71.7591,-0.213682
45.815,71.7593,-0.213682
45.843,71.7593,-0.213682
45.878,71.7593,-0.213682
45.906,71.7593,-0.213682
45.937,71.7593,-0.232117
45.969,71.7593,-0.232117
45.999,71.7593,-0.232117
46.030,71.7593,-0.232117
46.060,71.7593,-0.232117
46.091,71.7593,-0.232117
46.122,71.7593,-0.232117
46.152,71.7593,-0.174911
46.184,71.7593,-0.174911
46.216,71.7593,-0.174911
46.247,71.7593,-0.174911
46.278,71.7593,-0.174911
46.309,71.7593,-0.174911
46.339,71.7593,-0.174911
46.370,71.7593,-0.174911
46.402,71.7593,-0.174911
46.432,71.7593,-0.128311
46.463,71.7593,-0.128311
46.494,71.7593,-0.128311
46.526,71.7593,-0.128311
46.557,71.7593,-0.128311
46.588,71.7593,-0.128311
46.619,71.7593,-0.128311
46.650,71.7593,-0.117762
46.682,71.7593,-0.117762
46.713,71.7593,-0.117762
46.745,71.7593,-0.117762
46.775,71.7593,-0.117762
46.806,71.7593,-0.117762
46.838,71.7593,-0.117762
46.869,71.7593,-0.117762
46.899,71.7593,-0.117762
46.930,71.7593,-0.111438
46.962,71.7593,-0.111438
46.993,71.7593,-0.111438
47.025,71.7593,-0.111438
47.056,71.7593,-0.111438
47.087,71.7593,-0.111438
47.118,71.7593,-0.111438
47.150,71.7593,-0.111438
47.181,71.7593,-0.106648
47.211,71.7593,-0.106648
47.242,71.7593,-0.106648
47.274,71.7593,-0.106648
47.304,71.7593,-0.106648
47.335,71.7593,-0.106648
47.366,71.7593,-0.106648
47.398,71.7593,-0.102931
47.429,71.7593,-0.102931
47.459,71.7593,-0.102931
47.491,71.7593,-0.102931
47.521,71.7593,-0.102931
47.552,71.7593,-0.102931
47.584,71.7593,-0.102931
47.616,71.7593,-0.102931
47.646,71.7593,-0.099910
47.678,71.7593,-0.099910
47.709,71.7593,-0.099910
47.740,71.7593,-0.099910
47.771,71.7593,-0.099910
47.802,71.7593,-0.099910
47.834,71.7593,-0.099910
47.864,71.7593,-0.099910
47.895,71.7593,-0.097341
47.926,71.7593,-0.097341
47.958,71.7593,-0.097341
47.992,71.7593,-0.097341
48.020,71.7593,-0.097341
48.051,71.7593,-0.097341
48.082,71.7593,-0.097341
48.113,71.7593,-0.097341
48.144,71.7593,-0.097341
48.175,71.7593,-0.095167
48.206,71.7593,-0.095167
48.237,71.7593,-0.095167
48.268,71.7593,-0.095167
48.299,71.7593,-0.095167
48.330,71.7593,-0.095167
48.360,71.7593,-0.095167
48.392,71.7593,-0.093313
48.423,71.7593,-0.093313
48.452,71.7593,-0.093313
48.483,71.7593,-0.093313
48.515,71.7593,-0.093313
48.546,71.7593,-0.093313
48.577,71.7593,-0.093313
48.607,71.7593,-0.093313
48.639,71.7593,-0.091638
48.670,71.7593,-0.091638
48.701,71.7593,-0.091638
48.732,71.7593,-0.091638
48.764,71.7593,-0.091638
48.795,71.7593,-0.091638
48.825,71.7593,-0.091638
48.856,71.7593,-0.091638
48.887,71.7593,-0.090189
48.917,71.7593,-0.090189
48.948,71.7593,-0.090189
48.979,71.7593,-0.090189
49.010,71.7593,-0.090189
49.041,71.7593,-0.090189
49.072,71.7593,-0.090189
49.104,71.7593,-0.090189
49.135,71.7593,-0.088891
49.167,71.7593,-0.088891
49.198,71.7593,-0.088891
49.229,71.7593,-0.088891
49.260,71.7593,-0.088891
49.290,71.7593,-0.088891
49.322,71.7593,-0.088891
49.353,71.7593,-0.088891
49.382,71.7593,-0.088891
49.414,71.7593,-0.087686
49.445,71.7593,-0.087686
49.476,71.7593,-0.087686
49.506,71.7593,-0.087686
49.538,71.7593,-0.087686
49.570,71.7593,-0.087686
49.601,71.7593,-0.087686
49.632,71.7593,-0.086538
49.663,71.7593,-0.086538
49.694,71.7593,-0.086538
49.726,71.7593,-0.086538
49.756,71.7593,-0.086538
49.787,71.7593,-0.086538
49.818,71.7593,-0.086538
49.848,71.7593,-0.086538
49.879,71.7593,-0.086538
49.909,71.7593,-0.085456
49.941,71.7593,-0.085456
49.972,71.7593,-0.085456
50.002,71.7593,-0.085456
50.033,71.7593,-0.085456
50.065,71.7593,-0.085456
50.095,71.7593,-0.085456
50.127,71.7593,-0.084326
50.159,71.7593,-0.084326
50.190,71.7593,-0.084326
50.221,71.7593,-0.084326
50.252,71.7593,-0.084326
50.283,71.7593,-0.084326
50.314,71.7593,-0.084326
50.346,71.7593,-0.084326
50.376,71.7593,-0.083056
50.408,71.7592,-0.083056
50.433,71.7588,-0.083056
50.469,71.7572,-0.083056
50.500,71.7552,-0.083056
50.530,71.7524,-0.083056
50.562,71.7488,-0.083056
50.592,71.7447,-0.083056
50.623,71.7397,-0.050251
50.657,71.7334,-0.050251
50.685,71.7275,-0.050251
50.716,71.7200,-0.050251
50.747,71.7123,-0.050251
50.779,71.7037,-0.050251
50.809,71.6947,-0.050251
50.839,71.6847,-0.050251
50.872,71.6733,-0.050251
50.902,71.6622,-0.015207
50.933,71.6497,-0.015207
50.963,71.6369,-0.015207
50.995,71.6232,-0.015207
51.027,71.6083,-0.015207
51.056,71.5939,-0.015207
51.086,71.5785,-0.015207
51.117,71.5620,-0.009928
51.148,71.5445,-0.009928
51.178,71.5268,-0.009928
51.209,71.5081,-0.009928
51.241,71.4885,-0.009928
51.272,71.4679,-0.009928
51.302,71.4478,-0.009928
51.333,71.4258,-0.009928
51.365,71.4033,-0.009928
51.396,71.3796,0.001797
51.427,71.3561,0.001797
51.458,71.3313,0.001797
51.490,71.3060,0.001797
51.520,71.2795,0.001797
51.552,71.2530,0.001797
51.583,71.2248,0.001797
51.614,71.1970,0.001797
51.647,71.1665,0.019818
51.676,71.1386,0.019818
51.707,71.1072,0.019818
51.738,71.0760,0.019818
51.768,71.0463,0.019818
51.799,71.0137,0.019818
51.829,70.9806,0.019818
51.860,70.9465,0.019818
51.891,70.9116,0.034122
51.922,70.8769,0.034122
51.953,70.8398,0.034122
51.984,70.8034,0.034122
52.015,70.7649,0.034122
52.046,70.7275,0.034122
52.078,70.6869,0.034122
52.109,70.6466,0.034122
52.140,70.6058,0.042460
52.170,70.5666,0.042460
52.201,70.5251,0.042460
52.235,70.4766,0.042460
52.263,70.4391,0.042460
52.295,70.3927,0.042460
52.326,70.3471,0.042460
52.357,70.3026,0.042460
52.388,70.2558,0.047259
52.423,70.2024,0.047259
52.450,70.1635,0.047259
52.481,70.1163,0.047259
52.512,70.0699,0.047259
52.543,70.0236,0.047259
52.574,69.9766,0.047259
52.606,69.9288,0.047259
52.637,69.8835,0.051305
52.668,69.8357,0.051305
52.699,69.7891,0.051305
52.730,69.7419,0.051305
52.761,69.6971,0.051305
52.792,69.6501,0.051305
52.822,69.6051,0.051305
52.854,69.5577,0.051305
52.884,69.5114,0.054561
52.915,69.4655,0.054561
52.946,69.4196,0.054561
52.982,69.3649,0.054561
53.008,69.3269,0.054561
53.038,69.2797,0.054561
53.070,69.2335,0.054561
53.100,69.1866,0.054561
53.131,69.1415,0.054561
53.162,69.0951,0.054561
53.194,69.0463,0.056189
53.225,69.0011,0.056189
53.256,68.9531,0.056189
53.287,68.9068,0.056189
53.318,68.8610,0.056189
53.349,68.8144,0.056189
53.379,68.7688,0.056189
53.409,68.7242,0.051607
53.441,68.6769,0.051607
53.471,68.6320,0.051607
53.503,68.5836,0.051607
53.533,68.5387,0.051607
53.564,68.4929,0.051607
53.595,68.4453,0.051607
53.626,68.3988,0.051607
53.657,68.3519,0.029718
53.688,68.3068,0.029718
53.718,68.2606,0.029718
53.750,68.2140,0.029718
53.780,68.1680,0.029718
53.812,68.1209,0.029718
53.842,68.0771,0.029718
53.874,68.0317,0.029718
53.905,67.9879,0.011556
53.937,67.9436,0.011556
53.967,67.9041,0.011556
53.998,67.8614,0.011556
54.029,67.8213,0.011556
54.061,67.7798,0.011556
54.092,67.7412,0.011556
54.123,67.7022,0.011556
54.155,67.6647,0.009937
54.186,67.6263,0.009937
54.217,67.5910,0.009937
54.249,67.5549,0.009937
54.280,67.5200,0.009937
54.311,67.4852,0.009937
54.342,67.4524,0.009937
54.374,67.4185,0.009937
54.404,67.3889,0.009937
54.435,67.3574,0.009373
54.465,67.3277,0.009373
54.496,67.2983,0.009373
54.526,67.2699,0.009373
54.557,67.2419,0.009373
54.588,67.2144,0.009373
54.620,67.1867,0.009373
54.650,67.1617,0.009175
54.682,67.1357,0.009175
54.713,67.1108,0.009175
54.744,67.0871,0.009175
54.774,67.0642,0.009175
54.806,67.0422,0.009175
54.837,67.0203,0.009175
54.868,66.9993,0.009175
54.899,66.9791,0.009043
54.930,66.9594,0.009043
54.961,66.9409,0.009043
54.992,66.9229,0.009043
55.023,66.9056,0.009043
55.054,66.8891,0.009043
55.085,66.8732,0.009043
55.116,66.8582,0.008930
55.148,66.8434,0.008930
55.178,66.8299,0.008930
55.209,66.8175,0.008930
55.240,66.8052,0.008930
55.271,66.7938,0.008930
55.300,66.7836,0.008930
55.332,66.7734,0.008930
55.363,66.7642,0.008930
55.394,66.7554,0.008912
55.424,66.7478,0.008912
55.455,66.7406,0.008912
55.487,66.7343,0.008912
55.518,66.7285,0.008912
55.549,66.7236,0.008912
55.581,66.7193,0.008912
55.612,66.7158,0.008912
55.644,66.7131,0.008912
55.674,66.7112,0.008818
55.705,66.7100,0.008818
55.737,66.7094,0.008818
55.768,66.7094,0.008818
55.799,66.7094,0.008818
55.830,66.7094,0.008818
55.861,66.7094,0.008818
55.891,66.7099,0.008818
55.922,66.7111,0.008658
55.954,66.7130,0.008658
55.985,66.7157,0.008658
56.015,66.7190,0.008658
56.050,66.7236,0.008658
56.077,66.7278,0.008658
56.109,66.7337,0.008658
56.139,66.7397,0.008516
56.170,66.7469,0.008516
56.201,66.7546,0.008516
56.232,66.7629,0.008516
56.264,66.7722,0.008516
56.295,66.7823,0.008516
56.326,66.7929,0.008516
56.357,66.8046,0.008516
56.387,66.8164,0.008394
56.422,66.8305,0.008394
56.451,66.8433,0.008394
56.482,66.8581,0.008394
56.512,66.8724,0.008394
56.544,66.8888,0.008394
56.575,66.9053,0.008394
56.607,66.9229,0.008394
56.638,66.9408,0.008281
56.669,66.9596,0.008281
56.699,66.9786,0.008281
56.730,66.9989,0.008281
56.761,67.0193,0.008281
56.791,67.0405,0.008281
56.822,67.0632,0.008281
56.852,67.0853,0.008281
56.884,67.1092,0.008093
56.915,67.1338,0.008093
56.946,67.1592,0.008093
56.977,67.1854,0.008093
57.008,67.2114,0.008093
57.039,67.2391,0.008093
57.070,67.2671,0.008093
57.102,67.2970,0.008093
57.132,67.3260,0.007811
57.164,67.3569,0.007811
57.195,67.3883,0.007811
57.226,67.4206,0.007811
57.257,67.4523,0.007811
57.287,67.4854,0.007811
57.319,67.5195,0.007811
57.350,67.5546,0.007811
57.381,67.5900,0.007462
57.412,67.6270,0.007462
57.442,67.6616,0.007462
57.473,67.6994,0.007462
57.504,67.7390,0.007462
57.535,67.7767,0.007462
57.567,67.8170,0.007462
57.597,67.8573,0.007462
57.629,67.8992,0.007462
57.659,67.9394,0.007039
57.690,67.9825,0.007039
57.720,68.0249,0.007039
57.752,68.0701,0.007039
57.783,68.1154,0.007039
57.815,68.1617,0.007039
57.845,68.2071,0.007039
57.876,68.2536,0.007039
57.906,68.2996,0.007039
57.938,68.3466,0.006474
57.969,68.3933,0.006474
58.000,68.4397,0.006474
58.032,68.4872,0.006474
58.062,68.5335,0.006474
58.093,68.5786,0.006474
58.125,68.6266,0.006474
58.154,68.6709,0.006474
58.185,68.7192,0.005881
58.216,68.7639,0.005881
58.248,68.8130,0.005881
58.279,68.8588,0.005881
58.310,68.9059,0.005881
58.341,68.9503,0.005881
58.372,68.9968,0.005881
58.403,69.0437,0.005223
58.435,69.0916,0.005223
58.467,69.1397,0.005223
58.497,69.1852,0.005223
58.528,69.2317,0.005223
58.559,69.2783,0.005223
58.590,69.3254,0.005223
58.620,69.3699,0.005223
58.651,69.4163,0.004329
58.682,69.4632,0.004329
58.713,69.5088,0.004329
58.744,69.5562,0.004329
58.775,69.6021,0.004329
58.807,69.6492,0.004329
58.838,69.6963,0.004329
58.868,69.7421,0.004329
58.898,69.7872,0.004329
58.929,69.8334,0.002964
58.960,69.8799,0.002964
58.990,69.9244,0.002964
59.021,69.9715,0.002964
59.053,70.0193,0.002964
59.084,70.0659,0.002964
59.116,70.1142,0.002964
59.147,70.1601,0.002964
59.178,70.2063,0.000489
59.209,70.2527,0.000489
59.239,70.2987,0.000489
59.270,70.3419,0.000489
59.301,70.3871,0.000489
59.332,70.4302,0.000489
59.363,70.4726,0.000489
59.394,70.5144,-0.004620
59.430,70.5633,-0.004620
59.471,70.6155,-0.004620
59.502,70.6560,-0.004620
59.533,70.6957,-0.004620
59.565,70.7334,-0.004620
59.596,70.7706,-0.004620
59.627,70.8080,-0.014407
59.658,70.8437,-0.014407
59.690,70.8804,-0.014407
59.721,70.9135,-0.014407
59.752,70.9486,-0.014407
59.783,70.9813,-0.014407
59.814,71.0140,-0.014407
59.846,71.0456,-0.014407
59.877,71.0766,-0.030537
59.908,71.1060,-0.030537
59.939,71.1359,-0.030537
59.974,71.1680,-0.030537
60.001,71.1921,-0.030537
60.033,71.2193,-0.030537
60.064,71.2469,-0.030537
60.094,71.2711,-0.030537
60.126,71.2964,-0.030537
60.158,71.3208,-0.053084
60.191,71.3468,-0.053084
60.220,71.3679,-0.053084
60.251,71.3895,-0.053084
60.282,71.4105,-0.053084
60.313,71.4312,-0.053084
60.344,71.4509,-0.053084
60.375,71.4696,-0.053084
60.408,71.4893,-0.053084
60.437,71.5053,-0.080261
60.467,71.5220,-0.080261
60.498,71.5385,-0.080261
60.530,71.5541,-0.080261
60.561,71.5687,-0.080261
60.592,71.5827,-0.080261
60.623,71.5959,-0.080261
60.654,71.6084,-0.118430
60.685,71.6203,-0.118430
60.718,71.6317,-0.118430
60.751,71.6428,-0.118430
60.778,71.6509,-0.118430
60.809,71.6597,-0.118430
60.840,71.6681,-0.118430
60.872,71.6756,-0.118430
60.901,71.6818,-0.181178
60.931,71.6877,-0.181178
60.961,71.6927,-0.181178
60.995,71.6977,-0.181178
61.022,71.7010,-0.181178
61.053,71.7043,-0.181178
61.084,71.7065,-0.181178
61.114,71.7082,-0.181178
61.146,71.7091,-0.237283
61.177,71.7094,-0.237283
61.208,71.7094,-0.237283
61.239,71.7094,-0.237283
61.269,71.7094,-0.237283
61.300,71.7094,-0.237283
61.332,71.7094,-0.237283
61.362,71.7094,-0.237283
61.394,71.7094,-0.203942
61.425,71.7094,-0.203942
61.456,71.7094,-0.203942
61.488,71.7094,-0.203942
61.519,71.7094,-0.203942
61.550,71.7094,-0.203942
61.581,71.7094,-0.203942
61.612,71.7094,-0.203942
61.642,71.7094,-0.203942
61.673,71.7094,-0.139641
61.704,71.7094,-0.139641
61.737,71.7094,-0.139641
61.768,71.7094,-0.139641
61.799,71.7094,-0.139641
61.830,71.7094,-0.139641
61.860,71.7094,-0.139641
61.892,71.7094,-0.121545
61.922,71.7094,-0.121545
61.954,71.7094,-0.121545
61.985,71.7094,-0.121545
62.015,71.7094,-0.121545
62.047,71.7094,-0.121545
62.078,71.7094,-0.121545
62.109,71.7094,-0.121545
62.141,71.7094,-0.121545
62.172,71.7094,-0.114129
62.202,71.7094,-0.114129
62.234,71.7094,-0.114129
62.264,71.7094,-0.114129
62.296,71.7094,-0.114129
62.327,71.7094,-0.114129
62.359,71.7094,-0.114129
62.389,71.7094,-0.108586
62.421,71.7094,-0.108586
62.452,71.7094,-0.108586
62.482,71.7094,-0.108586
62.514,71.7094,-0.108586
62.545,71.7094,-0.108586
62.576,71.7094,-0.108586
62.606,71.7094,-0.108586
62.637,71.7094,-0.104408
62.669,71.7094,-0.104408
62.699,71.7094,-0.104408
62.732,71.7094,-0.104408
62.763,71.7094,-0.104408
62.794,71.7094,-0.104408
62.825,71.7094,-0.104408
62.856,71.7094,-0.104408
62.886,71.7094,-0.104408
62.917,71.7094,-0.101086
62.948,71.7094,-0.101086
62.978,71.7094,-0.101086
63.009,71.7094,-0.101086
63.041,71.7094,-0.101086
63.071,71.7094,-0.101086
63.104,71.7094,-0.101086
63.133,71.7094,-0.098348
63.168,71.7094,-0.098348
63.195,71.7094,-0.098348
63.226,71.7094,-0.098348
63.257,71.7094,-0.098348
63.288,71.7094,-0.098348
63.319,71.7094,-0.098348
63.351,71.7094,-0.098348
63.381,71.7094,-0.098348
63.412,71.7094,-0.096024
63.442,71.7094,-0.096024
63.477,71.7094,-0.096024
63.504,71.7094,-0.096024
63.535,71.7094,-0.096024
63.565,71.7094,-0.096024
63.596,71.7094,-0.096024
63.627,71.7094,-0.094010
63.657,71.7094,-0.094010
63.688,71.7094,-0.094010
63.719,71.7094,-0.094010
63.750,71.7094,-0.094010
63.781,71.7094,-0.094010
63.812,71.7094,-0.094010
63.847,71.7094,-0.094010
63.876,71.7094,-0.094010
63.906,71.7094,-0.092241
63.937,71.7094,-0.092241
63.968,71.7094,-0.092241
63.998,71.7094,-0.092241
64.029,71.7094,-0.092241
64.060,71.7094,-0.092241
64.091,71.7094,-0.092241
64.122,71.7094,-0.090773
64.155,71.7094,-0.090773
64.185,71.7094,-0.090773
64.216,71.7094,-0.090773
64.247,71.7094,-0.090773
64.278,71.7094,-0.090773
64.309,71.7094,-0.090773
64.340,71.7094,-0.090773
64.371,71.7094,-0.090773
64.402,71.7094,-0.089399
64.432,71.7094,-0.089399
64.463,71.7094,-0.089399
64.496,71.7094,-0.089399
64.527,71.7094,-0.089399
64.557,71.7094,-0.089399
64.588,71.7094,-0.089399
64.620,71.7094,-0.089399
64.651,71.7094,-0.088128
64.682,71.7094,-0.088128
64.713,71.7094,-0.088128
64.743,71.7094,-0.088128
64.774,71.7094,-0.088128
64.805,71.7094,-0.088128
64.837,71.7094,-0.088128
64.868,71.7094,-0.087037
64.901,71.7094,-0.087037
64.932,71.7094,-0.087037
64.964,71.7094,-0.087037
64.994,71.7094,-0.087037
65.024,71.7094,-0.087037
65.056,71.7094,-0.087037
65.086,71.7094,-0.087037
65.117,71.7094,-0.087037
65.148,71.7094,-0.086002
65.179,71.7094,-0.086002
65.210,71.7094,-0.086002
65.241,71.7094,-0.086002
65.271,71.7094,-0.086002
65.301,71.7094,-0.086002
65.332,71.7094,-0.086002
65.363,71.7094,-0.086002
65.394,71.7094,-0.084835
65.424,71.7094,-0.084835
65.455,71.7094,-0.084835
65.486,71.7094,-0.084835
65.518,71.7094,-0.084835
65.549,71.7094,-0.084835
65.580,71.7094,-0.084835
65.611,71.7094,-0.084835
65.642,71.7094,-0.083527
65.673,71.7094,-0.083527
65.704,71.7094,-0.083527
65.738,71.7094,-0.083527
65.767,71.7094,-0.083527
65.797,71.7094,-0.083527
65.829,71.7094,-0.083527
65.859,71.7089,-0.083527
65.891,71.7076,-0.082303
65.921,71.7058,-0.082303
65.951,71.7033,-0.082303
65.983,71.6998,-0.082303
66.015,71.6956,-0.082303
66.046,71.6908,-0.082303
66.078,71.6851,-0.082303
66.108,71.6790,-0.082303
66.138,71.6722,-0.082303
66.169,71.6643,-0.011114
66.202,71.6555,-0.011114
66.232,71.6466,-0.011114
66.261,71.6372,-0.011114
66.292,71.6264,-0.011114
66.324,71.6150,-0.011114
66.354,71.6031,-0.011114
66.385,71.5903,-0.011114
66.416,71.5769,0.022368
66.446,71.5631,0.022368
66.477,71.5483,0.022368
66.508,71.5325,0.022368
66.539,71.5160,0.022368
66.570,71.4988,0.022368
66.600,71.4815,0.022368
66.631,71.4627,0.022368
66.662,71.4435,0.022368
66.693,71.4234,-0.008479
66.724,71.4033,-0.008479
66.755,71.3813,-0.008479
66.786,71.3594,-0.008479
66.817,71.3365,-0.008479
66.848,71.3130,-0.008479
66.879,71.2887,-0.008479
66.910,71.2637,0.007434
66.940,71.2381,0.007434
66.971,71.2112,0.007434
67.002,71.1850,0.007434
67.032,71.1567,0.007434
67.064,71.1277,0.007434
67.094,71.0987,0.007434
67.124,71.0700,0.007434
67.156,71.0378,0.025107
67.187,71.0065,0.025107
67.218,70.9737,0.025107
67.249,70.9410,0.025107
67.280,70.9079,0.025107
67.310,70.8736,0.025107
67.342,70.8382,0.025107
67.372,70.8020,0.025107
67.404,70.7657,0.037839
67.433,70.7296,0.037839
67.464,70.6914,0.037839
67.495,70.6522,0.037839
67.526,70.6137,0.037839
67.558,70.5727,0.037839
67.589,70.5310,0.037839
67.619,70.4905,0.037839
67.650,70.4473,0.044935
67.681,70.4053,0.044935
67.711,70.3610,0.044935
67.742,70.3173,0.044935
67.772,70.2732,0.044935
67.803,70.2274,0.044935
67.834,70.1810,0.044935
67.865,70.1350,0.044935
67.896,70.0884,0.049433
67.927,70.0406,0.049433
67.958,69.9951,0.049433
67.989,69.9493,0.049433
68.020,69.9028,0.049433
68.051,69.8558,0.049433
68.082,69.8091,0.049433
68.113,69.7617,0.049433
68.144,69.7163,0.052962
68.179,69.6632,0.052962
68.206,69.6235,0.052962
68.236,69.5781,0.052962
68.267,69.5315,0.052962
68.298,69.4852,0.052962
68.329,69.4389,0.052962
68.359,69.3936,0.052962
68.391,69.3461,0.055634
68.423,69.2974,0.055634
68.453,69.2527,0.055634
68.484,69.2064,0.055634
68.514,69.1607,0.055634
68.550,69.1081,0.055634
68.577,69.0664,0.055634
68.608,69.0195,0.055634
68.639,68.9734,0.056368
68.671,68.9263,0.056368
68.702,68.8790,0.056368
68.732,68.8330,0.056368
68.762,68.7890,0.056368
68.793,68.7422,0.056368
68.824,68.6961,0.056368
68.855,68.6501,0.056368
68.885,68.6047,0.056368
68.917,68.5572,0.047165
68.947,68.5118,0.047165
68.978,68.4649,0.047165
69.009,68.4185,0.047165
69.040,68.3721,0.047165
69.071,68.3259,0.047165
69.103,68.2781,0.047165
69.133,68.2324,0.024938
69.165,68.1844,0.024938
69.194,68.1407,0.024938
69.226,68.0936,0.024938
69.257,68.0481,0.024938
69.289,68.0024,0.024938
69.320,67.9589,0.024938
69.350,67.9162,0.024938
69.382,67.8737,0.010634
69.413,67.8318,0.010634
69.444,67.7911,0.010634
69.475,67.7504,0.010634
69.506,67.7112,0.010634
69.537,67.6721,0.010634
69.568,67.6343,0.010634
69.599,67.5961,0.010634
69.630,67.5607,0.009693
69.660,67.5253,0.009693
69.692,67.4893,0.009693
69.723,67.4540,0.009693
69.755,67.4208,0.009693
69.786,67.3876,0.009693
69.817,67.3549,0.009693
69.849,67.3222,0.009693
69.880,67.2923,0.009382
69.911,67.2608,0.009382
69.943,67.2314,0.009382
69.974,67.2033,0.009382
70.004,67.1759,0.009382
70.037,67.1479,0.009382
70.067,67.1224,0.009382
70.098,67.0968,0.009382
70.129,67.0718,0.009166
70.160,67.0479,0.009166
70.190,67.0251,0.009166
70.221,67.0024,0.009166
70.252,66.9805,0.009166
70.284,66.9585,0.009166
70.313,66.9389,0.009166
70.346,66.9183,0.009166
70.376,66.8995,0.009053
70.407,66.8809,0.009053
70.438,66.8635,0.009053
70.469,66.8464,0.009053
70.500,66.8305,0.009053
70.531,66.8154,0.009053
70.561,66.8010,0.009053
70.592,66.7867,0.009053
70.623,66.7736,0.009053
70.654,66.7608,0.008996
70.686,66.7490,0.008996
70.717,66.7376,0.008996
70.749,66.7273,0.008996
70.780,66.7174,0.008996
70.811,66.7089,0.008996
70.841,66.7008,0.008996
70.872,66.6936,0.008996
70.904,66.6867,0.008855
70.935,66.6807,0.008855
70.967,66.6755,0.008855
70.999,66.6708,0.008855
71.028,66.6673,0.008855
71.059,66.6642,0.008855
71.091,66.6619,0.008855
71.122,66.6604,0.008855
71.153,66.6595,0.008723
71.184,66.6594,0.008723
71.215,66.6594,0.008723
71.247,66.6594,0.008723
71.278,66.6594,0.008723
71.309,66.6594,0.008723
71.340,66.6594,0.008723
71.372,66.6594,0.008723
71.404,66.6594,0.008723
71.435,66.6594,0.008705
71.466,66.6594,0.008705
71.496,66.6594,0.008705
71.527,66.6594,0.008705
71.558,66.6594,0.008705
71.589,66.6594,0.008705
71.620,66.6594,0.008705
71.651,66.6594,0.008705
71.682,66.6594,0.008686
71.713,66.6594,0.008686
71.744,66.6594,0.008686
71.775,66.6594,0.008686
71.805,66.6594,0.008686
71.835,66.6601,0.008686
71.867,66.6615,0.008686
71.898,66.6636,0.008620
71.929,66.6663,0.008620
71.959,66.6699,0.008620
71.991,66.6743,0.008620
72.021,66.6792,0.008620
72.052,66.6848,0.008620
72.082,66.6912,0.008620
72.113,66.6982,0.008620
72.144,66.7064,0.008516
72.176,66.7149,0.008516
72.205,66.7239,0.008516
72.236,66.7339,0.008516
72.267,66.7447,0.008516
72.299,66.7565,0.008516
72.329,66.7684,0.008516
72.360,66.7812,0.008516
72.390,66.7946,0.008516
72.421,66.8088,0.008347
72.451,66.8236,0.008347
72.483,66.8400,0.008347
72.515,66.8568,0.008347
72.546,66.8742,0.008347
72.576,66.8917,0.008347
72.610,66.9126,0.008347
72.638,66.9301,0.008347
72.670,66.9508,0.008131
72.700,66.9714,0.008131
72.734,66.9951,0.008131
72.762,67.0152,0.008131
72.796,67.0414,0.008131
72.826,67.0632,0.008131
72.860,67.0904,0.008131
72.887,67.1133,0.007952
72.919,67.1395,0.007952
72.949,67.1655,0.007952
72.980,67.1934,0.007952
73.011,67.2210,0.007952
73.042,67.2507,0.007952
73.073,67.2800,0.007952
73.104,67.3101,0.007952
73.136,67.3419,0.007952
73.166,67.3733,0.007698
73.198,67.4066,0.007698
73.228,67.4396,0.007698
73.260,67.4747,0.007698
73.290,67.5083,0.007698
73.321,67.5434,0.007698
73.352,67.5796,0.007698
73.383,67.6165,0.007312
73.414,67.6547,0.007312
73.445,67.6929,0.007312
73.476,67.7325,0.007312
73.507,67.7715,0.007312
73.537,67.8127,0.007312
73.569,67.8532,0.007312
73.600,67.8974,0.007312
73.632,67.9402,0.007312
73.664,67.9853,0.006841
73.694,68.0292,0.006841
73.726,68.0734,0.006841
73.756,68.1195,0.006841
73.787,68.1651,0.006841
73.818,68.2123,0.006841
73.849,68.2582,0.006841
73.880,68.3045,0.006286
73.911,68.3511,0.006286
73.944,68.4007,0.006286
73.973,68.4447,0.006286
74.004,68.4902,0.006286
74.036,68.5383,0.006286
74.067,68.5855,0.006286
74.099,68.6340,0.006286
74.129,68.6776,0.005740
74.161,68.7261,0.005740
74.192,68.7722,0.005740
74.223,68.8196,0.005740
74.254,68.8651,0.005740
74.285,68.9131,0.005740
74.316,68.9577,0.005740
74.347,69.0061,0.005740
74.377,69.0505,0.005044
74.409,69.0988,0.005044
74.440,69.1447,0.005044
74.476,69.1976,0.005044
74.502,69.2387,0.005044
74.534,69.2863,0.005044
74.564,69.3306,0.005044
74.595,69.3767,0.005044
74.626,69.4236,0.004065
74.658,69.4714,0.004065
74.688,69.5164,0.004065
74.720,69.5644,0.004065
74.750,69.6093,0.004065
74.781,69.6565,0.004065
74.812,69.7018,0.004065
74.843,69.7492,0.004065
74.873,69.7941,0.002513
74.907,69.8448,0.002513
74.935,69.8877,0.002513
74.968,69.9363,0.002513
75.001,69.9865,0.002513
75.029,70.0288,0.002513
75.063,70.0789,0.002513
75.092,70.1221,0.002513
75.122,70.1677,0.002513
75.153,70.2130,-0.000452
75.184,70.2590,-0.000452
75.215,70.3042,-0.000452
75.246,70.3489,-0.000452
75.277,70.3912,-0.000452
75.311,70.4385,-0.000452
75.339,70.4751,-0.000452
75.369,70.5170,-0.000452
75.401,70.5566,-0.000452
75.432,70.5976,-0.006587
75.462,70.6344,-0.006587
75.493,70.6739,-0.006587
75.524,70.7104,-0.006587
75.555,70.7476,-0.006587
75.586,70.7830,-0.006587
75.619,70.8214,-0.006587
75.648,70.8536,-0.006587
75.683,70.8912,-0.017917
75.710,70.9200,-0.017917
75.743,70.9555,-0.017917
75.772,70.9848,-0.017917
75.803,71.0153,-0.017917
75.834,71.0455,-0.017917
75.865,71.0754,-0.017917
75.897,71.1046,-0.035703
75.928,71.1324,-0.035703
75.958,71.1598,-0.035703
75.989,71.1867,-0.035703
76.020,71.2121,-0.035703
76.051,71.2367,-0.035703
76.082,71.2613,-0.035703
76.112,71.2851,-0.035703
76.144,71.3088,-0.035703
76.174,71.3297,-0.059596
76.207,71.3522,-0.059596
76.237,71.3726,-0.059596
76.269,71.3933,-0.059596
76.299,71.4120,-0.059596
76.332,71.4315,-0.059596
76.361,71.4484,-0.059596
76.392,71.4658,-0.087987
76.423,71.4821,-0.087987
76.454,71.4980,-0.087987
76.484,71.5123,-0.087987
76.516,71.5269,-0.087987
76.547,71.5404,-0.087987
76.580,71.5545,-0.087987
76.608,71.5650,-0.087987
76.639,71.5767,-0.087987
76.669,71.5867,-0.131755
76.700,71.5965,-0.131755
76.731,71.6058,-0.131755
76.763,71.6145,-0.131755
76.794,71.6220,-0.131755
76.825,71.6292,-0.131755
76.855,71.6352,-0.131755
76.887,71.6410,-0.131755
76.917,71.6456,-0.131755
76.951,71.6502,-0.198907
76.979,71.6532,-0.198907
77.010,71.6558,-0.198907
77.041,71.6578,-0.198907
77.072,71.6589,-0.198907
77.103,71.6594,-0.198907
77.133,71.6594,-0.198907
77.164,71.6594,-0.239278
77.196,71.6594,-0.239278
77.228,71.6594,-0.239278
77.259,71.6594,-0.239278
77.289,71.6594,-0.239278
77.319,71.6594,-0.239278
77.350,71.6594,-0.239278
77.381,71.6594,-0.239278
77.412,71.6594,-0.190617
77.443,71.6594,-0.190617
77.475,71.6594,-0.190617
77.505,71.6594,-0.190617
77.536,71.6594,-0.190617
77.566,71.6594,-0.190617
77.597,71.6594,-0.190617
77.628,71.6594,-0.190617
77.659,71.6594,-0.131200
77.690,71.6594,-0.131200
77.721,71.6594,-0.131200
77.752,71.6594,-0.131200
77.783,71.6594,-0.131200
77.814,71.6594,-0.131200
77.845,71.6594,-0.131200
77.876,71.6594,-0.131200
77.907,71.6594,-0.118561
77.940,71.6594,-0.118561
77.969,71.6594,-0.118561
78.000,71.6594,-0.118561
78.031,71.6594,-0.118561
78.062,71.6594,-0.118561
78.092,71.6594,-0.118561
78.124,71.6594,-0.118561
78.154,71.6594,-0.111955
78.188,71.6594,-0.111955
78.215,71.6594,-0.111955
78.245,71.6594,-0.111955
78.276,71.6594,-0.111955
78.307,71.6594,-0.111955
78.337,71.6594,-0.111955
78.368,71.6594,-0.111955
78.399,71.6594,-0.106958
78.429,71.6594,-0.106958
78.460,71.6594,-0.106958
78.491,71.6594,-0.106958
78.522,71.6594,-0.106958
78.553,71.6594,-0.106958
78.584,71.6594,-0.106958
78.615,71.6594,-0.106958
78.646,71.6594,-0.103063
78.677,71.6594,-0.103063
78.708,71.6594,-0.103063
78.740,71.6594,-0.103063
78.771,71.6594,-0.103063
78.802,71.6594,-0.103063
78.832,71.6594,-0.103063
78.866,71.6594,-0.103063
78.895,71.6594,-0.099910
78.925,71.6594,-0.099910
78.956,71.6594,-0.099910
78.987,71.6594,-0.099910
79.018,71.6594,-0.099910
79.052,71.6594,-0.099910
79.079,71.6594,-0.099910
79.110,71.6594,-0.099910
79.141,71.6594,-0.099910
79.172,71.6594,-0.097303
79.203,71.6594,-0.097303
79.234,71.6594,-0.097303
79.265,71.6594,-0.097303
79.296,71.6594,-0.097303
79.327,71.6594,-0.097303
79.358,71.6594,-0.097303
79.388,71.6594,-0.095073
79.418,71.6594,-0.095073
79.449,71.6594,-0.095073
79.480,71.6594,-0.095073
79.511,71.6594,-0.095073
79.545,71.6594,-0.095073
79.573,71.6594,-0.095073
79.604,71.6594,-0.095073
79.634,71.6594,-0.093163
79.665,71.6594,-0.093163
79.696,71.6594,-0.093163
79.727,71.6594,-0.093163
79.758,71.6594,-0.093163
79.788,71.6594,-0.093163
79.819,71.6594,-0.093163
79.851,71.6594,-0.093163
79.881,71.6594,-0.091497
79.911,71.6594,-0.091497
79.942,71.6594,-0.091497
79.973,71.6594,-0.091497
80.005,71.6594,-0.091497
80.037,71.6594,-0.091497
80.068,71.6594,-0.091497
80.099,71.6594,-0.091497
80.130,71.6594,-0.090010
80.161,71.6594,-0.090010
80.192,71.6594,-0.090010
80.224,71.6594,-0.090010
80.254,71.6594,-0.090010
80.286,71.6594,-0.090010
80.316,71.6594,-0.090010
80.347,71.6594,-0.090010
80.379,71.6594,-0.088702
80.410,71.6594,-0.088702
80.440,71.6594,-0.088702
80.472,71.6594,-0.088702
80.503,71.6594,-0.088702
80.534,71.6594,-0.088702
80.565,71.6594,-0.088702
80.597,71.6594,-0.088702
80.627,71.6594,-0.087498
80.658,71.6594,-0.087498
80.692,71.6594,-0.087498
80.723,71.6594,-0.087498
80.753,71.6594,-0.087498
80.785,71.6594,-0.087498
80.816,71.6594,-0.087498
80.846,71.6594,-0.087498
80.877,71.6594,-0.087498
80.909,71.6594,-0.086425
80.940,71.6594,-0.086425
80.970,71.6594,-0.086425
81.001,71.6594,-0.086425
81.032,71.6594,-0.086425
81.063,71.6594,-0.086425
81.094,71.6594,-0.086425
81.126,71.6594,-0.086425
81.156,71.6594,-0.085315
81.186,71.6594,-0.085315
81.218,71.6594,-0.085315
81.249,71.6594,-0.085315
81.279,71.6594,-0.085315
81.310,71.6594,-0.085315
81.342,71.6594,-0.085315
81.373,71.6594,-0.085315
81.404,71.6594,-0.084072
81.436,71.6594,-0.084072
81.467,71.6594,-0.084072
81.498,71.6594,-0.084072
81.530,71.6594,-0.084072
81.560,71.6594,-0.084072
81.591,71.6594,-0.084072
81.622,71.6594,-0.084072
81.653,71.6594,-0.084072
81.684,71.6593,-0.082830
81.715,71.6586,-0.082830
81.747,71.6571,-0.082830
81.779,71.6549,-0.082830
81.809,71.6521,-0.082830
81.840,71.6486,-0.082830
81.870,71.6442,-0.082830
81.900,71.6394,-0.061064
81.932,71.6337,-0.061064
81.964,71.6269,-0.061064
81.994,71.6198,-0.061064
82.025,71.6119,-0.061064
82.057,71.6029,-0.061064
82.087,71.5935,-0.061064
82.119,71.5834,-0.061064
82.150,71.5723,-0.061064
82.180,71.5612,-0.024796
82.211,71.5491,-0.024796
82.243,71.5354,-0.024796
82.273,71.5221,-0.024796
82.307,71.5061,-0.024796
82.334,71.4927,-0.024796
82.365,71.4764,-0.024796
82.396,71.4601,-0.024796
82.427,71.4425,-0.009410
82.458,71.4248,-0.009410
82.490,71.4054,-0.009410
82.519,71.3874,-0.009410
82.549,71.3671,-0.009410
82.580,71.3468,-0.009410
82.611,71.3249,-0.009410
82.641,71.3027,0.000198
82.677,71.2755,0.000198
82.718,71.2440,0.000198
82.749,71.2192,0.000198
82.780,71.1934,0.000198
82.810,71.1680,0.000198
82.842,71.1398,0.000198
82.872,71.1132,0.018529
82.903,71.0839,0.018529
82.935,71.0546,0.018529
82.966,71.0233,0.018529
82.998,70.9930,0.018529
83.029,70.9608,0.018529
83.060,70.9286,0.018529
83.091,70.8958,0.018529
83.122,70.8618,0.018529
83.153,70.8273,0.033548
83.185,70.7912,0.033548
83.216,70.7554,0.033548
83.247,70.7185,0.033548
83.282,70.6756,0.033548
83.310,70.6431,0.033548
83.340,70.6047,0.033548
83.372,70.5644,0.033548
83.402,70.5246,0.042733
83.433,70.4838,0.042733
83.464,70.4422,0.042733
83.495,70.3995,0.042733
83.526,70.3560,0.042733
83.560,70.3086,0.042733
83.588,70.2682,0.042733
83.618,70.2239,0.042733
83.650,70.1766,0.048219
83.681,70.1304,0.048219
83.713,70.0823,0.048219
83.744,70.0344,0.048219
83.775,69.9905,0.048219
83.807,69.9419,0.048219
83.837,69.8959,0.048219
83.868,69.8494,0.048219
83.899,69.8034,0.048219
83.931,69.7561,0.052548
83.961,69.7111,0.052548
83.992,69.6633,0.052548
84.024,69.6157,0.052548
84.054,69.5703,0.052548
84.086,69.5223,0.052548
84.118,69.4748,0.052548
84.150,69.4267,0.055540
84.181,69.3813,0.055540
84.210,69.3365,0.055540
84.241,69.2899,0.055540
84.273,69.2428,0.055540
84.303,69.1957,0.055540
84.334,69.1513,0.055540
84.365,69.1038,0.055540
84.396,69.0580,0.055540
84.427,69.0106,0.057140
84.459,68.9629,0.057140
84.490,68.9164,0.057140
84.522,68.8690,0.057140
84.553,68.8221,0.057140
84.584,68.7756,0.057140
84.615,68.7286,0.057140
84.646,68.6831,0.053404
84.677,68.6357,0.053404
84.707,68.5907,0.053404
84.740,68.5420,0.053404
84.770,68.4967,0.053404
84.802,68.4494,0.053404
84.833,68.4017,0.053404
84.864,68.3548,0.053404
84.896,68.3081,0.031967
84.927,68.2606,0.031967
84.958,68.2144,0.031967
84.989,68.1675,0.031967
85.020,68.1221,0.031967
85.052,68.0744,0.031967
85.081,68.0301,0.031967
85.116,67.9800,0.031967
85.143,67.9420,0.031967
85.174,67.8981,0.012657
85.205,67.8542,0.012657
85.236,67.8118,0.012657
85.267,67.7710,0.012657
85.301,67.7261,0.012657
85.329,67.6901,0.012657
85.360,67.6509,0.012657
85.391,67.6130,0.010069
85.422,67.5754,0.010069
85.453,67.5377,0.010069
85.484,67.5007,0.010069
85.515,67.4661,0.010069
85.545,67.4317,0.010069
85.576,67.3976,0.010069
85.607,67.3637,0.010069
85.638,67.3312,0.009533
85.670,67.2973,0.009533
85.701,67.2668,0.009533
85.732,67.2362,0.009533
85.763,67.2071,0.009533
85.794,67.1770,0.009533
85.826,67.1485,0.009533
85.857,67.1206,0.009533
85.889,67.0928,0.009297
85.921,67.0663,0.009297
85.950,67.0414,0.009297
85.981,67.0171,0.009297
86.013,66.9924,0.009297
86.044,66.9689,0.009297
86.075,66.9466,0.009297
86.106,66.9252,0.009297
86.137,66.9039,0.009297
86.168,66.8834,0.009175
86.199,66.8640,0.009175
86.230,66.8450,0.009175
86.261,66.8272,0.009175
86.293,66.8091,0.009175
86.324,66.7921,0.009175
86.355,66.7761,0.009175
86.386,66.7608,0.009034
86.418,66.7461,0.009034
86.449,66.7325,0.009034
86.480,66.7192,0.009034
86.512,66.7065,0.009034
86.542,66.6955,0.009034
86.573,66.6845,0.009034
86.608,66.6733,0.009034
86.635,66.6653,0.008883
86.666,66.6565,0.008883
86.696,66.6488,0.008883
86.727,66.6416,0.008883
86.759,66.6351,0.008883
86.791,66.6290,0.008883
86.821,66.6243,0.008883
86.853,66.6198,0.008883
86.883,66.6163,0.008799
86.914,66.6136,0.008799
86.944,66.6115,0.008799
86.976,66.6100,0.008799
87.005,66.6095,0.008799
87.038,66.6094,0.008799
87.068,66.6094,0.008799
87.099,66.6094,0.008799
87.131,66.6094,0.008761
87.162,66.6094,0.008761
87.194,66.6094,0.008761
87.224,66.6094,0.008761
87.255,66.6094,0.008761
87.287,66.6094,0.008761
87.317,66.6094,0.008761
87.348,66.6094,0.008761
87.379,66.6094,0.008752
87.409,66.6094,0.008752
87.441,66.6094,0.008752
87.472,66.6094,0.008752
87.503,66.6094,0.008752
87.534,66.6094,0.008752
87.564,66.6094,0.008752
87.595,66.6098,0.008752
87.626,66.6110,0.008705
87.658,66.6130,0.008705
87.690,66.6156,0.008705
87.721,66.6189,0.008705
87.752,66.6230,0.008705
87.783,66.6279,0.008705
87.813,66.6333,0.008705
87.845,66.6398,0.008705
87.876,66.6466,0.008545
87.907,66.6543,0.008545
87.938,66.6628,0.008545
87.968,66.6719,0.008545
87.999,66.6817,0.008545
88.030,66.6924,0.008545
88.061,66.7034,0.008545
88.093,66.7162,0.008545
88.124,66.7291,0.008375
88.155,66.7426,0.008375
88.187,66.7572,0.008375
88.219,66.7725,0.008375
88.249,66.7881,0.008375
88.280,66.8050,0.008375
88.311,66.8217,0.008375
88.342,66.8400,0.008375
88.374,66.8592,0.008375
88.404,66.8779,0.008196
88.436,66.8989,0.008196
88.468,66.9199,0.008196
88.499,66.9421,0.008196
88.530,66.9639,0.008196
88.560,66.9864,0.008196
88.590,67.0097,0.008196
88.621,67.0336,0.008196
88.651,67.0587,0.008196
88.681,67.0840,0.007971
88.714,67.1119,0.007971
88.746,67.1395,0.007971
88.775,67.1671,0.007971
88.807,67.1961,0.007971
88.837,67.2248,0.007971
88.868,67.2548,0.007971
88.899,67.2854,0.007971
88.930,67.3179,0.007735
88.962,67.3512,0.007735
88.992,67.3835,0.007735
89.023,67.4175,0.007735
89.054,67.4514,0.007735
89.085,67.4876,0.007735
89.116,67.5228,0.007735
89.147,67.5614,0.007434
89.178,67.5979,0.007434
89.210,67.6374,0.007434
89.240,67.6751,0.007434
89.272,67.7167,0.007434
89.302,67.7557,0.007434
89.333,67.7972,0.007434
89.365,67.8391,0.007434
89.396,67.8831,0.006954
89.428,67.9270,0.006954
89.459,67.9715,0.006954
89.488,68.0132,0.006954
89.521,68.0625,0.006954
89.552,68.1092,0.006954
89.583,68.1548,0.006954
89.615,68.2019,0.006954
89.646,68.2482,0.006408
89.676,68.2942,0.006408
89.707,68.3414,0.006408
89.739,68.3883,0.006408
89.771,68.4360,0.006408
89.801,68.4821,0.006408
89.831,68.5277,0.006408
89.862,68.5736,0.006408
89.895,68.6225,0.006408
89.926,68.6684,0.005825
89.956,68.7151,0.005825
89.988,68.7614,0.005825
90.019,68.8093,0.005825
90.050,68.8546,0.005825
90.081,68.9018,0.005825
90.111,68.9471,0.005825
90.142,68.9944,0.005100
90.173,69.0401,0.005100
90.204,69.0860,0.005100
90.235,69.1330,0.005100
90.267,69.1805,0.005100
90.298,69.2278,0.005100
90.330,69.2749,0.005100
90.361,69.3219,0.005100
90.392,69.3700,0.004206
90.423,69.4160,0.004206
90.455,69.4628,0.004206
90.485,69.5084,0.004206
90.518,69.5567,0.004206
90.548,69.6029,0.004206
90.579,69.6503,0.004206
90.612,69.6986,0.004206
90.641,69.7428,0.002748
90.672,69.7885,0.002748
90.703,69.8360,0.002748
90.734,69.8821,0.002748
90.765,69.9294,0.002748
90.797,69.9751,0.002748
90.829,70.0249,0.002748
90.859,70.0698,0.002748
90.890,70.1158,-0.000169
90.921,70.1611,-0.000169
90.952,70.2067,-0.000169
90.983,70.2525,-0.000169
91.014,70.2951,-0.000169
91.046,70.3404,-0.000169
91.076,70.3814,-0.000169
91.107,70.4244,-0.000169
91.139,70.4661,-0.006060
91.169,70.5056,-0.006060
91.198,70.5430,-0.006060
91.230,70.5830,-0.006060
91.260,70.6202,-0.006060
91.291,70.6586,-0.006060
91.323,70.6958,-0.006060
91.354,70.7317,-0.006060
91.384,70.7663,-0.016910
91.415,70.8008,-0.016910
91.446,70.8346,-0.016910
91.477,70.8677,-0.016910
91.508,70.9010,-0.016910
91.539,70.9324,-0.016910
91.570,70.9640,-0.016910
91.603,70.9946,-0.016910
91.632,71.0228,-0.016910
91.662,71.0510,-0.034244
91.694,71.0794,-0.034244
91.724,71.1069,-0.034244
91.755,71.1333,-0.034244
91.786,71.1593,-0.034244
91.817,71.1846,-0.034244
91.848,71.2092,-0.034244
91.879,71.2322,-0.057695
91.910,71.2554,-0.057695
91.940,71.2773,-0.057695
91.971,71.2987,-0.057695
92.002,71.3202,-0.057695
92.032,71.3394,-0.057695
92.064,71.3595,-0.057695
92.094,71.3776,-0.057695
92.126,71.3962,-0.085569
92.157,71.4133,-0.085569
92.188,71.4299,-0.085569
92.219,71.4454,-0.085569
92.250,71.4604,-0.085569
92.281,71.4750,-0.085569
92.311,71.4882,-0.085569
92.342,71.5009,-0.085569
92.372,71.5129,-0.127492
92.403,71.5242,-0.127492
92.433,71.5349,-0.127492
92.464,71.5450,-0.127492
92.495,71.5542,-0.127492
92.527,71.5633,-0.127492
92.558,71.5709,-0.127492
92.589,71.5780,-0.127492
92.620,71.5846,-0.127492
92.651,71.5900,-0.193440
92.682,71.5950,-0.193440
92.713,71.5992,-0.193440
92.744,71.6027,-0.193440
92.775,71.6054,-0.193440
92.805,71.6074,-0.193440
92.836,71.6088,-0.193440
92.868,71.6094,-0.193440
92.898,71.6094,-0.238290
92.929,71.6094,-0.238290
92.960,71.6094,-0.238290
92.990,71.6094,-0.238290
93.021,71.6094,-0.238290
93.056,71.6094,-0.238290
93.084,71.6094,-0.238290
93.114,71.6094,-0.238290
93.144,71.6094,-0.194202
93.175,71.6094,-0.194202
93.206,71.6094,-0.194202
93.237,71.6094,-0.194202
93.267,71.6094,-0.194202
93.298,71.6094,-0.194202
93.330,71.6094,-0.194202
93.361,71.6094,-0.194202
