Elapsed Time (s),Position (mm),Force (N)
-0.006,77.4094,-0.051908
0.024,77.4094,-0.051908
0.055,77.4094,-0.051908
0.086,77.4094,-0.051908
0.117,77.4094,-0.051908
0.148,77.4094,-0.049960
0.179,77.4094,-0.049960
0.210,77.4094,-0.049960
0.241,77.4094,-0.049960
0.272,77.4094,-0.049960
0.304,77.4094,-0.049960
0.335,77.4094,-0.049960
0.366,77.4094,-0.049960
0.397,77.4094,-0.049960
0.428,77.4094,-0.049960
0.458,77.4094,-0.046337
0.490,77.4094,-0.046337
0.521,77.4094,-0.046337
0.552,77.4094,-0.046337
0.583,77.4094,-0.046337
0.615,77.4094,-0.046337
0.645,77.4094,-0.043796
0.676,77.4094,-0.043796
0.707,77.4094,-0.043796
0.739,77.4094,-0.043796
0.770,77.4094,-0.043796
0.802,77.4094,-0.043796
0.833,77.4094,-0.043796
0.865,77.4094,-0.043796
0.897,77.4094,-0.043796
0.929,77.4094,-0.041942
0.960,77.4094,-0.041942
0.990,77.4094,-0.041942
1.019,77.4094,-0.041942
1.053,77.4094,-0.041942
1.086,77.4094,-0.041942
1.114,77.4094,-0.041942
1.145,77.4094,-0.041942
1.177,77.4094,-0.041942
1.207,77.4094,-0.040465
1.238,77.4094,-0.040465
1.269,77.4094,-0.040465
1.300,77.4094,-0.040465
1.331,77.4094,-0.040465
1.361,77.4094,-0.040465
1.392,77.4094,-0.040465
1.423,77.4094,-0.039241
1.454,77.4094,-0.039241
1.485,77.4094,-0.039241
1.516,77.4094,-0.039241
1.548,77.4094,-0.039241
1.575,77.4094,-0.039241
1.611,77.4094,-0.039241
1.642,77.4094,-0.039241
1.673,77.4094,-0.038178
1.709,77.4094,-0.038178
1.736,77.4094,-0.038178
1.767,77.4094,-0.038178
1.799,77.4094,-0.038178
1.829,77.4094,-0.038178
1.860,77.4094,-0.038178
1.890,77.4094,-0.038178
1.922,77.4094,-0.037284
1.953,77.4094,-0.037284
1.983,77.4094,-0.037284
2.014,77.4094,-0.037284
2.045,77.4094,-0.037284
2.075,77.4094,-0.037284
2.106,77.4094,-0.037284
2.138,77.4094,-0.037284
2.168,77.4094,-0.036531
2.200,77.4094,-0.036531
2.229,77.4094,-0.036531
2.261,77.4094,-0.036531
2.293,77.4094,-0.036531
2.324,77.4094,-0.036531
2.355,77.4094,-0.036531
2.386,77.4094,-0.036531
2.417,77.4094,-0.035825
2.448,77.4094,-0.035825
2.479,77.4094,-0.035825
2.511,77.4094,-0.035825
2.540,77.4094,-0.035825
2.571,77.4094,-0.035825
2.602,77.4094,-0.035825
2.633,77.4094,-0.035825
2.663,77.4094,-0.035167
2.694,77.4094,-0.035167
2.725,77.4094,-0.035167
2.755,77.4094,-0.035167
2.787,77.4094,-0.035167
2.817,77.4094,-0.035167
2.849,77.4094,-0.035167
2.880,77.4094,-0.035167
2.911,77.4094,-0.034640
2.943,77.4094,-0.034640
2.973,77.4094,-0.034640
3.004,77.4094,-0.034640
3.034,77.4094,-0.034640
3.065,77.4094,-0.034640
3.096,77.4094,-0.034640
3.127,77.4094,-0.034640
3.158,77.4094,-0.034150
3.190,77.4094,-0.034150
3.221,77.4094,-0.034150
3.251,77.4094,-0.034150
3.282,77.4094,-0.034150
3.313,77.4094,-0.034150
3.346,77.4094,-0.034150
3.375,77.4094,-0.034150
3.406,77.4094,-0.034150
3.437,77.4094,-0.033652
3.469,77.4094,-0.033652
3.500,77.4094,-0.033652
3.533,77.4094,-0.033652
3.562,77.4094,-0.033652
3.593,77.4094,-0.033652
3.624,77.4094,-0.033652
3.657,77.4094,-0.033652
3.686,77.4094,-0.033172
3.717,77.4094,-0.033172
3.749,77.4094,-0.033172
3.780,77.4094,-0.033172
3.811,77.4094,-0.033172
3.843,77.4094,-0.033172
3.874,77.4094,-0.033172
3.904,77.4094,-0.033172
3.935,77.4094,-0.032692
3.966,77.4094,-0.032692
3.998,77.4094,-0.032692
4.028,77.4094,-0.032692
4.059,77.4094,-0.032692
4.090,77.4094,-0.032692
4.120,77.4094,-0.032692
4.152,77.4087,-0.032278
4.182,77.4075,-0.032278
4.214,77.4055,-0.032278
4.245,77.4028,-0.032278
4.272,77.3997,-0.032278
4.306,77.3952,-0.032278
4.336,77.3905,-0.032278
4.366,77.3850,-0.032278
4.397,77.3786,-0.031101
4.428,77.3715,-0.031101
4.460,77.3638,-0.031101
4.490,77.3555,-0.031101
4.521,77.3463,-0.031101
4.551,77.3367,-0.031101
4.582,77.3259,-0.031101
4.613,77.3147,-0.031101
4.643,77.3027,-0.031101
4.675,77.2897,-0.024100
4.706,77.2760,-0.024100
4.738,77.2610,-0.024100
4.768,77.2465,-0.024100
4.797,77.2320,-0.024100
4.832,77.2135,-0.024100
4.862,77.1968,-0.024100
4.893,77.1790,-0.010549
4.924,77.1603,-0.010549
4.954,77.1413,-0.010549
4.987,77.1199,-0.010549
5.017,77.0994,-0.010549
5.048,77.0780,-0.010549
5.079,77.0558,-0.010549
5.110,77.0324,-0.010549
5.141,77.0089,-0.010549
5.172,76.9843,0.003802
5.203,76.9594,0.003802
5.234,76.9336,0.003802
5.265,76.9063,0.003802
5.297,76.8790,0.003802
5.328,76.8503,0.003802
5.358,76.8222,0.003802
5.389,76.7927,0.015113
5.420,76.7624,0.015113
5.451,76.7314,0.015113
5.483,76.6987,0.015113
5.515,76.6650,0.015113
5.545,76.6332,0.015113
5.576,76.5979,0.015113
5.607,76.5640,0.015113
5.639,76.5279,0.021917
5.670,76.4908,0.021917
5.702,76.4531,0.021917
5.733,76.4144,0.021917
5.765,76.3764,0.021917
5.796,76.3368,0.021917
5.827,76.2971,0.021917
5.858,76.2569,0.021917
5.889,76.2159,0.021917
5.919,76.1740,0.026942
5.951,76.1304,0.026942
5.981,76.0880,0.026942
6.012,76.0436,0.026942
6.044,75.9977,0.026942
6.076,75.9512,0.026942
6.107,75.9038,0.026942
6.138,75.8573,0.026942
6.170,75.8099,0.032899
6.201,75.7629,0.032899
6.233,75.7156,0.032899
6.263,75.6683,0.032899
6.295,75.6222,0.032899
6.326,75.5752,0.032899
6.358,75.5279,0.032899
6.386,75.4857,0.032899
6.420,75.4343,0.037943
6.452,75.3869,0.037943
6.481,75.3421,0.037943
6.513,75.2959,0.037943
6.543,75.2494,0.037943
6.574,75.2025,0.037943
6.605,75.1562,0.037943
6.636,75.1096,0.037943
6.667,75.0638,0.037943
6.699,75.0156,0.036663
6.730,74.9691,0.036663
6.762,74.9212,0.036663
6.791,74.8774,0.036663
6.823,74.8297,0.036663
6.853,74.7850,0.036663
6.884,74.7374,0.036663
6.915,74.6911,0.036663
6.944,74.6492,0.020750
6.977,74.5990,0.020750
7.008,74.5530,0.020750
7.039,74.5047,0.020750
7.071,74.4586,0.020750
7.102,74.4116,0.020750
7.133,74.3656,0.020750
7.164,74.3188,0.007566
7.195,74.2712,0.007566
7.226,74.2254,0.007566
7.257,74.1777,0.007566
7.288,74.1328,0.007566
7.319,74.0856,0.007566
7.351,74.0388,0.007566
7.381,73.9915,0.007566
7.412,73.9457,0.007086
7.442,73.9010,0.007086
7.473,73.8548,0.007086
7.502,73.8124,0.007086
7.536,73.7626,0.007086
7.568,73.7162,0.007086
7.597,73.6733,0.007086
7.628,73.6306,0.007086
7.660,73.5872,0.006879
7.690,73.5459,0.006879
7.721,73.5046,0.006879
7.752,73.4632,0.006879
7.783,73.4244,0.006879
7.814,73.3844,0.006879
7.845,73.3468,0.006879
7.877,73.3089,0.006879
7.908,73.2726,0.006879
7.939,73.2353,0.006785
7.971,73.1996,0.006785
8.001,73.1648,0.006785
8.033,73.1300,0.006785
8.065,73.0966,0.006785
8.096,73.0647,0.006785
8.127,73.0326,0.006785
8.159,73.0012,0.006738
8.189,72.9715,0.006738
8.220,72.9426,0.006738
8.250,72.9138,0.006738
8.281,72.8855,0.006738
8.313,72.8581,0.006738
8.345,72.8312,0.006738
8.376,72.8045,0.006738
8.406,72.7805,0.006700
8.437,72.7554,0.006700
8.468,72.7321,0.006700
8.499,72.7096,0.006700
8.530,72.6872,0.006700
8.561,72.6658,0.006700
8.592,72.6452,0.006700
8.623,72.6251,0.006700
8.654,72.6057,0.006653
8.685,72.5876,0.006653
8.715,72.5701,0.006653
8.746,72.5526,0.006653
8.777,72.5362,0.006653
8.808,72.5206,0.006653
8.839,72.5058,0.006653
8.870,72.4913,0.006653
8.901,72.4782,0.006587
8.932,72.4652,0.006587
8.963,72.4531,0.006587
8.994,72.4417,0.006587
9.024,72.4315,0.006587
9.056,72.4214,0.006587
9.087,72.4124,0.006587
9.118,72.4039,0.006587
9.149,72.3963,0.006531
9.179,72.3894,0.006531
9.210,72.3833,0.006531
9.241,72.3776,0.006531
9.273,72.3728,0.006531
9.304,72.3687,0.006531
9.334,72.3654,0.006531
9.366,72.3627,0.006531
9.399,72.3609,0.006531
9.426,72.3599,0.006531
9.457,72.3594,0.006456
9.488,72.3594,0.006456
9.522,72.3594,0.006456
9.549,72.3594,0.006456
9.581,72.3594,0.006456
9.612,72.3594,0.006456
9.644,72.3594,0.006456
9.674,72.3594,0.006446
9.707,72.3594,0.006446
9.738,72.3594,0.006446
9.770,72.3594,0.006446
9.800,72.3594,0.006446
9.830,72.3594,0.006446
9.861,72.3594,0.006446
9.893,72.3594,0.006446
9.923,72.3594,0.006465
9.958,72.3594,0.006465
9.985,72.3594,0.006465
10.016,72.3594,0.006465
10.046,72.3594,0.006465
10.076,72.3597,0.006465
10.107,72.3607,0.006465
10.139,72.3626,0.006465
10.169,72.3651,0.006465
10.200,72.3684,0.006465
10.229,72.3721,0.006465
10.261,72.3770,0.006465
10.291,72.3822,0.006465
10.322,72.3883,0.006465
10.354,72.3953,0.006465
10.385,72.4030,0.006465
10.417,72.4115,0.006390
10.448,72.4204,0.006390
10.479,72.4304,0.006390
10.510,72.4411,0.006390
10.541,72.4521,0.006390
10.571,72.4638,0.006390
10.603,72.4767,0.006390
10.633,72.4898,0.006390
10.665,72.5042,0.006390
10.695,72.5184,0.006239
10.726,72.5344,0.006239
10.756,72.5500,0.006239
10.787,72.5674,0.006239
10.818,72.5850,0.006239
10.848,72.6029,0.006239
10.879,72.6227,0.006239
10.911,72.6424,0.006145
10.942,72.6632,0.006145
10.972,72.6839,0.006145
11.003,72.7061,0.006145
11.034,72.7292,0.006145
11.065,72.7525,0.006145
11.095,72.7758,0.006145
11.126,72.8009,0.006145
11.158,72.8272,0.006060
11.189,72.8542,0.006060
11.220,72.8810,0.006060
11.250,72.9087,0.006060
11.281,72.9369,0.006060
11.311,72.9652,0.006060
11.344,72.9976,0.006060
11.375,73.0272,0.006060
11.406,73.0599,0.005900
11.437,73.0916,0.005900
11.468,73.1250,0.005900
11.499,73.1586,0.005900
11.530,73.1933,0.005900
11.561,73.2285,0.005900
11.593,73.2647,0.005900
11.623,73.3011,0.005900
11.654,73.3384,0.005900
11.685,73.3762,0.005693
11.715,73.4139,0.005693
11.746,73.4533,0.005693
11.778,73.4948,0.005693
11.809,73.5359,0.005693
11.840,73.5773,0.005693
11.871,73.6199,0.005693
11.902,73.6627,0.005693
11.932,73.7053,0.005533
11.964,73.7508,0.005533
11.995,73.7965,0.005533
12.026,73.8439,0.005533
12.056,73.8891,0.005533
12.088,73.9360,0.005533
12.120,73.9833,0.005533
12.151,74.0310,0.005289
12.182,74.0785,0.005289
12.213,74.1237,0.005289
12.244,74.1705,0.005289
12.275,74.2167,0.005289
12.306,74.2644,0.005289
12.337,74.3099,0.005289
12.369,74.3576,0.005289
12.400,74.4040,0.005044
12.431,74.4505,0.005044
12.461,74.4960,0.005044
12.492,74.5424,0.005044
12.523,74.5891,0.005044
12.555,74.6364,0.005044
12.585,74.6822,0.005044
12.616,74.7273,0.005044
12.646,74.7732,0.004856
12.676,74.8190,0.004856
12.707,74.8646,0.004856
12.738,74.9109,0.004856
12.769,74.9579,0.004856
12.801,75.0055,0.004856
12.831,75.0508,0.004856
12.863,75.0989,0.004856
12.894,75.1444,0.004573
12.924,75.1913,0.004573
12.955,75.2368,0.004573
12.986,75.2833,0.004573
13.016,75.3291,0.004573
13.048,75.3761,0.004573
13.080,75.4246,0.004573
13.109,75.4685,0.004573
13.141,75.5149,0.004141
13.171,75.5615,0.004141
13.203,75.6094,0.004141
13.234,75.6557,0.004141
13.265,75.7012,0.004141
13.296,75.7489,0.004141
13.327,75.7958,0.004141
13.358,75.8418,0.004141
13.390,75.8901,0.004141
13.420,75.9338,0.003407
13.452,75.9809,0.003407
13.483,76.0245,0.003407
13.516,76.0726,0.003407
13.545,76.1114,0.003407
13.576,76.1545,0.003407
13.606,76.1937,0.003407
13.638,76.2363,0.003407
13.670,76.2764,0.002193
13.700,76.3150,0.002193
13.731,76.3534,0.002193
13.766,76.3962,0.002193
13.793,76.4297,0.002193
13.824,76.4653,0.002193
13.854,76.4996,0.002193
13.885,76.5350,0.002193
13.917,76.5696,0.002193
13.948,76.6033,-0.000235
13.977,76.6347,-0.000235
14.009,76.6679,-0.000235
14.040,76.6992,-0.000235
14.073,76.7316,-0.000235
14.103,76.7606,-0.000235
14.134,76.7894,-0.000235
14.166,76.8189,-0.005317
14.201,76.8504,-0.005317
14.228,76.8737,-0.005317
14.259,76.8999,-0.005317
14.288,76.9236,-0.005317
14.322,76.9513,-0.005317
14.350,76.9722,-0.005317
14.381,76.9959,-0.005317
14.412,77.0188,-0.014370
14.443,77.0403,-0.014370
14.473,77.0610,-0.014370
14.504,77.0812,-0.014370
14.535,77.1013,-0.014370
14.566,77.1199,-0.014370
14.596,77.1377,-0.014370
14.627,77.1557,-0.014370
14.658,77.1727,-0.026735
14.689,77.1883,-0.026735
14.720,77.2038,-0.026735
14.753,77.2192,-0.026735
14.783,77.2327,-0.026735
14.813,77.2460,-0.026735
14.844,77.2580,-0.026735
14.875,77.2698,-0.026735
14.905,77.2807,-0.039307
14.936,77.2912,-0.039307
14.966,77.3003,-0.039307
14.998,77.3094,-0.039307
15.028,77.3173,-0.039307
15.060,77.3250,-0.039307
15.091,77.3317,-0.039307
15.123,77.3378,-0.039307
15.157,77.3437,-0.048671
15.184,77.3475,-0.048671
15.215,77.3513,-0.048671
15.247,77.3544,-0.048671
15.281,77.3570,-0.048671
15.310,77.3584,-0.048671
15.341,77.3592,-0.048671
15.372,77.3594,-0.048671
15.407,77.3594,-0.052228
15.434,77.3594,-0.052228
15.466,77.3594,-0.052228
15.496,77.3594,-0.052228
15.528,77.3594,-0.052228
15.559,77.3594,-0.052228
15.589,77.3594,-0.052228
15.621,77.3594,-0.052228
15.652,77.3594,-0.052228
15.684,77.3594,-0.050110
15.715,77.3594,-0.050110
15.746,77.3594,-0.050110
15.779,77.3594,-0.050110
15.809,77.3594,-0.050110
15.840,77.3594,-0.050110
15.871,77.3594,-0.050110
15.903,77.3594,-0.050110
15.932,77.3594,-0.046553
15.963,77.3594,-0.046553
15.994,77.3594,-0.046553
16.025,77.3594,-0.046553
16.056,77.3594,-0.046553
16.087,77.3594,-0.046553
16.118,77.3594,-0.046553
16.149,77.3594,-0.046553
16.180,77.3594,-0.044097
16.211,77.3594,-0.044097
16.242,77.3594,-0.044097
16.273,77.3594,-0.044097
16.303,77.3594,-0.044097
16.334,77.3594,-0.044097
16.364,77.3594,-0.044097
16.395,77.3594,-0.044097
16.427,77.3594,-0.042196
16.458,77.3594,-0.042196
16.489,77.3594,-0.042196
16.520,77.3594,-0.042196
16.551,77.3594,-0.042196
16.581,77.3594,-0.042196
16.611,77.3594,-0.042196
16.643,77.3594,-0.042196
16.674,77.3594,-0.040700
16.705,77.3594,-0.040700
16.736,77.3594,-0.040700
16.767,77.3594,-0.040700
16.799,77.3594,-0.040700
16.830,77.3594,-0.040700
16.862,77.3594,-0.040700
16.893,77.3594,-0.039542
16.924,77.3594,-0.039542
16.955,77.3594,-0.039542
16.986,77.3594,-0.039542
17.018,77.3594,-0.039542
17.049,77.3594,-0.039542
17.079,77.3594,-0.039542
17.110,77.3594,-0.039542
17.141,77.3594,-0.038564
17.172,77.3594,-0.038564
17.207,77.3594,-0.038564
17.234,77.3594,-0.038564
17.266,77.3594,-0.038564
17.296,77.3594,-0.038564
17.327,77.3594,-0.038564
17.358,77.3594,-0.038564
17.390,77.3594,-0.037613
17.421,77.3594,-0.037613
17.453,77.3594,-0.037613
17.486,77.3594,-0.037613
17.515,77.3594,-0.037613
17.546,77.3594,-0.037613
17.577,77.3594,-0.037613
17.611,77.3594,-0.037613
17.638,77.3594,-0.037613
17.669,77.3594,-0.036785
17.700,77.3594,-0.036785
17.731,77.3594,-0.036785
17.762,77.3594,-0.036785
17.793,77.3594,-0.036785
17.824,77.3594,-0.036785
17.855,77.3594,-0.036785
17.887,77.3594,-0.036785
17.918,77.3594,-0.036108
17.949,77.3594,-0.036108
17.979,77.3594,-0.036108
18.010,77.3594,-0.036108
18.046,77.3594,-0.036108
18.073,77.3594,-0.036108
18.104,77.3594,-0.036108
18.135,77.3594,-0.035524
18.166,77.3594,-0.035524
18.197,77.3594,-0.035524
18.229,77.3594,-0.035524
18.260,77.3594,-0.035524
18.290,77.3594,-0.035524
18.320,77.3594,-0.035524
18.351,77.3594,-0.035524
18.382,77.3594,-0.035524
18.413,77.3594,-0.035524
18.444,77.3594,-0.035007
18.475,77.3594,-0.035007
18.505,77.3594,-0.035007
18.536,77.3594,-0.035007
18.568,77.3594,-0.035007
18.598,77.3594,-0.035007
18.630,77.3594,-0.035007
18.661,77.3594,-0.035007
18.692,77.3594,-0.034489
18.722,77.3594,-0.034489
18.753,77.3594,-0.034489
18.784,77.3594,-0.034489
18.814,77.3594,-0.034489
18.846,77.3594,-0.034489
18.877,77.3594,-0.034489
18.909,77.3594,-0.034489
18.939,77.3594,-0.033990
18.971,77.3594,-0.033990
19.001,77.3594,-0.033990
19.031,77.3594,-0.033990
19.062,77.3594,-0.033990
19.099,77.3594,-0.033990
19.125,77.3594,-0.033990
19.156,77.3594,-0.033990
19.187,77.3594,-0.033539
19.223,77.3594,-0.033539
19.265,77.3594,-0.033539
19.295,77.3594,-0.033539
19.326,77.3594,-0.033539
19.358,77.3594,-0.033539
19.389,77.3594,-0.033539
19.421,77.3594,-0.033078
19.451,77.3594,-0.033078
19.481,77.3594,-0.033078
19.512,77.3594,-0.033078
19.544,77.3594,-0.033078
19.575,77.3594,-0.033078
19.605,77.3589,-0.033078
19.636,77.3576,-0.033078
19.667,77.3557,-0.032654
19.699,77.3529,-0.032654
19.730,77.3496,-0.032654
19.761,77.3455,-0.032654
19.792,77.3405,-0.032654
19.823,77.3348,-0.032654
19.854,77.3285,-0.032654
19.885,77.3213,-0.032654
19.916,77.3137,-0.030697
19.946,77.3053,-0.030697
19.977,77.2962,-0.030697
20.010,77.2856,-0.030697
20.040,77.2754,-0.030697
20.071,77.2637,-0.030697
20.101,77.2522,-0.030697
20.134,77.2381,-0.030697
20.163,77.2254,-0.022368
20.194,77.2115,-0.022368
20.225,77.1963,-0.022368
20.256,77.1803,-0.022368
20.286,77.1642,-0.022368
20.317,77.1472,-0.022368
20.348,77.1289,-0.022368
20.380,77.1101,-0.022368
20.410,77.0911,-0.022368
20.441,77.0710,-0.008234
20.472,77.0506,-0.008234
20.503,77.0286,-0.008234
20.535,77.0060,-0.008234
20.566,76.9827,-0.008234
20.598,76.9587,-0.008234
20.628,76.9347,-0.008234
20.659,76.9092,0.005900
20.693,76.8801,0.005900
20.720,76.8571,0.005900
20.751,76.8297,0.005900
20.782,76.8020,0.005900
20.813,76.7730,0.005900
20.845,76.7431,0.005900
20.876,76.7123,0.005900
20.906,76.6816,0.016468
20.937,76.6505,0.016468
20.968,76.6185,0.016468
20.999,76.5848,0.016468
21.031,76.5504,0.016468
21.061,76.5159,0.016468
21.092,76.4809,0.016468
21.125,76.4433,0.016468
21.154,76.4075,0.022745
21.186,76.3694,0.022745
21.217,76.3306,0.022745
21.249,76.2900,0.022745
21.280,76.2506,0.022745
21.311,76.2102,0.022745
21.341,76.1705,0.022745
21.372,76.1273,0.022745
21.404,76.0840,0.027986
21.436,76.0393,0.027986
21.468,75.9941,0.027986
21.500,75.9462,0.027986
21.530,75.9033,0.027986
21.561,75.8576,0.027986
21.591,75.8116,0.027986
21.622,75.7650,0.027986
21.653,75.7183,0.034423
21.683,75.6738,0.034423
21.714,75.6259,0.034423
21.747,75.5780,0.034423
21.778,75.5309,0.034423
21.811,75.4822,0.034423
21.840,75.4379,0.034423
21.871,75.3926,0.034423
21.902,75.3451,0.039232
21.934,75.2979,0.039232
21.964,75.2510,0.039232
21.995,75.2058,0.039232
22.026,75.1601,0.039232
22.057,75.1122,0.039232
22.089,75.0648,0.039232
22.121,75.0166,0.039232
22.151,74.9717,0.039232
22.181,74.9262,0.034113
22.213,74.8784,0.034113
22.244,74.8328,0.034113
22.275,74.7861,0.034113
22.307,74.7366,0.034113
22.336,74.6932,0.034113
22.369,74.6442,0.034113
22.398,74.6005,0.017701
22.429,74.5541,0.017701
22.460,74.5083,0.017701
22.492,74.4590,0.017701
22.522,74.4147,0.017701
22.552,74.3690,0.017701
22.584,74.3218,0.017701
22.609,74.2847,0.017701
22.647,74.2275,0.007528
22.679,74.1790,0.007528
22.708,74.1370,0.007528
22.739,74.0906,0.007528
22.770,74.0437,0.007528
22.801,73.9960,0.007528
22.832,73.9505,0.007528
22.862,73.9045,0.007528
22.894,73.8568,0.007528
22.925,73.8103,0.007077
22.956,73.7636,0.007077
22.989,73.7144,0.007077
23.018,73.6736,0.007077
23.049,73.6296,0.007077
23.080,73.5850,0.007077
23.111,73.5438,0.007077
23.142,73.5008,0.007077
23.173,73.4604,0.006841
23.204,73.4191,0.006841
23.235,73.3800,0.006841
23.266,73.3398,0.006841
23.297,73.3024,0.006841
23.328,73.2647,0.006841
23.358,73.2282,0.006841
23.389,73.1933,0.006841
23.420,73.1567,0.006710
23.451,73.1226,0.006710
23.485,73.0847,0.006710
23.513,73.0558,0.006710
23.544,73.0230,0.006710
23.575,72.9910,0.006710
23.606,72.9595,0.006710
23.637,72.9289,0.006710
23.669,72.8990,0.006672
23.699,72.8700,0.006672
23.731,72.8413,0.006672
23.762,72.8140,0.006672
23.793,72.7870,0.006672
23.825,72.7606,0.006672
23.857,72.7349,0.006672
23.888,72.7100,0.006634
23.918,72.6864,0.006634
23.949,72.6641,0.006634
23.981,72.6410,0.006634
24.011,72.6202,0.006634
24.041,72.5990,0.006634
24.073,72.5790,0.006634
24.104,72.5593,0.006634
24.135,72.5408,0.006634
24.167,72.5225,0.006578
24.196,72.5061,0.006578
24.233,72.4865,0.006578
24.273,72.4662,0.006578
24.304,72.4518,0.006578
24.334,72.4380,0.006578
24.365,72.4244,0.006578
24.396,72.4122,0.006540
24.427,72.4002,0.006540
24.458,72.3890,0.006540
24.489,72.3786,0.006540
24.521,72.3688,0.006540
24.552,72.3600,0.006540
24.582,72.3517,0.006540
24.617,72.3434,0.006540
24.643,72.3377,0.006540
24.676,72.3315,0.006540
24.706,72.3261,0.006465
24.737,72.3215,0.006465
24.768,72.3178,0.006465
24.800,72.3146,0.006465
24.830,72.3122,0.006465
24.864,72.3105,0.006465
24.893,72.3096,0.006465
24.924,72.3094,0.006408
24.955,72.3094,0.006408
24.986,72.3094,0.006408
25.019,72.3094,0.006408
25.049,72.3094,0.006408
25.080,72.3094,0.006408
25.110,72.3094,0.006408
25.142,72.3094,0.006399
25.173,72.3094,0.006399
25.204,72.3094,0.006399
25.237,72.3094,0.006399
25.266,72.3094,0.006399
25.296,72.3094,0.006399
25.328,72.3094,0.006399
25.359,72.3094,0.006399
25.391,72.3094,0.006456
25.422,72.3094,0.006456
25.453,72.3094,0.006456
25.484,72.3095,0.006456
25.516,72.3103,0.006456
25.546,72.3119,0.006456
25.578,72.3141,0.006456
25.609,72.3170,0.006456
25.640,72.3208,0.006437
25.670,72.3250,0.006437
25.702,72.3303,0.006437
25.733,72.3362,0.006437
25.764,72.3429,0.006437
25.793,72.3497,0.006437
25.826,72.3584,0.006437
25.857,72.3673,0.006437
25.889,72.3767,0.006296
25.920,72.3869,0.006296
25.951,72.3981,0.006296
25.982,72.4097,0.006296
26.014,72.4227,0.006296
26.044,72.4356,0.006296
26.075,72.4495,0.006296
26.106,72.4639,0.006296
26.140,72.4808,0.006296
26.168,72.4958,0.006173
26.199,72.5124,0.006173
26.231,72.5305,0.006173
26.262,72.5489,0.006173
26.293,72.5676,0.006173
26.324,72.5872,0.006173
26.355,72.6080,0.006173
26.386,72.6287,0.006173
26.416,72.6509,0.006107
26.447,72.6728,0.006107
26.477,72.6965,0.006107
26.509,72.7209,0.006107
26.543,72.7486,0.006107
26.571,72.7706,0.006107
26.602,72.7969,0.006107
26.633,72.8246,0.005976
26.664,72.8522,0.005976
26.695,72.8805,0.005976
26.726,72.9098,0.005976
26.757,72.9398,0.005976
26.787,72.9691,0.005976
26.819,73.0014,0.005976
26.851,73.0341,0.005976
26.881,73.0669,0.005976
26.913,73.1014,0.005976
26.942,73.1335,0.005844
26.973,73.1684,0.005844
27.004,73.2041,0.005844
27.035,73.2403,0.005844
27.066,73.2775,0.005844
27.097,73.3166,0.005844
27.127,73.3532,0.005844
27.159,73.3930,0.005844
27.189,73.4325,0.005665
27.225,73.4797,0.005665
27.252,73.5158,0.005665
27.283,73.5579,0.005665
27.314,73.6007,0.005665
27.344,73.6442,0.005665
27.375,73.6879,0.005665
27.407,73.7340,0.005665
27.439,73.7804,0.005420
27.470,73.8284,0.005420
27.501,73.8742,0.005420
27.532,73.9203,0.005420
27.563,73.9689,0.005420
27.594,74.0140,0.005420
27.626,74.0611,0.005420
27.657,74.1080,0.005420
27.688,74.1551,0.005232
27.720,74.2031,0.005232
27.750,74.2480,0.005232
27.781,74.2949,0.005232
27.812,74.3400,0.005232
27.843,74.3878,0.005232
27.874,74.4345,0.005232
27.906,74.4817,0.005025
27.936,74.5269,0.005025
27.966,74.5731,0.005025
27.997,74.6185,0.005025
28.030,74.6678,0.005025
28.060,74.7131,0.005025
28.092,74.7612,0.005025
28.123,74.8067,0.005025
28.154,74.8542,0.005025
28.185,74.9014,0.004715
28.216,74.9466,0.004715
28.247,74.9930,0.004715
28.278,75.0401,0.004715
28.309,75.0875,0.004715
28.338,75.1303,0.004715
28.372,75.1811,0.004715
28.401,75.2259,0.004715
28.432,75.2706,0.004715
28.463,75.3178,0.004357
28.494,75.3640,0.004357
28.525,75.4111,0.004357
28.556,75.4569,0.004357
28.588,75.5052,0.004357
28.618,75.5507,0.004357
28.651,75.5989,0.004357
28.680,75.6444,0.003934
28.713,75.6932,0.003934
28.743,75.7384,0.003934
28.775,75.7855,0.003934
28.805,75.8297,0.003934
28.836,75.8767,0.003934
28.867,75.9217,0.003934
28.898,75.9663,0.003934
28.929,76.0111,0.003115
28.960,76.0532,0.003115
28.990,76.0942,0.003115
29.021,76.1360,0.003115
29.052,76.1772,0.003115
29.083,76.2166,0.003115
29.113,76.2554,0.003115
29.144,76.2948,0.003115
29.174,76.3317,0.001515
29.204,76.3687,0.001515
29.236,76.4050,0.001515
29.267,76.4416,0.001515
29.299,76.4779,0.001515
29.330,76.5122,0.001515
29.362,76.5464,0.001515
29.392,76.5788,0.001515
29.423,76.6104,0.001515
29.454,76.6419,-0.001713
29.485,76.6735,-0.001713
29.518,76.7047,-0.001713
29.548,76.7331,-0.001713
29.579,76.7615,-0.001713
29.609,76.7885,-0.001713
29.639,76.8154,-0.001713
29.671,76.8426,-0.008018
29.703,76.8692,-0.008018
29.734,76.8939,-0.008018
29.765,76.9186,-0.008018
29.797,76.9422,-0.008018
29.828,76.9650,-0.008018
29.859,76.9869,-0.008018
29.890,77.0080,-0.008018
29.920,77.0288,-0.018369
29.953,77.0492,-0.018369
29.984,77.0685,-0.018369
30.015,77.0869,-0.018369
30.047,77.1049,-0.018369
30.078,77.1224,-0.018369
30.109,77.1380,-0.018369
30.141,77.1539,-0.018369
30.172,77.1686,-0.031355
30.204,77.1829,-0.031355
30.234,77.1959,-0.031355
30.266,77.2087,-0.031355
30.296,77.2201,-0.031355
30.331,77.2326,-0.031355
30.357,77.2411,-0.031355
30.389,77.2512,-0.031355
30.421,77.2602,-0.043382
30.453,77.2688,-0.043382
30.484,77.2758,-0.043382
30.516,77.2825,-0.043382
30.546,77.2883,-0.043382
30.578,77.2938,-0.043382
30.608,77.2980,-0.043382
30.639,77.3017,-0.043382
30.670,77.3047,-0.051164
30.701,77.3069,-0.051164
30.733,77.3085,-0.051164
30.764,77.3093,-0.051164
30.795,77.3094,-0.051164
30.825,77.3094,-0.051164
30.856,77.3094,-0.051164
30.887,77.3094,-0.051164
30.919,77.3094,-0.052661
30.951,77.3094,-0.052661
30.982,77.3094,-0.052661
31.013,77.3094,-0.052661
31.044,77.3094,-0.052661
31.074,77.3094,-0.052661
31.106,77.3094,-0.052661
31.137,77.3094,-0.052661
31.167,77.3094,-0.049583
31.198,77.3094,-0.049583
31.228,77.3094,-0.049583
31.259,77.3094,-0.049583
31.290,77.3094,-0.049583
31.320,77.3094,-0.049583
31.352,77.3094,-0.049583
31.384,77.3094,-0.046233
31.415,77.3094,-0.046233
31.446,77.3094,-0.046233
31.478,77.3094,-0.046233
31.509,77.3094,-0.046233
31.540,77.3094,-0.046233
31.570,77.3094,-0.046233
31.602,77.3094,-0.046233
31.634,77.3094,-0.046233
31.665,77.3094,-0.043975
31.696,77.3094,-0.043975
31.728,77.3094,-0.043975
31.759,77.3094,-0.043975
31.789,77.3094,-0.043975
31.821,77.3094,-0.043975
31.852,77.3094,-0.043975
31.883,77.3094,-0.043975
31.915,77.3094,-0.042271
31.946,77.3094,-0.042271
31.978,77.3094,-0.042271
32.008,77.3094,-0.042271
32.041,77.3094,-0.042271
32.070,77.3094,-0.042271
32.102,77.3094,-0.042271
32.132,77.3094,-0.040879
32.164,77.3094,-0.040879
32.194,77.3094,-0.040879
32.225,77.3094,-0.040879
32.257,77.3094,-0.040879
32.288,77.3094,-0.040879
32.319,77.3094,-0.040879
32.351,77.3094,-0.040879
32.382,77.3094,-0.040879
32.413,77.3094,-0.040879
32.444,77.3094,-0.039702
32.475,77.3094,-0.039702
32.506,77.3094,-0.039702
32.537,77.3094,-0.039702
32.568,77.3094,-0.039702
32.600,77.3094,-0.039702
32.631,77.3094,-0.039702
32.662,77.3094,-0.039702
32.693,77.3094,-0.038761
32.723,77.3094,-0.038761
32.755,77.3094,-0.038761
32.786,77.3094,-0.038761
32.817,77.3094,-0.038761
32.848,77.3094,-0.038761
32.879,77.3094,-0.038761
32.910,77.3094,-0.038761
32.941,77.3094,-0.037905
32.972,77.3094,-0.037905
33.003,77.3094,-0.037905
33.035,77.3094,-0.037905
33.065,77.3094,-0.037905
33.097,77.3094,-0.037905
33.127,77.3094,-0.037905
33.158,77.3094,-0.037905
33.189,77.3094,-0.037115
33.220,77.3094,-0.037115
33.252,77.3094,-0.037115
33.282,77.3094,-0.037115
33.312,77.3094,-0.037115
33.342,77.3094,-0.037115
33.373,77.3094,-0.037115
33.405,77.3094,-0.037115
33.435,77.3094,-0.036456
33.470,77.3094,-0.036456
33.498,77.3094,-0.036456
33.529,77.3094,-0.036456
33.560,77.3094,-0.036456
33.592,77.3094,-0.036456
33.622,77.3094,-0.036456
33.653,77.3094,-0.036456
33.684,77.3094,-0.035844
33.715,77.3094,-0.035844
33.746,77.3094,-0.035844
33.776,77.3094,-0.035844
33.807,77.3094,-0.035844
33.839,77.3094,-0.035844
33.872,77.3094,-0.035844
33.901,77.3094,-0.035844
33.931,77.3094,-0.035270
33.962,77.3094,-0.035270
33.994,77.3094,-0.035270
34.024,77.3094,-0.035270
34.056,77.3094,-0.035270
34.086,77.3094,-0.035270
34.120,77.3094,-0.035270
34.148,77.3094,-0.034734
34.179,77.3094,-0.034734
34.211,77.3094,-0.034734
34.246,77.3094,-0.034734
34.272,77.3094,-0.034734
34.303,77.3094,-0.034734
34.334,77.3094,-0.034734
34.365,77.3094,-0.034734
34.402,77.3094,-0.034734
34.442,77.3094,-0.034282
34.474,77.3094,-0.034282
34.504,77.3094,-0.034282
34.536,77.3094,-0.034282
34.568,77.3094,-0.034282
34.598,77.3094,-0.034282
34.629,77.3094,-0.034282
34.660,77.3094,-0.033840
34.691,77.3094,-0.033840
34.721,77.3094,-0.033840
34.754,77.3094,-0.033840
34.785,77.3094,-0.033840
34.816,77.3094,-0.033840
34.847,77.3094,-0.033840
34.879,77.3094,-0.033840
34.910,77.3094,-0.033840
34.940,77.3094,-0.033360
34.971,77.3094,-0.033360
35.003,77.3094,-0.033360
35.033,77.3088,-0.033360
35.064,77.3074,-0.033360
35.094,77.3054,-0.033360
35.125,77.3027,-0.033360
35.156,77.2991,-0.032946
35.188,77.2949,-0.032946
35.218,77.2900,-0.032946
35.248,77.2847,-0.032946
35.279,77.2783,-0.032946
35.310,77.2709,-0.032946
35.340,77.2636,-0.032946
35.371,77.2548,-0.032946
35.403,77.2455,-0.032946
35.434,77.2352,-0.029257
35.465,77.2247,-0.029257
35.496,77.2134,-0.029257
35.527,77.2011,-0.029257
35.559,77.1878,-0.029257
35.590,77.1740,-0.029257
35.622,77.1592,-0.029257
35.652,77.1441,-0.018595
35.684,77.1284,-0.018595
35.714,77.1117,-0.018595
35.745,77.0947,-0.018595
35.776,77.0768,-0.018595
35.806,77.0584,-0.018595
35.838,77.0388,-0.018595
35.868,77.0188,-0.018595
35.899,76.9981,-0.018595
35.930,76.9756,-0.003971
35.962,76.9536,-0.003971
35.993,76.9302,-0.003971
36.024,76.9062,-0.003971
36.055,76.8811,-0.003971
36.087,76.8556,-0.003971
36.118,76.8290,-0.003971
36.149,76.8026,0.009354
36.183,76.7729,0.009354
36.212,76.7455,0.009354
36.243,76.7168,0.009354
36.274,76.6873,0.009354
36.305,76.6572,0.009354
36.335,76.6268,0.009354
36.365,76.5956,0.009354
36.399,76.5598,0.009354
36.427,76.5299,0.018378
36.458,76.4958,0.018378
36.489,76.4612,0.018378
36.521,76.4251,0.018378
36.551,76.3895,0.018378
36.582,76.3516,0.018378
36.614,76.3142,0.018378
36.644,76.2765,0.018378
36.674,76.2387,0.023620
36.706,76.1976,0.023620
36.736,76.1583,0.023620
36.767,76.1173,0.023620
36.799,76.0740,0.023620
36.829,76.0324,0.023620
36.861,75.9869,0.023620
36.892,75.9433,0.023620
36.923,75.8981,0.028918
36.954,75.8522,0.028918
36.985,75.8061,0.028918
37.016,75.7595,0.028918
37.048,75.7123,0.028918
37.079,75.6647,0.028918
37.110,75.6193,0.028918
37.140,75.5721,0.028918
37.171,75.5274,0.035195
37.201,75.4809,0.035195
37.232,75.4359,0.035195
37.263,75.3890,0.035195
37.294,75.3427,0.035195
37.324,75.2970,0.035195
37.355,75.2517,0.035195
37.386,75.2038,0.035195
37.417,75.1583,0.038780
37.448,75.1118,0.038780
37.479,75.0648,0.038780
37.510,75.0176,0.038780
37.541,74.9717,0.038780
37.572,74.9252,0.038780
37.603,74.8782,0.038780
37.634,74.8326,0.038780
37.665,74.7861,0.025107
37.697,74.7380,0.025107
37.727,74.6929,0.025107
37.758,74.6461,0.025107
37.790,74.5995,0.025107
37.820,74.5530,0.025107
37.852,74.5056,0.025107
37.884,74.4583,0.025107
37.914,74.4127,0.009137
37.946,74.3649,0.009137
37.977,74.3188,0.009137
38.008,74.2707,0.009137
38.039,74.2248,0.009137
38.070,74.1792,0.009137
38.101,74.1330,0.009137
38.130,74.0878,0.009137
38.161,74.0422,0.009137
38.191,73.9968,0.007218
38.223,73.9498,0.007218
38.254,73.9021,0.007218
38.285,73.8558,0.007218
38.317,73.8080,0.007218
38.348,73.7623,0.007218
38.377,73.7172,0.007218
38.408,73.6731,0.006973
38.439,73.6284,0.006973
38.469,73.5848,0.006973
38.499,73.5417,0.006973
38.531,73.4986,0.006973
38.562,73.4561,0.006973
38.592,73.4157,0.006973
38.624,73.3741,0.006973
38.655,73.3336,0.006785
38.686,73.2957,0.006785
38.716,73.2575,0.006785
38.747,73.2200,0.006785
38.778,73.1835,0.006785
38.809,73.1470,0.006785
38.839,73.1119,0.006785
38.871,73.0767,0.006785
38.901,73.0435,0.006672
38.933,73.0091,0.006672
38.964,72.9768,0.006672
38.995,72.9444,0.006672
39.026,72.9129,0.006672
39.057,72.8830,0.006672
39.087,72.8540,0.006672
39.118,72.8245,0.006672
39.150,72.7961,0.006625
39.180,72.7684,0.006625
39.211,72.7422,0.006625
39.242,72.7159,0.006625
39.273,72.6900,0.006625
39.305,72.6652,0.006625
39.336,72.6411,0.006625
39.368,72.6175,0.006625
39.398,72.5951,0.006578
39.431,72.5724,0.006578
39.461,72.5517,0.006578
39.492,72.5315,0.006578
39.522,72.5128,0.006578
39.554,72.4934,0.006578
39.584,72.4759,0.006578
39.615,72.4586,0.006578
39.646,72.4417,0.006512
39.678,72.4253,0.006512
39.709,72.4101,0.006512
39.740,72.3957,0.006512
39.771,72.3821,0.006512
39.803,72.3687,0.006512
39.830,72.3580,0.006512
39.865,72.3447,0.006512
39.897,72.3336,0.006512
39.928,72.3238,0.006512
39.961,72.3135,0.006512
39.989,72.3060,0.006512
40.020,72.2982,0.006512
40.051,72.2910,0.006512
40.082,72.2843,0.006512
40.113,72.2788,0.006512
40.144,72.2738,0.006512
40.175,72.2696,0.006484
40.206,72.2661,0.006484
40.237,72.2634,0.006484
40.269,72.2613,0.006484
40.299,72.2599,0.006484
40.330,72.2593,0.006484
40.362,72.2593,0.006484
40.392,72.2593,0.006484
40.423,72.2593,0.006427
40.456,72.2593,0.006427
40.487,72.2593,0.006427
40.518,72.2593,0.006427
40.548,72.2593,0.006427
40.579,72.2593,0.006427
40.610,72.2593,0.006427
40.642,72.2593,0.006427
40.672,72.2593,0.006427
40.702,72.2593,0.006427
40.734,72.2593,0.006427
40.764,72.2593,0.006427
40.795,72.2593,0.006427
40.827,72.2593,0.006427
40.858,72.2593,0.006427
40.889,72.2594,0.006427
40.920,72.2603,0.006446
40.951,72.2619,0.006446
40.983,72.2642,0.006446
41.014,72.2673,0.006446
41.045,72.2712,0.006446
41.077,72.2759,0.006446
41.108,72.2810,0.006446
41.139,72.2871,0.006446
41.170,72.2938,0.006286
41.201,72.3014,0.006286
41.232,72.3094,0.006286
41.263,72.3188,0.006286
41.294,72.3279,0.006286
41.325,72.3385,0.006286
41.357,72.3497,0.006286
41.387,72.3612,0.006201
41.420,72.3745,0.006201
41.449,72.3870,0.006201
41.480,72.4010,0.006201
41.512,72.4164,0.006201
41.544,72.4323,0.006201
41.575,72.4488,0.006201
41.606,72.4657,0.006201
41.637,72.4830,0.006201
41.669,72.5020,0.006201
41.699,72.5208,0.006201
41.730,72.5404,0.006201
41.761,72.5612,0.006201
41.792,72.5826,0.006201
41.823,72.6047,0.006201
41.855,72.6280,0.006201
41.885,72.6508,0.006041
41.916,72.6751,0.006041
41.947,72.6997,0.006041
41.978,72.7259,0.006041
42.010,72.7526,0.006041
42.040,72.7794,0.006041
42.071,72.8063,0.006041
42.101,72.8346,0.006041
42.132,72.8641,0.006041
42.163,72.8947,0.006041
42.194,72.9242,0.005900
42.224,72.9557,0.005900
42.255,72.9877,0.005900
42.285,73.0189,0.005900
42.316,73.0529,0.005900
42.347,73.0871,0.005900
42.377,73.1207,0.005900
42.408,73.1572,0.005900
42.439,73.1938,0.005759
42.475,73.2367,0.005759
42.501,73.2685,0.005759
42.533,73.3076,0.005759
42.565,73.3492,0.005759
42.595,73.3889,0.005759
42.626,73.4283,0.005759
42.656,73.4693,0.005580
42.687,73.5114,0.005580
42.718,73.5548,0.005580
42.750,73.5998,0.005580
42.780,73.6430,0.005580
42.812,73.6895,0.005580
42.842,73.7339,0.005580
42.873,73.7814,0.005580
42.905,73.8284,0.005580
42.935,73.8742,0.005345
42.966,73.9207,0.005345
42.997,73.9677,0.005345
43.028,74.0125,0.005345
43.059,74.0587,0.005345
43.090,74.1065,0.005345
43.122,74.1529,0.005345
43.151,74.1986,0.005345
43.183,74.2444,0.005157
43.213,74.2898,0.005157
43.244,74.3358,0.005157
43.274,74.3836,0.005157
43.305,74.4284,0.005157
43.336,74.4755,0.005157
43.367,74.5217,0.005157
43.398,74.5674,0.005157
43.429,74.6140,0.004950
43.461,74.6622,0.004950
43.492,74.7082,0.004950
43.523,74.7562,0.004950
43.555,74.8041,0.004950
43.586,74.8496,0.004950
43.617,74.8955,0.004950
43.648,74.9423,0.004950
43.678,74.9875,0.004668
43.710,75.0365,0.004668
43.740,75.0801,0.004668
43.771,75.1276,0.004668
43.801,75.1725,0.004668
43.832,75.2200,0.004668
43.864,75.2665,0.004668
43.895,75.3142,0.004668
43.926,75.3605,0.004310
43.957,75.4076,0.004310
43.987,75.4513,0.004310
44.018,75.4984,0.004310
44.049,75.5443,0.004310
44.080,75.5912,0.004310
44.112,75.6382,0.004310
44.140,75.6806,0.004310
44.173,75.7303,0.003689
44.205,75.7787,0.003689
44.235,75.8228,0.003689
44.266,75.8687,0.003689
44.297,75.9131,0.003689
44.327,75.9562,0.003689
44.358,76.0001,0.003689
44.389,76.0414,0.003689
44.420,76.0837,0.003689
44.451,76.1238,0.002607
44.483,76.1655,0.002607
44.513,76.2040,0.002607
44.544,76.2434,0.002607
44.575,76.2814,0.002607
44.606,76.3188,0.002607
44.637,76.3548,0.002607
44.668,76.3899,0.002607
44.699,76.4257,0.000555
44.730,76.4593,0.000555
44.761,76.4939,0.000555
44.791,76.5264,0.000555
44.823,76.5586,0.000555
44.853,76.5897,0.000555
44.884,76.6203,0.000555
44.914,76.6501,0.000555
44.945,76.6794,-0.003708
44.975,76.7071,-0.003708
45.006,76.7347,-0.003708
45.036,76.7620,-0.003708
45.067,76.7885,-0.003708
45.098,76.8135,-0.003708
45.130,76.8392,-0.003708
45.160,76.8633,-0.011716
45.188,76.8849,-0.011716
45.222,76.9095,-0.011716
45.254,76.9330,-0.011716
45.284,76.9532,-0.011716
45.315,76.9743,-0.011716
45.346,76.9941,-0.011716
45.377,77.0135,-0.011716
45.409,77.0327,-0.023517
45.440,77.0503,-0.023517
45.471,77.0677,-0.023517
45.503,77.0840,-0.023517
45.534,77.1002,-0.023517
45.565,77.1144,-0.023517
45.595,77.1287,-0.023517
45.627,77.1423,-0.023517
45.658,77.1547,-0.023517
45.689,77.1670,-0.036597
45.720,77.1783,-0.036597
45.752,77.1888,-0.036597
45.782,77.1986,-0.036597
45.814,77.2077,-0.036597
45.844,77.2158,-0.036597
45.875,77.2234,-0.036597
45.906,77.2303,-0.047231
45.938,77.2366,-0.047231
45.969,77.2419,-0.047231
46.000,77.2465,-0.047231
46.031,77.2506,-0.047231
46.063,77.2538,-0.047231
46.095,77.2563,-0.047231
46.126,77.2580,-0.047231
46.158,77.2590,-0.052679
46.189,77.2593,-0.052679
46.221,77.2593,-0.052679
46.251,77.2593,-0.052679
46.282,77.2593,-0.052679
46.313,77.2593,-0.052679
46.344,77.2593,-0.052679
46.375,77.2593,-0.052679
46.405,77.2593,-0.051927
46.437,77.2593,-0.051927
46.468,77.2593,-0.051927
46.499,77.2593,-0.051927
46.529,77.2593,-0.051927
46.560,77.2593,-0.051927
46.591,77.2593,-0.051927
46.622,77.2593,-0.051927
46.654,77.2593,-0.048285
46.685,77.2593,-0.048285
46.716,77.2593,-0.048285
46.747,77.2593,-0.048285
46.779,77.2593,-0.048285
46.810,77.2593,-0.048285
46.840,77.2593,-0.048285
46.872,77.2593,-0.048285
46.903,77.2593,-0.045443
46.933,77.2593,-0.045443
46.965,77.2593,-0.045443
46.996,77.2593,-0.045443
47.027,77.2593,-0.045443
47.059,77.2593,-0.045443
47.090,77.2593,-0.045443
47.123,77.2593,-0.045443
47.151,77.2593,-0.043438
47.187,77.2593,-0.043438
47.213,77.2593,-0.043438
47.244,77.2593,-0.043438
47.275,77.2593,-0.043438
47.306,77.2593,-0.043438
47.337,77.2593,-0.043438
47.368,77.2593,-0.043438
47.399,77.2593,-0.041839
47.431,77.2593,-0.041839
47.462,77.2593,-0.041839
47.492,77.2593,-0.041839
47.523,77.2593,-0.041839
47.555,77.2593,-0.041839
47.586,77.2593,-0.041839
47.617,77.2593,-0.041839
47.647,77.2593,-0.040568
47.678,77.2593,-0.040568
47.709,77.2593,-0.040568
47.744,77.2593,-0.040568
47.773,77.2593,-0.040568
47.804,77.2593,-0.040568
47.836,77.2593,-0.040568
47.867,77.2593,-0.040568
47.901,77.2593,-0.040568
47.930,77.2593,-0.040568
47.960,77.2593,-0.039467
47.992,77.2593,-0.039467
48.022,77.2593,-0.039467
48.053,77.2593,-0.039467
48.084,77.2593,-0.039467
48.116,77.2593,-0.039467
48.150,77.2593,-0.039467
48.178,77.2593,-0.039467
48.209,77.2593,-0.038498
48.239,77.2593,-0.038498
48.270,77.2593,-0.038498
48.301,77.2593,-0.038498
48.333,77.2593,-0.038498
48.364,77.2593,-0.038498
48.395,77.2593,-0.038498
48.425,77.2593,-0.037764
48.456,77.2593,-0.037764
48.487,77.2593,-0.037764
48.518,77.2593,-0.037764
48.549,77.2593,-0.037764
48.580,77.2593,-0.037764
48.611,77.2593,-0.037764
48.642,77.2593,-0.037764
48.673,77.2593,-0.037068
48.704,77.2593,-0.037068
48.735,77.2593,-0.037068
48.766,77.2593,-0.037068
48.797,77.2593,-0.037068
48.828,77.2593,-0.037068
48.860,77.2593,-0.037068
48.891,77.2593,-0.037068
48.922,77.2593,-0.036343
48.953,77.2593,-0.036343
48.983,77.2593,-0.036343
49.015,77.2593,-0.036343
49.045,77.2593,-0.036343
49.076,77.2593,-0.036343
49.107,77.2593,-0.036343
49.138,77.2593,-0.036343
49.168,77.2593,-0.035750
49.199,77.2593,-0.035750
49.230,77.2593,-0.035750
49.261,77.2593,-0.035750
49.293,77.2593,-0.035750
49.324,77.2593,-0.035750
49.355,77.2593,-0.035750
49.385,77.2593,-0.035214
49.416,77.2593,-0.035214
49.448,77.2593,-0.035214
49.479,77.2593,-0.035214
49.510,77.2593,-0.035214
49.541,77.2593,-0.035214
49.572,77.2593,-0.035214
49.604,77.2593,-0.035214
49.634,77.2593,-0.035214
49.665,77.2593,-0.035214
49.697,77.2593,-0.034753
49.730,77.2593,-0.034753
49.761,77.2593,-0.034753
49.791,77.2593,-0.034753
49.822,77.2593,-0.034753
49.858,77.2593,-0.034753
49.884,77.2593,-0.034753
49.914,77.2593,-0.034753
49.946,77.2593,-0.034282
49.977,77.2593,-0.034282
50.009,77.2593,-0.034282
50.040,77.2593,-0.034282
50.071,77.2593,-0.034282
50.102,77.2593,-0.034282
50.132,77.2593,-0.034282
50.163,77.2593,-0.033783
50.194,77.2593,-0.033783
50.225,77.2593,-0.033783
50.257,77.2593,-0.033783
50.288,77.2593,-0.033783
50.319,77.2593,-0.033783
50.350,77.2592,-0.033783
50.381,77.2585,-0.033783
50.412,77.2571,-0.033388
50.444,77.2548,-0.033388
50.475,77.2518,-0.033388
50.508,77.2480,-0.033388
50.537,77.2439,-0.033388
50.568,77.2388,-0.033388
50.600,77.2329,-0.033388
50.631,77.2263,-0.031685
50.661,77.2190,-0.031685
50.692,77.2110,-0.031685
50.723,77.2022,-0.031685
50.754,77.1927,-0.031685
50.785,77.1826,-0.031685
50.816,77.1717,-0.031685
50.847,77.1599,-0.031685
50.879,77.1474,-0.031685
50.910,77.1340,-0.023695
50.942,77.1199,-0.023695
50.974,77.1050,-0.023695
51.005,77.0894,-0.023695
51.033,77.0745,-0.023695
51.067,77.0566,-0.023695
51.098,77.0388,-0.023695
51.129,77.0207,-0.023695
51.160,77.0018,-0.009721
51.191,76.9818,-0.009721
51.222,76.9616,-0.009721
51.253,76.9407,-0.009721
51.284,76.9185,-0.009721
51.315,76.8960,-0.009721
51.348,76.8713,-0.009721
51.376,76.8489,-0.009721
51.407,76.8245,-0.009721
51.438,76.7992,0.004602
51.473,76.7685,0.004602
51.515,76.7324,0.004602
51.547,76.7035,0.004602
51.577,76.6755,0.004602
51.608,76.6461,0.004602
51.638,76.6165,0.004602
51.669,76.5855,0.004602
51.700,76.5541,0.015697
51.731,76.5218,0.015697
51.764,76.4864,0.015697
51.793,76.4551,0.015697
51.824,76.4206,0.015697
51.855,76.3848,0.015697
51.886,76.3487,0.015697
51.916,76.3129,0.015697
51.947,76.2758,0.022218
51.980,76.2361,0.022218
52.010,76.1976,0.022218
52.041,76.1572,0.022218
52.072,76.1170,0.022218
52.103,76.0760,0.022218
52.133,76.0360,0.022218
52.165,75.9915,0.027309
52.196,75.9490,0.027309
52.228,75.9030,0.027309
52.259,75.8588,0.027309
52.290,75.8129,0.027309
52.320,75.7675,0.027309
52.351,75.7215,0.027309
52.382,75.6735,0.027309
52.414,75.6278,0.027309
52.444,75.5810,0.033548
52.475,75.5351,0.033548
52.505,75.4895,0.033548
52.537,75.4425,0.033548
52.566,75.3986,0.033548
52.598,75.3522,0.033548
52.628,75.3060,0.033548
52.659,75.2595,0.033548
52.688,75.2159,0.038385
52.722,75.1650,0.038385
52.753,75.1190,0.038385
52.784,75.0711,0.038385
52.816,75.0251,0.038385
52.847,74.9779,0.038385
52.878,74.9309,0.038385
52.908,74.8866,0.038385
52.938,74.8413,0.034894
52.969,74.7949,0.034894
53.000,74.7481,0.034894
53.031,74.7011,0.034894
53.063,74.6539,0.034894
53.093,74.6080,0.034894
53.124,74.5615,0.034894
53.155,74.5158,0.018840
53.186,74.4689,0.018840
53.217,74.4219,0.018840
53.244,74.3821,0.018840
53.280,74.3289,0.018840
53.311,74.2820,0.018840
53.343,74.2340,0.018840
53.373,74.1883,0.018840
53.404,74.1429,0.007425
53.435,74.0950,0.007425
53.466,74.0492,0.007425
53.498,74.0014,0.007425
53.528,73.9548,0.007425
53.560,73.9084,0.007425
53.590,73.8620,0.007425
53.621,73.8164,0.007425
53.651,73.7709,0.007011
53.682,73.7249,0.007011
53.713,73.6776,0.007011
53.743,73.6338,0.007011
53.774,73.5878,0.007011
53.807,73.5419,0.007011
53.837,73.4998,0.007011
53.868,73.4565,0.007011
53.898,73.4154,0.006813
53.929,73.3729,0.006813
53.961,73.3330,0.006813
53.991,73.2928,0.006813
54.023,73.2533,0.006813
54.054,73.2146,0.006813
54.084,73.1771,0.006813
54.116,73.1395,0.006813
54.147,73.1025,0.006681
54.178,73.0662,0.006681
54.209,73.0319,0.006681
54.239,72.9981,0.006681
54.270,72.9650,0.006681
54.302,72.9312,0.006681
54.332,72.9004,0.006681
54.363,72.8690,0.006681
54.393,72.8387,0.006597
54.424,72.8093,0.006597
54.455,72.7804,0.006597
54.485,72.7521,0.006597
54.517,72.7245,0.006597
54.548,72.6965,0.006597
54.579,72.6707,0.006597
54.610,72.6451,0.006597
54.641,72.6206,0.006559
54.672,72.5961,0.006559
54.703,72.5729,0.006559
54.735,72.5496,0.006559
54.766,72.5278,0.006559
54.796,72.5072,0.006559
54.827,72.4867,0.006559
54.855,72.4688,0.006559
54.889,72.4479,0.006559
54.919,72.4302,0.006559
54.951,72.4121,0.006559
54.983,72.3952,0.006559
55.014,72.3788,0.006559
55.044,72.3635,0.006559
55.076,72.3492,0.006559
55.106,72.3353,0.006559
55.138,72.3220,0.006559
55.168,72.3098,0.006512
55.200,72.2979,0.006512
55.230,72.2871,0.006512
55.261,72.2768,0.006512
55.292,72.2671,0.006512
55.324,72.2583,0.006512
55.354,72.2502,0.006512
55.380,72.2440,0.006512
55.415,72.2365,0.006512
55.447,72.2305,0.006512
55.477,72.2254,0.006456
55.508,72.2208,0.006456
55.539,72.2172,0.006456
55.569,72.2143,0.006456
55.601,72.2119,0.006456
55.631,72.2104,0.006456
55.661,72.2095,0.006408
55.697,72.2093,0.006408
55.724,72.2093,0.006408
55.754,72.2093,0.006408
55.786,72.2093,0.006408
55.817,72.2098,0.006408
55.848,72.2109,0.006408
55.879,72.2129,0.006408
55.910,72.2156,0.006408
55.940,72.2190,0.006390
55.972,72.2231,0.006390
56.003,72.2280,0.006390
56.034,72.2335,0.006390
56.065,72.2399,0.006390
56.096,72.2469,0.006390
56.127,72.2548,0.006390
56.158,72.2631,0.006314
56.189,72.2722,0.006314
56.220,72.2821,0.006314
56.250,72.2928,0.006314
56.282,72.3043,0.006314
56.313,72.3166,0.006314
56.344,72.3292,0.006314
56.376,72.3434,0.006314
56.406,72.3576,0.006192
56.438,72.3724,0.006192
56.468,72.3883,0.006192
56.500,72.4046,0.006192
56.530,72.4217,0.006192
56.562,72.4401,0.006192
56.593,72.4588,0.006192
56.625,72.4790,0.006192
56.655,72.4984,0.006089
56.686,72.5192,0.006089
56.718,72.5412,0.006089
56.748,72.5634,0.006089
56.780,72.5868,0.006089
56.811,72.6111,0.006089
56.842,72.6349,0.006089
56.874,72.6616,0.006089
56.904,72.6865,0.006013
56.934,72.7126,0.006013
56.966,72.7410,0.006013
56.998,72.7696,0.006013
57.028,72.7983,0.006013
57.059,72.8276,0.006013
57.090,72.8586,0.006013
57.121,72.8886,0.006013
57.157,72.9260,0.005844
57.198,72.9689,0.005844
57.229,73.0029,0.005844
57.260,73.0368,0.005844
57.291,73.0725,0.005844
57.322,73.1076,0.005844
57.354,73.1458,0.005844
57.385,73.1829,0.005844
57.417,73.2232,0.005722
57.448,73.2613,0.005722
57.478,73.2998,0.005722
57.509,73.3395,0.005722
57.540,73.3803,0.005722
57.570,73.4209,0.005722
57.602,73.4638,0.005722
57.633,73.5070,0.005722
57.665,73.5533,0.005722
57.696,73.5971,0.005552
57.727,73.6440,0.005552
57.758,73.6878,0.005552
57.789,73.7354,0.005552
57.819,73.7798,0.005552
57.850,73.8272,0.005552
57.882,73.8744,0.005552
57.914,73.9226,0.005552
57.945,73.9691,0.005298
57.976,74.0148,0.005298
58.006,74.0612,0.005298
58.038,74.1092,0.005298
58.068,74.1544,0.005298
58.099,74.2002,0.005298
58.131,74.2479,0.005298
58.162,74.2948,0.005298
58.193,74.3418,0.005129
58.225,74.3902,0.005129
58.256,74.4361,0.005129
58.287,74.4828,0.005129
58.317,74.5287,0.005129
58.351,74.5779,0.005129
58.380,74.6227,0.005129
58.412,74.6696,0.005129
58.443,74.7169,0.004837
58.474,74.7621,0.004837
58.503,74.8076,0.004837
58.536,74.8548,0.004837
58.566,74.9006,0.004837
58.598,74.9480,0.004837
58.628,74.9941,0.004837
58.659,75.0416,0.004837
58.690,75.0864,0.004479
58.720,75.1323,0.004479
58.751,75.1788,0.004479
58.782,75.2244,0.004479
58.813,75.2709,0.004479
58.844,75.3173,0.004479
58.876,75.3651,0.004479
58.908,75.4144,0.004065
58.937,75.4570,0.004065
58.967,75.5029,0.004065
59.000,75.5511,0.004065
59.030,75.5967,0.004065
59.061,75.6439,0.004065
59.092,75.6894,0.004065
59.122,75.7349,0.004065
59.153,75.7806,0.003294
59.184,75.8254,0.003294
59.215,75.8707,0.003294
59.245,75.9125,0.003294
59.276,75.9572,0.003294
59.307,75.9986,0.003294
59.339,76.0427,0.003294
59.370,76.0828,0.003294
59.402,76.1241,0.003294
59.433,76.1620,0.001976
59.463,76.2009,0.001976
59.494,76.2383,0.001976
59.524,76.2738,0.001976
59.555,76.3108,0.001976
59.586,76.3462,0.001976
59.617,76.3822,0.001976
59.648,76.4156,0.001976
59.678,76.4487,-0.000640
59.710,76.4819,-0.000640
59.741,76.5143,-0.000640
59.771,76.5458,-0.000640
59.803,76.5769,-0.000640
59.834,76.6065,-0.000640
59.865,76.6358,-0.000640
59.896,76.6647,-0.000640
59.928,76.6926,-0.006098
59.959,76.7199,-0.006098
59.989,76.7458,-0.006098
60.021,76.7726,-0.006098
60.052,76.7969,-0.006098
60.084,76.8219,-0.006098
60.114,76.8447,-0.006098
60.145,76.8669,-0.015574
60.178,76.8906,-0.015574
60.208,76.9109,-0.015574
60.239,76.9311,-0.015574
60.269,76.9507,-0.015574
60.300,76.9697,-0.015574
60.331,76.9875,-0.015574
60.362,77.0054,-0.015574
60.393,77.0223,-0.015574
60.428,77.0406,-0.028288
60.455,77.0540,-0.028288
60.487,77.0690,-0.028288
60.518,77.0832,-0.028288
60.549,77.0959,-0.028288
60.579,77.1086,-0.028288
60.610,77.1200,-0.028288
60.642,77.1313,-0.028288
60.673,77.1416,-0.028288
60.704,77.1511,-0.040973
60.735,77.1602,-0.040973
60.766,77.1681,-0.040973
60.799,77.1759,-0.040973
60.829,77.1824,-0.040973
60.860,77.1883,-0.040973
60.891,77.1934,-0.040973
60.922,77.1979,-0.050091
60.953,77.2016,-0.050091
60.984,77.2046,-0.050091
61.014,77.2068,-0.050091
61.045,77.2083,-0.050091
61.077,77.2092,-0.050091
61.108,77.2093,-0.050091
61.139,77.2093,-0.050091
61.170,77.2093,-0.053282
61.201,77.2093,-0.053282
61.232,77.2093,-0.053282
61.264,77.2093,-0.053282
61.295,77.2093,-0.053282
61.326,77.2093,-0.053282
61.357,77.2093,-0.053282
61.388,77.2093,-0.053282
61.418,77.2093,-0.051004
61.449,77.2093,-0.051004
61.480,77.2093,-0.051004
61.513,77.2093,-0.051004
61.543,77.2093,-0.051004
61.575,77.2093,-0.051004
61.604,77.2093,-0.051004
61.635,77.2093,-0.051004
61.666,77.2093,-0.047372
61.702,77.2093,-0.047372
61.729,77.2093,-0.047372
61.759,77.2093,-0.047372
61.790,77.2093,-0.047372
61.821,77.2093,-0.047372
61.851,77.2093,-0.047372
61.882,77.2093,-0.047372
61.913,77.2093,-0.047372
61.943,77.2093,-0.044859
61.974,77.2093,-0.044859
62.006,77.2093,-0.044859
62.036,77.2093,-0.044859
62.067,77.2093,-0.044859
62.098,77.2093,-0.044859
62.129,77.2093,-0.044859
62.160,77.2093,-0.043005
62.191,77.2093,-0.043005
62.222,77.2093,-0.043005
62.253,77.2093,-0.043005
62.284,77.2093,-0.043005
62.315,77.2093,-0.043005
62.346,77.2093,-0.043005
62.377,77.2093,-0.043005
62.408,77.2093,-0.041519
62.439,77.2093,-0.041519
62.470,77.2093,-0.041519
62.502,77.2093,-0.041519
62.533,77.2093,-0.041519
62.564,77.2093,-0.041519
62.595,77.2093,-0.041519
62.626,77.2093,-0.041519
62.657,77.2093,-0.040305
62.688,77.2093,-0.040305
62.719,77.2093,-0.040305
62.751,77.2093,-0.040305
62.782,77.2093,-0.040305
62.812,77.2093,-0.040305
62.843,77.2093,-0.040305
62.874,77.2093,-0.040305
62.906,77.2093,-0.039298
62.937,77.2093,-0.039298
62.968,77.2093,-0.039298
62.999,77.2093,-0.039298
63.031,77.2093,-0.039298
63.062,77.2093,-0.039298
63.093,77.2093,-0.039298
63.124,77.2093,-0.039298
63.155,77.2093,-0.038460
63.186,77.2093,-0.038460
63.217,77.2093,-0.038460
63.247,77.2093,-0.038460
63.279,77.2093,-0.038460
63.311,77.2093,-0.038460
63.342,77.2093,-0.038460
63.373,77.2093,-0.038460
63.403,77.2093,-0.037707
63.434,77.2093,-0.037707
63.465,77.2093,-0.037707
63.497,77.2093,-0.037707
63.528,77.2093,-0.037707
63.559,77.2093,-0.037707
63.593,77.2093,-0.037707
63.622,77.2093,-0.037707
63.653,77.2093,-0.037707
63.683,77.2093,-0.036964
63.715,77.2093,-0.036964
63.746,77.2093,-0.036964
63.779,77.2093,-0.036964
63.808,77.2093,-0.036964
63.839,77.2093,-0.036964
63.870,77.2093,-0.036964
63.901,77.2093,-0.036964
63.932,77.2093,-0.036964
63.963,77.2093,-0.036334
63.994,77.2093,-0.036334
64.026,77.2093,-0.036334
64.056,77.2093,-0.036334
64.082,77.2093,-0.036334
64.119,77.2093,-0.036334
64.149,77.2093,-0.036334
64.179,77.2093,-0.035788
64.211,77.2093,-0.035788
64.243,77.2093,-0.035788
64.274,77.2093,-0.035788
64.305,77.2093,-0.035788
64.337,77.2093,-0.035788
64.367,77.2093,-0.035788
64.398,77.2093,-0.035788
64.429,77.2093,-0.035242
64.459,77.2093,-0.035242
64.490,77.2093,-0.035242
64.521,77.2093,-0.035242
64.552,77.2093,-0.035242
64.583,77.2093,-0.035242
64.614,77.2093,-0.035242
64.646,77.2093,-0.035242
64.676,77.2093,-0.034771
64.707,77.2093,-0.034771
64.739,77.2093,-0.034771
64.770,77.2093,-0.034771
64.801,77.2093,-0.034771
64.832,77.2093,-0.034771
64.863,77.2093,-0.034771
64.894,77.2093,-0.034771
64.925,77.2093,-0.034320
64.958,77.2093,-0.034320
64.989,77.2093,-0.034320
65.019,77.2093,-0.034320
65.050,77.2093,-0.034320
65.081,77.2093,-0.034320
65.112,77.2093,-0.034320
65.143,77.2093,-0.034320
65.174,77.2093,-0.033812
65.204,77.2093,-0.033812
65.235,77.2093,-0.033812
65.266,77.2093,-0.033812
65.296,77.2093,-0.033812
65.327,77.2093,-0.033812
65.360,77.2093,-0.033812
65.390,77.2093,-0.033426
65.421,77.2091,-0.033426
65.451,77.2083,-0.033426
65.482,77.2066,-0.033426
65.513,77.2043,-0.033426
65.545,77.2011,-0.033426
65.576,77.1973,-0.033426
65.607,77.1927,-0.033426
65.639,77.1875,-0.032673
65.670,77.1815,-0.032673
65.700,77.1748,-0.032673
65.731,77.1674,-0.032673
65.762,77.1594,-0.032673
65.793,77.1504,-0.032673
65.824,77.1407,-0.032673
65.855,77.1305,-0.032673
65.886,77.1195,-0.032673
65.917,77.1076,-0.026462
65.948,77.0951,-0.026462
65.978,77.0822,-0.026462
66.009,77.0684,-0.026462
66.041,77.0532,-0.026462
66.072,77.0379,-0.026462
66.107,77.0188,-0.026462
66.134,77.0049,-0.026462
66.164,76.9871,-0.013353
66.196,76.9688,-0.013353
66.227,76.9493,-0.013353
66.259,76.9295,-0.013353
66.289,76.9094,-0.013353
66.320,76.8878,-0.013353
66.351,76.8661,-0.013353
66.384,76.8421,-0.013353
66.412,76.8206,0.001383
66.443,76.7967,0.001383
66.474,76.7717,0.001383
66.505,76.7452,0.001383
66.537,76.7184,0.001383
66.567,76.6922,0.001383
66.598,76.6652,0.001383
66.628,76.6367,0.001383
66.659,76.6073,0.013579
66.690,76.5778,0.013579
66.721,76.5466,0.013579
66.752,76.5161,0.013579
66.783,76.4835,0.013579
66.815,76.4504,0.013579
66.846,76.4163,0.013579
66.876,76.3828,0.013579
66.907,76.3477,0.013579
66.937,76.3134,0.021117
66.969,76.2766,0.021117
66.999,76.2399,0.021117
67.030,76.2014,0.021117
67.062,76.1617,0.021117
67.093,76.1217,0.021117
67.124,76.0821,0.021117
67.156,76.0411,0.021117
67.186,75.9996,0.026180
67.218,75.9565,0.026180
67.249,75.9139,0.026180
67.279,75.8701,0.026180
67.310,75.8267,0.026180
67.342,75.7803,0.026180
67.372,75.7353,0.026180
67.403,75.6882,0.026180
67.434,75.6419,0.032089
67.466,75.5940,0.032089
67.496,75.5495,0.032089
67.527,75.5015,0.032089
67.558,75.4565,0.032089
67.590,75.4072,0.032089
67.620,75.3633,0.032089
67.651,75.3166,0.032089
67.682,75.2707,0.037651
67.713,75.2233,0.037651
67.745,75.1752,0.037651
67.776,75.1286,0.037651
67.808,75.0823,0.037651
67.839,75.0348,0.037651
67.870,74.9884,0.037651
67.900,74.9420,0.039185
67.932,74.8953,0.039185
67.963,74.8486,0.039185
67.994,74.8016,0.039185
68.025,74.7549,0.039185
68.056,74.7077,0.039185
68.088,74.6611,0.039185
68.121,74.6103,0.039185
68.150,74.5679,0.023422
68.181,74.5213,0.023422
68.211,74.4771,0.023422
68.242,74.4303,0.023422
68.273,74.3833,0.023422
68.305,74.3354,0.023422
68.335,74.2910,0.023422
68.367,74.2429,0.023422
68.398,74.1973,0.007773
68.429,74.1508,0.007773
68.459,74.1051,0.007773
68.490,74.0581,0.007773
68.521,74.0127,0.007773
68.552,73.9656,0.007773
68.583,73.9190,0.007773
68.613,73.8741,0.007773
68.644,73.8283,0.007773
68.675,73.7802,0.007105
68.706,73.7337,0.007105
68.737,73.6867,0.007105
68.769,73.6402,0.007105
68.800,73.5935,0.007105
68.831,73.5479,0.007105
68.863,73.5022,0.007105
68.894,73.4587,0.007105
68.924,73.4170,0.007105
68.955,73.3742,0.006898
68.986,73.3331,0.006898
69.017,73.2910,0.006898
69.048,73.2515,0.006898
69.080,73.2105,0.006898
69.110,73.1727,0.006898
69.140,73.1355,0.006898
69.172,73.0969,0.006775
69.203,73.0616,0.006775
69.233,73.0264,0.006775
69.265,72.9897,0.006775
69.295,72.9563,0.006775
69.327,72.9222,0.006775
69.358,72.8899,0.006775
69.388,72.8583,0.006775
69.419,72.8269,0.006691
69.450,72.7958,0.006691
69.480,72.7665,0.006691
69.512,72.7368,0.006691
69.541,72.7099,0.006691
69.572,72.6816,0.006691
69.603,72.6549,0.006691
69.634,72.6282,0.006691
69.664,72.6028,0.006606
69.696,72.5774,0.006606
69.727,72.5527,0.006606
69.758,72.5289,0.006606
69.789,72.5060,0.006606
69.825,72.4804,0.006606
69.852,72.4627,0.006606
69.883,72.4420,0.006606
69.914,72.4219,0.006550
69.950,72.3999,0.006550
69.976,72.3842,0.006550
70.007,72.3659,0.006550
70.038,72.3494,0.006550
70.069,72.3327,0.006550
70.102,72.3168,0.006550
70.132,72.3023,0.006550
70.162,72.2888,0.006550
70.194,72.2748,0.006531
70.225,72.2626,0.006531
70.256,72.2503,0.006531
70.288,72.2388,0.006531
70.318,72.2285,0.006531
70.349,72.2193,0.006531
70.380,72.2104,0.006531
70.411,72.2021,0.006531
70.441,72.1948,0.006521
70.473,72.1877,0.006521
70.503,72.1819,0.006521
70.534,72.1763,0.006521
70.565,72.1720,0.006521
70.598,72.1677,0.006521
70.627,72.1648,0.006521
70.659,72.1622,0.006521
70.689,72.1606,0.006446
70.723,72.1596,0.006446
70.751,72.1593,0.006446
70.783,72.1593,0.006446
70.813,72.1593,0.006446
70.845,72.1593,0.006446
70.876,72.1593,0.006446
70.907,72.1597,0.006446
70.938,72.1607,0.006427
70.968,72.1625,0.006427
71.000,72.1650,0.006427
71.030,72.1681,0.006427
71.062,72.1721,0.006427
71.093,72.1771,0.006427
71.125,72.1824,0.006427
71.156,72.1887,0.006427
71.188,72.1958,0.006361
71.219,72.2035,0.006361
71.250,72.2119,0.006361
71.282,72.2213,0.006361
71.312,72.2309,0.006361
71.342,72.2412,0.006361
71.373,72.2521,0.006361
71.404,72.2644,0.006361
71.435,72.2769,0.006230
71.467,72.2908,0.006230
71.497,72.3045,0.006230
71.529,72.3207,0.006230
71.559,72.3353,0.006230
71.590,72.3514,0.006230
71.621,72.3685,0.006230
71.654,72.3871,0.006230
71.684,72.4051,0.006230
71.713,72.4241,0.006154
71.744,72.4436,0.006154
71.775,72.4644,0.006154
71.806,72.4860,0.006154
71.838,72.5084,0.006154
71.869,72.5310,0.006154
71.899,72.5547,0.006154
71.930,72.5784,0.006060
71.961,72.6032,0.006060
71.992,72.6291,0.006060
72.023,72.6563,0.006060
72.054,72.6829,0.006060
72.085,72.7120,0.006060
72.116,72.7402,0.006060
72.147,72.7699,0.006060
72.178,72.8001,0.005938
72.209,72.8309,0.005938
72.241,72.8627,0.005938
72.270,72.8933,0.005938
72.301,72.9268,0.005938
72.332,72.9608,0.005938
72.363,72.9949,0.005938
72.395,73.0306,0.005787
72.426,73.0665,0.005787
72.456,73.1024,0.005787
72.487,73.1405,0.005787
72.518,73.1774,0.005787
72.549,73.2170,0.005787
72.581,73.2578,0.005787
72.612,73.2975,0.005787
72.642,73.3378,0.005618
72.673,73.3797,0.005618
72.704,73.4218,0.005618
72.735,73.4660,0.005618
72.765,73.5084,0.005618
72.796,73.5535,0.005618
72.828,73.5984,0.005618
72.860,73.6478,0.005618
72.891,73.6934,0.005383
72.922,73.7409,0.005383
72.953,73.7861,0.005383
72.984,73.8338,0.005383
73.016,73.8811,0.005383
73.047,73.9283,0.005383
73.081,73.9780,0.005383
73.109,74.0202,0.005383
73.142,74.0705,0.005383
73.170,74.1112,0.005166
73.201,74.1588,0.005166
73.232,74.2051,0.005166
73.263,74.2526,0.005166
73.293,74.2971,0.005166
73.324,74.3444,0.005166
73.356,74.3902,0.005166
73.387,74.4376,0.005166
73.417,74.4819,0.004950
73.449,74.5306,0.004950
73.481,74.5784,0.004950
73.514,74.6281,0.004950
73.544,74.6731,0.004950
73.575,74.7197,0.004950
73.605,74.7643,0.004950
73.636,74.8113,0.004950
73.668,74.8581,0.004620
73.704,74.9136,0.004620
73.731,74.9539,0.004620
73.762,75.0003,0.004620
73.793,75.0462,0.004620
73.823,75.0927,0.004620
73.853,75.1365,0.004620
73.884,75.1838,0.004620
73.915,75.2295,0.004169
73.947,75.2768,0.004169
73.977,75.3227,0.004169
74.009,75.3713,0.004169
74.040,75.4170,0.004169
74.070,75.4624,0.004169
74.102,75.5093,0.004169
74.131,75.5537,0.004169
74.163,75.6007,0.003576
74.194,75.6487,0.003576
74.225,75.6945,0.003576
74.256,75.7416,0.003576
74.287,75.7853,0.003576
74.318,75.8302,0.003576
74.349,75.8746,0.003576
74.380,75.9165,0.003576
74.412,75.9594,0.003576
74.444,76.0016,0.002550
74.474,76.0410,0.002550
74.505,76.0812,0.002550
74.536,76.1212,0.002550
74.569,76.1619,0.002550
74.598,76.1978,0.002550
74.629,76.2342,0.002550
74.659,76.2692,0.000489
74.691,76.3057,0.000489
74.722,76.3405,0.000489
74.752,76.3741,0.000489
74.783,76.4075,0.000489
74.819,76.4451,0.000489
74.845,76.4725,0.000489
74.876,76.5032,0.000489
74.907,76.5339,-0.003651
74.938,76.5638,-0.003651
74.969,76.5927,-0.003651
75.000,76.6208,-0.003651
75.031,76.6493,-0.003651
75.061,76.6754,-0.003651
75.092,76.7016,-0.003651
75.127,76.7307,-0.003651
75.154,76.7517,-0.011490
75.186,76.7760,-0.011490
75.217,76.7998,-0.011490
75.249,76.8225,-0.011490
75.278,76.8429,-0.011490
75.309,76.8643,-0.011490
75.343,76.8866,-0.011490
75.371,76.9042,-0.011490
75.404,76.9237,-0.023281
75.434,76.9415,-0.023281
75.464,76.9587,-0.023281
75.496,76.9759,-0.023281
75.527,76.9920,-0.023281
75.558,77.0070,-0.023281
75.589,77.0214,-0.023281
75.619,77.0349,-0.023281
75.650,77.0481,-0.023281
75.682,77.0606,-0.036484
75.713,77.0724,-0.036484
75.745,77.0834,-0.036484
75.775,77.0937,-0.036484
75.806,77.1030,-0.036484
75.837,77.1114,-0.036484
75.868,77.1195,-0.036484
75.900,77.1268,-0.036484
75.930,77.1334,-0.047381
75.960,77.1390,-0.047381
75.991,77.1441,-0.047381
76.022,77.1484,-0.047381
76.053,77.1520,-0.047381
76.082,77.1547,-0.047381
76.114,77.1570,-0.047381
76.144,77.1585,-0.047381
76.175,77.1592,-0.053009
76.206,77.1593,-0.053009
76.237,77.1593,-0.053009
76.268,77.1593,-0.053009
76.300,77.1593,-0.053009
76.330,77.1593,-0.053009
76.360,77.1593,-0.053009
76.391,77.1593,-0.053009
76.422,77.1593,-0.052397
76.452,77.1593,-0.052397
76.483,77.1593,-0.052397
76.514,77.1593,-0.052397
76.545,77.1593,-0.052397
76.577,77.1593,-0.052397
76.607,77.1593,-0.052397
76.639,77.1593,-0.052397
76.669,77.1593,-0.048812
76.701,77.1593,-0.048812
76.732,77.1593,-0.048812
76.762,77.1593,-0.048812
76.793,77.1593,-0.048812
76.825,77.1593,-0.048812
76.855,77.1593,-0.048812
76.886,77.1593,-0.048812
76.917,77.1593,-0.045923
76.948,77.1593,-0.045923
76.979,77.1593,-0.045923
77.009,77.1593,-0.045923
77.041,77.1593,-0.045923
77.072,77.1593,-0.045923
77.103,77.1593,-0.045923
77.134,77.1593,-0.045923
77.164,77.1593,-0.045923
77.195,77.1593,-0.043909
77.226,77.1593,-0.043909
77.258,77.1593,-0.043909
77.288,77.1593,-0.043909
77.320,77.1593,-0.043909
77.350,77.1593,-0.043909
77.384,77.1593,-0.043909
77.414,77.1593,-0.042281
77.445,77.1593,-0.042281
77.476,77.1593,-0.042281
77.507,77.1593,-0.042281
77.538,77.1593,-0.042281
77.568,77.1593,-0.042281
77.601,77.1593,-0.042281
77.631,77.1593,-0.042281
77.662,77.1593,-0.040954
77.692,77.1593,-0.040954
77.723,77.1593,-0.040954
77.755,77.1593,-0.040954
77.786,77.1593,-0.040954
77.817,77.1593,-0.040954
77.847,77.1593,-0.040954
77.879,77.1593,-0.040954
77.910,77.1593,-0.039825
77.939,77.1593,-0.039825
77.971,77.1593,-0.039825
78.002,77.1593,-0.039825
78.033,77.1593,-0.039825
78.065,77.1593,-0.039825
78.096,77.1593,-0.039825
78.127,77.1593,-0.039825
78.158,77.1593,-0.038874
78.188,77.1593,-0.038874
78.219,77.1593,-0.038874
78.251,77.1593,-0.038874
78.281,77.1593,-0.038874
78.312,77.1593,-0.038874
78.343,77.1593,-0.038874
78.375,77.1593,-0.038874
78.406,77.1593,-0.038074
78.437,77.1593,-0.038074
78.468,77.1593,-0.038074
78.500,77.1593,-0.038074
78.530,77.1593,-0.038074
78.560,77.1593,-0.038074
78.592,77.1593,-0.038074
78.622,77.1593,-0.038074
78.653,77.1593,-0.037359
78.684,77.1593,-0.037359
78.715,77.1593,-0.037359
78.745,77.1593,-0.037359
78.776,77.1593,-0.037359
78.808,77.1593,-0.037359
78.838,77.1593,-0.037359
78.870,77.1593,-0.037359
78.900,77.1593,-0.036691
78.932,77.1593,-0.036691
78.962,77.1593,-0.036691
78.993,77.1593,-0.036691
79.024,77.1593,-0.036691
79.055,77.1593,-0.036691
79.086,77.1593,-0.036691
79.118,77.1593,-0.036691
79.149,77.1593,-0.036136
79.182,77.1593,-0.036136
79.212,77.1593,-0.036136
79.243,77.1593,-0.036136
79.274,77.1593,-0.036136
79.304,77.1593,-0.036136
79.335,77.1593,-0.036136
79.365,77.1593,-0.036136
79.396,77.1593,-0.036136
79.427,77.1593,-0.035637
79.458,77.1593,-0.035637
79.489,77.1593,-0.035637
79.520,77.1593,-0.035637
79.552,77.1593,-0.035637
79.581,77.1593,-0.035637
79.612,77.1593,-0.035637
79.644,77.1593,-0.035129
79.674,77.1593,-0.035129
79.705,77.1593,-0.035129
79.735,77.1593,-0.035129
79.768,77.1593,-0.035129
79.798,77.1593,-0.035129
79.829,77.1593,-0.035129
79.860,77.1593,-0.035129
79.891,77.1593,-0.035129
79.921,77.1593,-0.034621
79.953,77.1593,-0.034621
79.984,77.1593,-0.034621
80.015,77.1593,-0.034621
80.045,77.1593,-0.034621
80.076,77.1593,-0.034621
80.107,77.1593,-0.034621
80.139,77.1593,-0.034621
80.170,77.1593,-0.034122
80.202,77.1593,-0.034122
80.233,77.1593,-0.034122
80.264,77.1593,-0.034122
80.296,77.1593,-0.034122
80.326,77.1593,-0.034122
80.357,77.1593,-0.034122
80.388,77.1593,-0.034122
80.419,77.1593,-0.034122
80.450,77.1593,-0.033736
80.481,77.1593,-0.033736
80.512,77.1591,-0.033736
80.543,77.1581,-0.033736
80.575,77.1563,-0.033736
80.605,77.1540,-0.033736
80.637,77.1508,-0.033736
80.668,77.1468,-0.033350
80.700,77.1421,-0.033350
80.731,77.1367,-0.033350
80.762,77.1307,-0.033350
80.792,77.1241,-0.033350
80.824,77.1164,-0.033350
80.855,77.1081,-0.033350
80.886,77.0992,-0.033350
80.917,77.0894,-0.029483
80.947,77.0790,-0.029483
80.978,77.0682,-0.029483
81.010,77.0559,-0.029483
81.040,77.0439,-0.029483
81.071,77.0303,-0.029483
81.101,77.0166,-0.029483
81.132,77.0019,-0.029483
81.163,76.9862,-0.018548
81.194,76.9704,-0.018548
81.224,76.9536,-0.018548
81.256,76.9353,-0.018548
81.287,76.9171,-0.018548
81.322,76.8944,-0.018548
81.349,76.8783,-0.018548
81.380,76.8574,-0.018548
81.410,76.8365,-0.003708
81.441,76.8148,-0.003708
81.472,76.7918,-0.003708
81.503,76.7688,-0.003708
81.534,76.7441,-0.003708
81.565,76.7198,-0.003708
81.596,76.6936,-0.003708
81.628,76.6666,-0.003708
81.659,76.6395,0.009702
81.690,76.6113,0.009702
81.721,76.5834,0.009702
81.751,76.5538,0.009702
81.782,76.5247,0.009702
81.814,76.4928,0.009702
81.845,76.4614,0.009702
81.876,76.4286,0.009702
81.907,76.3960,0.018642
81.938,76.3617,0.018642
81.970,76.3270,0.018642
82.000,76.2923,0.018642
82.031,76.2572,0.018642
82.061,76.2206,0.018642
82.092,76.1845,0.018642
82.123,76.1460,0.018642
82.154,76.1074,0.023855
82.186,76.0667,0.023855
82.215,76.0296,0.023855
82.246,75.9882,0.023855
82.277,75.9471,0.023855
82.308,75.9042,0.023855
82.339,75.8612,0.023855
82.370,75.8174,0.023855
82.401,75.7716,0.029097
82.431,75.7288,0.029097
82.462,75.6832,0.029097
82.495,75.6345,0.029097
82.524,75.5894,0.029097
82.555,75.5423,0.029097
82.586,75.4967,0.029097
82.617,75.4499,0.029097
82.647,75.4048,0.029097
82.678,75.3585,0.035016
82.710,75.3119,0.035016
82.741,75.2640,0.035016
82.772,75.2171,0.035016
82.803,75.1709,0.035016
82.834,75.1241,0.035016
82.865,75.0787,0.035016
82.897,75.0308,0.035016
82.927,74.9858,0.038338
82.958,74.9388,0.038338
82.988,74.8938,0.038338
83.019,74.8474,0.038338
83.049,74.8021,0.038338
83.081,74.7544,0.038338
83.112,74.7090,0.038338
83.142,74.6625,0.038338
83.172,74.6180,0.038338
83.204,74.5698,0.024561
83.235,74.5236,0.024561
83.267,74.4758,0.024561
83.297,74.4306,0.024561
83.328,74.3842,0.024561
83.359,74.3374,0.024561
83.391,74.2886,0.024561
83.422,74.2433,0.008752
83.453,74.1955,0.008752
83.483,74.1513,0.008752
83.515,74.1036,0.008752
83.546,74.0564,0.008752
83.577,74.0105,0.008752
83.608,73.9642,0.008752
83.638,73.9181,0.008752
83.669,73.8729,0.008752
83.700,73.8268,0.008752
83.731,73.7792,0.007086
83.762,73.7334,0.007086
83.792,73.6867,0.007086
83.824,73.6403,0.007086
83.855,73.5934,0.007086
83.886,73.5473,0.007086
83.917,73.5027,0.006888
83.947,73.4595,0.006888
83.978,73.4155,0.006888
84.008,73.3728,0.006888
84.039,73.3306,0.006888
84.070,73.2888,0.006888
84.101,73.2468,0.006888
84.133,73.2063,0.006888
84.164,73.1669,0.006888
84.194,73.1284,0.006738
84.226,73.0901,0.006738
84.256,73.0529,0.006738
84.287,73.0167,0.006738
84.319,72.9797,0.006738
84.350,72.9444,0.006738
84.381,72.9098,0.006738
84.413,72.8753,0.006738
84.443,72.8428,0.006616
84.475,72.8093,0.006616
84.506,72.7779,0.006616
84.537,72.7477,0.006616
84.568,72.7174,0.006616
84.599,72.6873,0.006616
84.630,72.6594,0.006616
84.662,72.6302,0.006616
84.692,72.6038,0.006606
84.723,72.5768,0.006606
84.754,72.5516,0.006606
84.785,72.5265,0.006606
84.817,72.5019,0.006606
84.848,72.4777,0.006606
84.879,72.4547,0.006606
84.910,72.4334,0.006606
84.941,72.4120,0.006587
84.972,72.3909,0.006587
85.004,72.3709,0.006587
85.034,72.3518,0.006587
85.065,72.3341,0.006587
85.096,72.3161,0.006587
85.127,72.2992,0.006587
85.158,72.2826,0.006587
85.190,72.2668,0.006484
85.221,72.2521,0.006484
85.253,72.2378,0.006484
85.283,72.2247,0.006484
85.314,72.2123,0.006484
85.344,72.2006,0.006484
85.375,72.1893,0.006484
85.407,72.1787,0.006408
85.437,72.1692,0.006408
85.467,72.1607,0.006408
85.499,72.1519,0.006408
85.531,72.1444,0.006408
85.562,72.1376,0.006408
85.593,72.1315,0.006408
85.624,72.1261,0.006408
85.655,72.1216,0.006408
85.685,72.1178,0.006390
85.716,72.1147,0.006390
85.747,72.1123,0.006390
85.778,72.1106,0.006390
85.810,72.1096,0.006390
85.841,72.1093,0.006390
85.872,72.1093,0.006390
85.903,72.1093,0.006390
85.934,72.1093,0.006333
85.967,72.1093,0.006333
85.997,72.1093,0.006333
86.028,72.1098,0.006333
86.059,72.1111,0.006333
86.090,72.1131,0.006333
86.122,72.1157,0.006333
86.153,72.1191,0.006333
86.183,72.1232,0.006333
86.216,72.1283,0.006333
86.246,72.1340,0.006333
86.277,72.1401,0.006333
86.307,72.1469,0.006333
86.339,72.1550,0.006333
86.370,72.1635,0.006333
86.402,72.1732,0.006333
86.433,72.1829,0.006305
86.464,72.1940,0.006305
86.495,72.2055,0.006305
86.526,72.2174,0.006305
86.556,72.2300,0.006305
86.589,72.2441,0.006305
86.618,72.2583,0.006305
86.649,72.2730,0.006305
86.681,72.2890,0.006192
86.716,72.3081,0.006192
86.743,72.3230,0.006192
86.774,72.3411,0.006192
86.805,72.3595,0.006192
86.836,72.3791,0.006192
86.867,72.3991,0.006192
86.898,72.4204,0.006192
86.929,72.4416,0.006192
86.961,72.4649,0.006089
86.991,72.4870,0.006089
87.022,72.5115,0.006089
87.054,72.5366,0.006089
87.085,72.5621,0.006089
87.116,72.5877,0.006089
87.147,72.6140,0.006089
87.178,72.6421,0.006089
87.210,72.6709,0.005985
87.240,72.6997,0.005985
87.271,72.7292,0.005985
87.303,72.7605,0.005985
87.333,72.7906,0.005985
87.365,72.8231,0.005985
87.396,72.8562,0.005985
87.428,72.8904,0.005834
87.459,72.9243,0.005834
87.491,72.9601,0.005834
87.518,72.9923,0.005834
87.553,73.0323,0.005834
87.585,73.0714,0.005834
87.615,73.1070,0.005834
87.646,73.1457,0.005834
87.678,73.1860,0.005656
87.709,73.2254,0.005656
87.740,73.2675,0.005656
87.771,73.3078,0.005656
87.802,73.3493,0.005656
87.833,73.3935,0.005656
87.864,73.4369,0.005656
87.895,73.4804,0.005656
87.926,73.5264,0.005656
87.957,73.5713,0.005467
87.988,73.6177,0.005467
88.020,73.6653,0.005467
88.053,73.7146,0.005467
88.082,73.7577,0.005467
88.114,73.8063,0.005467
88.144,73.8519,0.005467
88.176,73.8997,0.005270
88.207,73.9474,0.005270
88.238,73.9935,0.005270
88.269,74.0383,0.005270
88.299,74.0845,0.005270
88.330,74.1308,0.005270
88.362,74.1780,0.005270
88.392,74.2243,0.005270
88.423,74.2714,0.005270
88.454,74.3173,0.005016
88.485,74.3632,0.005016
88.515,74.4084,0.005016
88.546,74.4554,0.005016
88.574,74.4967,0.005016
88.608,74.5481,0.005016
88.639,74.5945,0.005016
88.670,74.6411,0.004686
88.702,74.6890,0.004686
88.732,74.7333,0.004686
88.763,74.7802,0.004686
88.795,74.8276,0.004686
88.825,74.8743,0.004686
88.856,74.9209,0.004686
88.887,74.9665,0.004686
88.919,75.0158,0.004423
88.951,75.0622,0.004423
88.983,75.1103,0.004423
89.014,75.1568,0.004423
89.045,75.2035,0.004423
89.075,75.2485,0.004423
89.106,75.2949,0.004423
89.137,75.3408,0.004423
89.168,75.3888,0.003934
89.200,75.4358,0.003934
89.230,75.4831,0.003934
89.260,75.5263,0.003934
89.291,75.5733,0.003934
89.322,75.6193,0.003934
89.353,75.6652,0.003934
89.384,75.7110,0.003934
89.415,75.7559,0.003934
89.446,75.8003,0.003115
89.477,75.8431,0.003115
89.508,75.8856,0.003115
89.539,75.9271,0.003115
89.569,75.9670,0.003115
89.603,76.0121,0.003115
89.631,76.0476,0.003115
89.660,76.0827,0.001675
89.694,76.1252,0.001675
89.725,76.1632,0.001675
89.757,76.2002,0.001675
89.788,76.2370,0.001675
89.819,76.2721,0.001675
89.853,76.3101,0.001675
89.882,76.3418,0.001675
89.914,76.3749,-0.001317
89.945,76.4074,-0.001317
89.980,76.4438,-0.001317
90.007,76.4702,-0.001317
90.039,76.5016,-0.001317
90.070,76.5302,-0.001317
90.100,76.5590,-0.001317
90.131,76.5867,-0.001317
90.163,76.6146,-0.001317
90.193,76.6399,-0.007378
90.224,76.6657,-0.007378
90.254,76.6896,-0.007378
90.285,76.7142,-0.007378
90.315,76.7371,-0.007378
90.346,76.7606,-0.007378
90.377,76.7822,-0.007378
90.408,76.8041,-0.007378
90.439,76.8245,-0.017522
90.470,76.8448,-0.017522
90.500,76.8630,-0.017522
90.530,76.8814,-0.017522
90.561,76.8992,-0.017522
90.593,76.9165,-0.017522
90.623,76.9331,-0.017522
90.654,76.9482,-0.017522
90.685,76.9635,-0.030433
90.718,76.9780,-0.030433
90.747,76.9913,-0.030433
90.779,77.0040,-0.030433
90.810,77.0161,-0.030433
90.843,77.0279,-0.030433
90.873,77.0383,-0.030433
90.905,77.0484,-0.030433
90.935,77.0571,-0.042789
90.966,77.0653,-0.042789
90.996,77.0729,-0.042789
91.028,77.0798,-0.042789
91.058,77.0859,-0.042789
91.088,77.0912,-0.042789
91.119,77.0961,-0.042789
91.151,77.1002,-0.042789
91.182,77.1034,-0.051145
91.213,77.1061,-0.051145
91.245,77.1079,-0.051145
91.276,77.1090,-0.051145
91.307,77.1093,-0.051145
91.337,77.1093,-0.051145
91.369,77.1093,-0.051145
91.399,77.1093,-0.051145
