Elapsed Time (s),Position (mm),Force (N)
-0.016,48.4501,-0.001525
0.000,48.4501,-0.001525
0.016,48.4501,-0.001525
0.032,48.4501,-0.001525
0.048,48.4501,-0.001525
0.063,48.4501,-0.001525
0.080,48.4501,-0.001525
0.095,48.4501,-0.001525
0.111,48.4501,-0.001525
0.127,48.4501,-0.001525
0.144,48.4501,-0.001525
0.160,48.4501,-0.000819
0.175,48.4501,-0.000819
0.191,48.4501,-0.000819
0.208,48.4501,-0.000819
0.224,48.4501,-0.000819
0.239,48.4501,-0.000819
0.256,48.4501,-0.000819
0.286,48.4501,-0.000819
0.317,48.4501,-0.000819
0.333,48.4501,-0.000819
0.348,48.4501,-0.000819
0.372,48.4501,-0.000819
0.395,48.4501,-0.000819
0.412,48.4501,0.000668
0.428,48.4501,0.000668
0.445,48.4501,0.000668
0.474,48.4501,0.000668
0.492,48.4501,0.000668
0.509,48.4501,0.000668
0.524,48.4501,0.000668
0.541,48.4501,0.000668
0.556,48.4501,0.000668
0.572,48.4501,0.000668
0.588,48.4501,0.000668
0.604,48.4501,0.000668
0.621,48.4501,0.000668
0.636,48.4501,0.000668
0.652,48.4501,0.000668
0.668,48.4501,0.001478
0.685,48.4501,0.001478
0.700,48.4501,0.001478
0.716,48.4501,0.001478
0.732,48.4501,0.001478
0.748,48.4501,0.001478
0.768,48.4501,0.001478
0.785,48.4501,0.001478
0.815,48.4501,0.001478
0.846,48.4501,0.001478
0.877,48.4501,0.001478
0.907,48.4501,0.001789
0.924,48.4501,0.001789
0.947,48.4501,0.001789
0.970,48.4501,0.001789
0.988,48.4501,0.001789
1.004,48.4501,0.001789
1.020,48.4501,0.001789
1.036,48.4501,0.001789
1.052,48.4501,0.001789
1.068,48.4501,0.001789
1.084,48.4501,0.001789
1.100,48.4501,0.001789
1.117,48.4501,0.001789
1.133,48.4501,0.001789
1.150,48.4501,0.001789
1.172,48.4501,0.001789
1.188,48.4501,0.002014
1.204,48.4501,0.002014
1.235,48.4501,0.002014
1.266,48.4501,0.002014
1.296,48.4501,0.002014
1.328,48.4501,0.002014
1.358,48.4501,0.002014
1.389,48.4501,0.002014
1.404,48.4501,0.002014
1.435,48.4501,0.002109
1.451,48.4501,0.002109
1.467,48.4501,0.002109
1.483,48.4501,0.002109
1.499,48.4501,0.002109
1.515,48.4501,0.002109
1.531,48.4501,0.002109
1.547,48.4501,0.002109
1.566,48.4501,0.002109
1.589,48.4501,0.002109
1.604,48.4501,0.002109
1.620,48.4501,0.002109
1.650,48.4501,0.002203
1.681,48.4501,0.002203
1.696,48.4501,0.002203
1.727,48.4501,0.002203
1.764,48.4501,0.002203
1.789,48.4501,0.002203
1.804,48.4501,0.002203
1.820,48.4501,0.002203
1.836,48.4501,0.002203
1.851,48.4501,0.002203
1.867,48.4501,0.002203
1.883,48.4501,0.002203
1.899,48.4501,0.002344
1.915,48.4501,0.002344
1.932,48.4501,0.002344
1.958,48.4501,0.002344
1.979,48.4501,0.002344
1.995,48.4501,0.002344
2.011,48.4501,0.002344
2.027,48.4501,0.002344
2.043,48.4501,0.002344
2.059,48.4501,0.002344
2.074,48.4501,0.002344
2.090,48.4501,0.002344
2.107,48.4501,0.002344
2.123,48.4501,0.002344
2.139,48.4501,0.002419
2.154,48.4501,0.002419
2.171,48.4501,0.002419
2.187,48.4501,0.002419
2.202,48.4501,0.002419
2.218,48.4501,0.002419
2.235,48.4501,0.002419
2.252,48.4501,0.002419
2.282,48.4501,0.002419
2.299,48.4501,0.002419
2.315,48.4501,0.002419
2.331,48.4501,0.002419
2.346,48.4501,0.002419
2.365,48.4501,0.002419
2.391,48.4501,0.002400
2.410,48.4501,0.002400
2.427,48.4501,0.002400
2.443,48.4501,0.002400
2.459,48.4501,0.002400
2.475,48.4501,0.002400
2.491,48.4501,0.002400
2.512,48.4501,0.002400
2.529,48.4501,0.002400
2.544,48.4501,0.002400
2.561,48.4501,0.002400
2.576,48.4501,0.002400
2.592,48.4501,0.002400
2.609,48.4501,0.002400
2.624,48.4501,0.002400
2.640,48.4501,0.002476
2.656,48.4501,0.002476
2.673,48.4501,0.002476
2.689,48.4501,0.002476
2.705,48.4501,0.002476
2.721,48.4501,0.002476
2.738,48.4501,0.002476
2.753,48.4501,0.002476
2.769,48.4501,0.002476
2.784,48.4501,0.002476
2.801,48.4501,0.002476
2.817,48.4501,0.002476
2.832,48.4501,0.002476
2.849,48.4501,0.002476
2.865,48.4501,0.002476
2.880,48.4501,0.002447
2.896,48.4501,0.002447
2.913,48.4501,0.002447
2.929,48.4501,0.002447
2.944,48.4501,0.002447
2.960,48.4501,0.002447
2.976,48.4501,0.002447
2.993,48.4501,0.002447
3.008,48.4501,0.002447
3.025,48.4501,0.002447
3.040,48.4501,0.002447
3.057,48.4501,0.002447
3.072,48.4501,0.002447
3.088,48.4501,0.002447
3.108,48.4501,0.002447
3.123,48.4501,0.002447
3.151,48.4501,0.002447
3.169,48.4501,0.002447
3.185,48.4501,0.002447
3.200,48.4501,0.002447
3.216,48.4501,0.002447
3.234,48.4501,0.002447
3.259,48.4501,0.002447
3.280,48.4501,0.002447
3.297,48.4501,0.002447
3.313,48.4501,0.002447
3.328,48.4501,0.002447
3.344,48.4501,0.002447
3.361,48.4501,0.002447
3.377,48.4501,0.002447
3.392,48.4501,0.002551
3.409,48.4501,0.002551
3.430,48.4501,0.002551
3.460,48.4501,0.002551
3.476,48.4501,0.002551
3.493,48.4501,0.002551
3.523,48.4501,0.002551
3.555,48.4501,0.002551
3.571,48.4501,0.002551
3.599,48.4501,0.002551
3.616,48.4501,0.002551
3.632,48.4501,0.002382
3.647,48.4501,0.002382
3.667,48.4501,0.002382
3.694,48.4501,0.002382
3.711,48.4501,0.002382
3.728,48.4501,0.002382
3.757,48.4501,0.002382
3.775,48.4501,0.002382
3.791,48.4501,0.002382
3.807,48.4501,0.002382
3.823,48.4501,0.002382
3.840,48.4501,0.002382
3.855,48.4501,0.002382
3.872,48.4501,0.002382
3.896,48.4501,0.002061
3.926,48.4501,0.002061
3.956,48.4501,0.002061
3.989,48.4501,0.002061
4.017,48.4501,0.002061
4.048,48.4501,0.002061
4.063,48.4501,0.002061
4.079,48.4501,0.002061
4.095,48.4500,0.002061
4.111,48.4498,0.002061
4.127,48.4493,0.002061
4.159,48.4476,0.001685
4.187,48.4457,0.001685
4.206,48.4439,0.001685
4.222,48.4423,0.001685
4.238,48.4405,0.001685
4.254,48.4383,0.001685
4.271,48.4361,0.001685
4.286,48.4338,0.001685
4.302,48.4312,0.001685
4.319,48.4282,0.001685
4.343,48.4236,0.001685
4.374,48.4169,0.001685
4.389,48.4134,0.002928
4.420,48.4059,0.002928
4.451,48.3975,0.002928
4.466,48.3931,0.002928
4.481,48.3885,0.002928
4.511,48.3791,0.002928
4.527,48.3739,0.002928
4.545,48.3674,0.002928
4.573,48.3572,0.002928
4.590,48.3509,0.002928
4.606,48.3445,0.002928
4.622,48.3381,0.002928
4.638,48.3316,0.011258
4.654,48.3245,0.011258
4.670,48.3175,0.011258
4.686,48.3101,0.011258
4.713,48.2976,0.011258
4.729,48.2900,0.011258
4.744,48.2823,0.011258
4.760,48.2743,0.011258
4.779,48.2641,0.011258
4.804,48.2501,0.011258
4.824,48.2398,0.011258
4.840,48.2302,0.011258
4.856,48.2208,0.011258
4.872,48.2116,0.011258
4.890,48.2008,0.015664
4.913,48.1861,0.015664
4.929,48.1764,0.015664
4.945,48.1654,0.015664
4.976,48.1450,0.015664
5.007,48.1227,0.015664
5.038,48.1014,0.015664
5.069,48.0782,0.015664
5.100,48.0551,0.015664
5.130,48.0307,0.015664
5.146,48.0182,0.015664
5.162,48.0059,0.012303
5.192,47.9807,0.012303
5.208,47.9669,0.012303
5.224,47.9534,0.012303
5.253,47.9270,0.012303
5.269,47.9124,0.012303
5.284,47.8991,0.012303
5.301,47.8846,0.012303
5.317,47.8692,0.012303
5.332,47.8544,0.012303
5.349,47.8391,0.012303
5.365,47.8238,0.012303
5.381,47.8074,0.012303
5.397,47.7917,0.012303
5.413,47.7756,0.012200
5.429,47.7597,0.012200
5.446,47.7422,0.012200
5.470,47.7164,0.012200
5.501,47.6832,0.012200
5.516,47.6668,0.012200
5.547,47.6331,0.012200
5.577,47.5997,0.012200
5.593,47.5815,0.012200
5.624,47.5451,0.012200
5.640,47.5265,0.012200
5.670,47.4906,0.008218
5.686,47.4720,0.008218
5.702,47.4515,0.008218
5.732,47.4145,0.008218
5.751,47.3901,0.008218
5.778,47.3562,0.008218
5.812,47.3127,0.008218
5.828,47.2914,0.008218
5.843,47.2703,0.008218
5.859,47.2491,0.008218
5.875,47.2275,0.008218
5.891,47.2057,0.008218
5.908,47.1829,0.003445
5.923,47.1615,0.003445
5.940,47.1381,0.003445
5.957,47.1138,0.003445
5.979,47.0823,0.003445
5.995,47.0595,0.003445
6.026,47.0138,0.003445
6.056,46.9688,0.003445
6.088,46.9209,0.003445
6.119,46.8738,0.003445
6.135,46.8486,0.003445
6.150,46.8238,0.003577
6.166,46.7996,0.003577
6.182,46.7752,0.003577
6.213,46.7248,0.003577
6.229,46.6993,0.003577
6.245,46.6732,0.003577
6.260,46.6477,0.003577
6.276,46.6223,0.003577
6.291,46.5957,0.003577
6.309,46.5662,0.003577
6.338,46.5165,0.003577
6.369,46.4633,0.003577
6.385,46.4360,0.003577
6.400,46.4092,0.003841
6.416,46.3805,0.003841
6.433,46.3509,0.003841
6.448,46.3245,0.003841
6.464,46.2950,0.003841
6.480,46.2663,0.003841
6.497,46.2361,0.003841
6.512,46.2075,0.003841
6.528,46.1778,0.003841
6.544,46.1486,0.003841
6.560,46.1179,0.003841
6.577,46.0864,0.003841
6.592,46.0575,0.003841
6.608,46.0273,0.003841
6.624,45.9961,0.003841
6.640,45.9663,0.003841
6.656,45.9349,0.004161
6.672,45.9032,0.004161
6.688,45.8707,0.004161
6.704,45.8398,0.004161
6.720,45.8086,0.004161
6.736,45.7756,0.004161
6.752,45.7443,0.004161
6.768,45.7114,0.004161
6.784,45.6783,0.004161
6.800,45.6463,0.004161
6.816,45.6120,0.004161
6.832,45.5787,0.004161
6.848,45.5464,0.004161
6.865,45.5104,0.004161
6.895,45.4480,0.004161
6.926,45.3819,0.004556
6.942,45.3479,0.004556
6.957,45.3147,0.004556
6.973,45.2821,0.004556
6.996,45.2317,0.004556
7.019,45.1860,0.004556
7.037,45.1501,0.004556
7.053,45.1164,0.004556
7.069,45.0835,0.004556
7.085,45.0523,0.004556
7.101,45.0203,0.004556
7.117,44.9876,0.004556
7.133,44.9579,0.004556
7.149,44.9258,0.004829
7.165,44.8951,0.004829
7.181,44.8634,0.004829
7.197,44.8324,0.004829
7.213,44.8027,0.004829
7.229,44.7721,0.004829
7.245,44.7413,0.004829
7.261,44.7117,0.004829
7.277,44.6820,0.004829
7.293,44.6509,0.004829
7.309,44.6225,0.004829
7.325,44.5939,0.004829
7.341,44.5641,0.004829
7.357,44.5359,0.004829
7.373,44.5071,0.004829
7.389,44.4777,0.005036
7.405,44.4505,0.005036
7.421,44.4221,0.005036
7.437,44.3944,0.005036
7.453,44.3668,0.005036
7.481,44.3180,0.005036
7.497,44.2903,0.005036
7.513,44.2642,0.005036
7.529,44.2373,0.005036
7.545,44.2093,0.005036
7.561,44.1843,0.005036
7.577,44.1587,0.005036
7.593,44.1327,0.005036
7.609,44.1052,0.005036
7.626,44.0795,0.005036
7.641,44.0549,0.005526
7.658,44.0286,0.005526
7.681,43.9924,0.005526
7.696,43.9690,0.005526
7.711,43.9446,0.005526
7.742,43.8986,0.005526
7.773,43.8517,0.005526
7.805,43.8064,0.005526
7.835,43.7613,0.005526
7.866,43.7183,0.005526
7.882,43.6952,0.005977
7.913,43.6523,0.005977
7.929,43.6313,0.005977
7.945,43.6090,0.005977
7.974,43.5703,0.005977
7.993,43.5452,0.005977
8.009,43.5237,0.005977
8.035,43.4909,0.005977
8.051,43.4701,0.005977
8.066,43.4495,0.005977
8.083,43.4290,0.005977
8.101,43.4070,0.005977
8.129,43.3731,0.006382
8.147,43.3514,0.006382
8.163,43.3325,0.006382
8.178,43.3138,0.006382
8.194,43.2951,0.006382
8.211,43.2764,0.006382
8.227,43.2575,0.006382
8.243,43.2397,0.006382
8.258,43.2222,0.006382
8.275,43.2039,0.006382
8.291,43.1861,0.006382
8.307,43.1686,0.006382
8.323,43.1518,0.006382
8.339,43.1350,0.006382
8.354,43.1185,0.006382
8.370,43.1021,0.006382
8.386,43.0857,0.006796
8.403,43.0690,0.006796
8.419,43.0526,0.006796
8.435,43.0375,0.006796
8.451,43.0216,0.006796
8.466,43.0064,0.006796
8.483,42.9911,0.006796
8.498,42.9764,0.006796
8.514,42.9613,0.006796
8.530,42.9468,0.006796
8.547,42.9318,0.006796
8.562,42.9179,0.006796
8.593,42.8905,0.006796
8.615,42.8717,0.006796
8.639,42.8521,0.007079
8.657,42.8377,0.007079
8.673,42.8248,0.007079
8.689,42.8121,0.007079
8.704,42.8000,0.007079
8.721,42.7872,0.007079
8.736,42.7756,0.007079
8.753,42.7632,0.007079
8.768,42.7517,0.007079
8.787,42.7382,0.007079
8.802,42.7273,0.007079
8.824,42.7119,0.007079
8.856,42.6907,0.007079
8.886,42.6703,0.007389
8.918,42.6510,0.007389
8.933,42.6417,0.007389
8.964,42.6234,0.007389
8.995,42.6055,0.007389
9.024,42.5895,0.007389
9.041,42.5810,0.007389
9.057,42.5727,0.007389
9.072,42.5650,0.007389
9.092,42.5549,0.007389
9.116,42.5438,0.007389
9.136,42.5343,0.007653
9.153,42.5270,0.007653
9.169,42.5202,0.007653
9.184,42.5136,0.007653
9.201,42.5070,0.007653
9.217,42.5005,0.007653
9.233,42.4945,0.007653
9.248,42.4888,0.007653
9.264,42.4830,0.007653
9.281,42.4772,0.007653
9.296,42.4720,0.007653
9.312,42.4669,0.007653
9.328,42.4618,0.007653
9.344,42.4571,0.007653
9.360,42.4525,0.007653
9.376,42.4480,0.007822
9.392,42.4437,0.007822
9.408,42.4398,0.007822
9.425,42.4359,0.007822
9.441,42.4321,0.007822
9.457,42.4287,0.007822
9.473,42.4256,0.007822
9.488,42.4226,0.007822
9.505,42.4196,0.007822
9.533,42.4151,0.007822
9.552,42.4123,0.007822
9.568,42.4102,0.007822
9.584,42.4083,0.007822
9.601,42.4066,0.007822
9.616,42.4051,0.007822
9.632,42.4039,0.007822
9.649,42.4026,0.007822
9.664,42.4018,0.007822
9.688,42.4008,0.007945
9.704,42.4003,0.007945
9.720,42.4000,0.007945
9.736,42.4000,0.007945
9.753,42.4000,0.007945
9.768,42.4000,0.007945
9.784,42.4000,0.007945
9.800,42.4000,0.007945
9.817,42.4000,0.007945
9.832,42.4000,0.007945
9.848,42.4000,0.007945
9.864,42.4000,0.007945
9.881,42.4000,0.007945
9.897,42.4000,0.007945
9.916,42.4000,0.008058
9.932,42.4000,0.008058
9.948,42.4000,0.008058
9.979,42.4000,0.008058
9.994,42.4000,0.008058
10.025,42.4000,0.008058
10.040,42.4000,0.008058
10.056,42.4000,0.008058
10.072,42.4000,0.008058
10.088,42.4000,0.008058
10.105,42.4000,0.008058
10.120,42.4000,0.008058
10.136,42.4000,0.008058
10.152,42.4000,0.008124
10.168,42.4000,0.008124
10.184,42.4000,0.008124
10.200,42.4000,0.008124
10.216,42.4000,0.008124
10.240,42.4000,0.008124
10.256,42.4000,0.008124
10.272,42.4004,0.008124
10.288,42.4008,0.008124
10.304,42.4014,0.008124
10.320,42.4022,0.008124
10.336,42.4032,0.008124
10.352,42.4045,0.008124
10.368,42.4058,0.008124
10.384,42.4075,0.008124
10.400,42.4093,0.008133
10.416,42.4112,0.008133
10.433,42.4137,0.008133
10.455,42.4170,0.008133
10.471,42.4197,0.008133
10.487,42.4223,0.008133
10.517,42.4284,0.008133
10.533,42.4319,0.008133
10.563,42.4387,0.008133
10.579,42.4426,0.008133
10.609,42.4507,0.008133
10.632,42.4571,0.008133
10.655,42.4641,0.008029
10.672,42.4696,0.008029
10.696,42.4773,0.008029
10.717,42.4850,0.008029
10.737,42.4920,0.008029
10.765,42.5027,0.008029
10.784,42.5103,0.008029
10.800,42.5173,0.008029
10.816,42.5238,0.008029
10.832,42.5310,0.008029
10.849,42.5389,0.008029
10.873,42.5497,0.008029
10.903,42.5647,0.007992
10.934,42.5805,0.007992
10.965,42.5967,0.007992
10.981,42.6058,0.007992
11.011,42.6233,0.007992
11.027,42.6323,0.007992
11.042,42.6417,0.007992
11.059,42.6514,0.007992
11.074,42.6616,0.007992
11.090,42.6710,0.007992
11.106,42.6813,0.007992
11.136,42.7018,0.007719
11.155,42.7148,0.007719
11.183,42.7336,0.007719
11.199,42.7459,0.007719
11.217,42.7582,0.007719
11.232,42.7699,0.007719
11.248,42.7819,0.007719
11.264,42.7938,0.007719
11.279,42.8063,0.007719
11.295,42.8188,0.007719
11.312,42.8320,0.007719
11.338,42.8530,0.007719
11.354,42.8670,0.007719
11.369,42.8796,0.007719
11.385,42.8935,0.007540
11.403,42.9088,0.007540
11.418,42.9220,0.007540
11.433,42.9355,0.007540
11.449,42.9502,0.007540
11.468,42.9671,0.007540
11.492,42.9904,0.007540
11.513,43.0101,0.007540
11.530,43.0263,0.007540
11.546,43.0416,0.007540
11.562,43.0580,0.007540
11.577,43.0732,0.007540
11.594,43.0903,0.007540
11.613,43.1107,0.007540
11.633,43.1311,0.007540
11.664,43.1634,0.007361
11.680,43.1809,0.007361
11.710,43.2149,0.007361
11.727,43.2323,0.007361
11.758,43.2679,0.007361
11.788,43.3032,0.007361
11.803,43.3199,0.007361
11.819,43.3391,0.007361
11.850,43.3765,0.007361
11.865,43.3951,0.007361
11.894,43.4314,0.006900
11.911,43.4519,0.006900
11.927,43.4722,0.006900
11.942,43.4919,0.006900
11.959,43.5131,0.006900
11.974,43.5338,0.006900
11.991,43.5548,0.006900
12.007,43.5772,0.006900
12.025,43.6007,0.006900
12.049,43.6339,0.006900
12.070,43.6626,0.006900
12.087,43.6866,0.006900
12.103,43.7085,0.006900
12.119,43.7302,0.006900
12.134,43.7532,0.006580
12.150,43.7759,0.006580
12.167,43.7991,0.006580
12.183,43.8227,0.006580
12.199,43.8463,0.006580
12.214,43.8694,0.006580
12.230,43.8935,0.006580
12.246,43.9176,0.006580
12.262,43.9420,0.006580
12.279,43.9671,0.006580
12.294,43.9911,0.006580
12.310,44.0164,0.006580
12.327,44.0425,0.006580
12.343,44.0675,0.006580
12.358,44.0921,0.006580
12.376,44.1211,0.006580
12.406,44.1700,0.006580
12.435,44.2181,0.006260
12.451,44.2449,0.006260
12.467,44.2710,0.006260
12.483,44.2978,0.006260
12.507,44.3396,0.006260
12.530,44.3782,0.006260
12.548,44.4094,0.006260
12.563,44.4364,0.006260
12.579,44.4639,0.006260
12.595,44.4943,0.006260
12.611,44.5216,0.006260
12.627,44.5507,0.006260
12.643,44.5795,0.006260
12.659,44.6085,0.005846
12.676,44.6400,0.005846
12.701,44.6854,0.005846
12.716,44.7150,0.005846
12.747,44.7731,0.005846
12.778,44.8320,0.005846
12.809,44.8903,0.005846
12.824,44.9197,0.005846
12.839,44.9508,0.005846
12.854,44.9795,0.005846
12.870,45.0106,0.005846
12.885,45.0421,0.005846
12.901,45.0747,0.005328
12.917,45.1060,0.005328
12.934,45.1407,0.005328
12.964,45.2012,0.005328
12.994,45.2632,0.005328
13.009,45.2942,0.005328
13.025,45.3288,0.005328
13.041,45.3622,0.005328
13.058,45.3985,0.005328
13.087,45.4600,0.005328
13.105,45.4966,0.005328
13.127,45.5456,0.005328
13.150,45.5904,0.005328
13.169,45.6296,0.004895
13.185,45.6620,0.004895
13.201,45.6942,0.004895
13.217,45.7264,0.004895
13.233,45.7592,0.004895
13.249,45.7921,0.004895
13.265,45.8219,0.004895
13.281,45.8534,0.004895
13.297,45.8856,0.004895
13.313,45.9160,0.004895
13.329,45.9468,0.004895
13.345,45.9780,0.004895
13.362,46.0106,0.004895
13.377,46.0399,0.004895
13.393,46.0692,0.004622
13.409,46.0994,0.004622
13.425,46.1288,0.004622
13.441,46.1579,0.004622
13.458,46.1897,0.004622
13.473,46.2167,0.004622
13.490,46.2487,0.004622
13.506,46.2757,0.004622
13.534,46.3271,0.004622
13.553,46.3602,0.004622
13.569,46.3879,0.004622
13.585,46.4164,0.004622
13.601,46.4432,0.004622
13.617,46.4715,0.004622
13.633,46.4979,0.004622
13.649,46.5254,0.004471
13.665,46.5534,0.004471
13.681,46.5790,0.004471
13.697,46.6053,0.004471
13.713,46.6321,0.004471
13.729,46.6571,0.004471
13.745,46.6852,0.004471
13.764,46.7152,0.004471
13.784,46.7462,0.004471
13.814,46.7923,0.004471
13.844,46.8414,0.004471
13.861,46.8663,0.004471
13.891,46.9110,0.004057
13.907,46.9359,0.004057
13.924,46.9602,0.004057
13.954,47.0040,0.004057
13.970,47.0268,0.004057
13.985,47.0489,0.004057
14.001,47.0719,0.004057
14.016,47.0933,0.004057
14.033,47.1163,0.004057
14.049,47.1383,0.004057
14.073,47.1721,0.004057
14.092,47.1980,0.004057
14.109,47.2201,0.004057
14.139,47.2606,0.004057
14.169,47.2986,0.003643
14.200,47.3386,0.003643
14.230,47.3765,0.003643
14.246,47.3972,0.003643
14.275,47.4321,0.003643
14.293,47.4537,0.003643
14.311,47.4756,0.003643
14.337,47.5067,0.003643
14.358,47.5293,0.003643
14.374,47.5474,0.003643
14.390,47.5661,0.003643
14.405,47.5833,0.003426
14.421,47.6007,0.003426
14.438,47.6193,0.003426
14.454,47.6365,0.003426
14.475,47.6585,0.003426
14.491,47.6756,0.003426
14.521,47.7076,0.003426
14.552,47.7377,0.003426
14.582,47.7679,0.003426
14.610,47.7954,0.003426
14.627,47.8110,0.003426
14.642,47.8253,0.003295
14.659,47.8410,0.003295
14.675,47.8557,0.003295
14.691,47.8697,0.003295
14.706,47.8835,0.003295
14.722,47.8977,0.003295
14.739,47.9120,0.003295
14.755,47.9254,0.003295
14.775,47.9425,0.003295
14.798,47.9618,0.003295
14.818,47.9776,0.003295
14.834,47.9905,0.003295
14.850,48.0029,0.003295
14.867,48.0158,0.003295
14.883,48.0277,0.003295
14.898,48.0394,0.003182
14.914,48.0509,0.003182
14.931,48.0628,0.003182
14.946,48.0741,0.003182
14.962,48.0849,0.003182
14.978,48.0960,0.003182
14.995,48.1071,0.003182
15.010,48.1171,0.003182
15.026,48.1275,0.003182
15.042,48.1377,0.003182
15.058,48.1476,0.003182
15.074,48.1578,0.003182
15.091,48.1675,0.003182
15.106,48.1765,0.003182
15.122,48.1857,0.003182
15.138,48.1948,0.003182
15.165,48.2098,0.002739
15.181,48.2183,0.002739
15.197,48.2264,0.002739
15.213,48.2346,0.002739
15.231,48.2433,0.002739
15.261,48.2573,0.002739
15.277,48.2648,0.002739
15.294,48.2723,0.002739
15.309,48.2791,0.002739
15.325,48.2857,0.002739
15.342,48.2927,0.002739
15.362,48.3011,0.002739
15.378,48.3069,0.002739
15.401,48.3151,0.001892
15.421,48.3224,0.001892
15.437,48.3277,0.001892
15.453,48.3327,0.001892
15.469,48.3378,0.001892
15.485,48.3428,0.001892
15.501,48.3472,0.001892
15.517,48.3515,0.001892
15.533,48.3559,0.001892
15.549,48.3600,0.001892
15.565,48.3637,0.001892
15.581,48.3674,0.001892
15.597,48.3709,0.001892
15.615,48.3747,0.001892
15.633,48.3781,0.001892
15.664,48.3833,0.000226
15.688,48.3869,0.000226
15.704,48.3891,0.000226
15.720,48.3910,0.000226
15.736,48.3928,0.000226
15.752,48.3943,0.000226
15.768,48.3957,0.000226
15.784,48.3969,0.000226
15.800,48.3979,0.000226
15.816,48.3988,0.000226
15.832,48.3993,0.000226
15.848,48.3998,0.000226
15.864,48.4000,0.000226
15.880,48.4000,-0.001440
15.896,48.4000,-0.001440
15.914,48.4000,-0.001440
15.943,48.4000,-0.001440
15.960,48.4000,-0.001440
15.976,48.4000,-0.001440
15.992,48.4000,-0.001440
16.008,48.4000,-0.001440
16.024,48.4000,-0.001440
16.040,48.4000,-0.001440
16.056,48.4000,-0.001440
16.072,48.4000,-0.001440
16.088,48.4000,-0.001440
16.105,48.4000,-0.001440
16.129,48.4000,-0.001440
16.159,48.4000,-0.000904
16.190,48.4000,-0.000904
16.205,48.4000,-0.000904
16.226,48.4000,-0.000904
16.242,48.4000,-0.000904
16.258,48.4000,-0.000904
16.274,48.4000,-0.000904
16.290,48.4000,-0.000904
16.306,48.4000,-0.000904
16.322,48.4000,-0.000904
16.338,48.4000,-0.000904
16.354,48.4000,-0.000904
16.370,48.4000,-0.000904
16.385,48.4000,0.000687
16.402,48.4000,0.000687
16.418,48.4000,0.000687
16.434,48.4000,0.000687
16.450,48.4000,0.000687
16.466,48.4000,0.000687
16.482,48.4000,0.000687
16.498,48.4000,0.000687
16.514,48.4000,0.000687
16.530,48.4000,0.000687
16.546,48.4000,0.000687
16.562,48.4000,0.000687
16.578,48.4000,0.000687
16.595,48.4000,0.000687
16.614,48.4000,0.000687
16.638,48.4000,0.001431
16.658,48.4000,0.001431
16.674,48.4000,0.001431
16.690,48.4000,0.001431
16.706,48.4000,0.001431
16.722,48.4000,0.001431
16.737,48.4000,0.001431
16.753,48.4000,0.001431
16.776,48.4000,0.001431
16.792,48.4000,0.001431
16.809,48.4000,0.001431
16.824,48.4000,0.001431
16.841,48.4000,0.001431
16.857,48.4000,0.001431
16.885,48.4000,0.001817
16.905,48.4000,0.001817
16.920,48.4000,0.001817
16.937,48.4000,0.001817
16.952,48.4000,0.001817
16.969,48.4000,0.001817
16.984,48.4000,0.001817
17.000,48.4000,0.001817
17.017,48.4000,0.001817
17.034,48.4000,0.001817
17.056,48.4000,0.001817
17.086,48.4000,0.001817
17.102,48.4000,0.001817
17.118,48.4000,0.001817
17.149,48.4000,0.002005
17.166,48.4000,0.002005
17.197,48.4000,0.002005
17.228,48.4000,0.002005
17.259,48.4000,0.002005
17.290,48.4000,0.002005
17.320,48.4000,0.002005
17.337,48.4000,0.002005
17.366,48.4000,0.002005
17.384,48.4000,0.002005
17.399,48.4000,0.002005
17.416,48.4000,0.002109
17.431,48.4000,0.002109
17.447,48.4000,0.002109
17.464,48.4000,0.002109
17.479,48.4000,0.002109
17.495,48.4000,0.002109
17.512,48.4000,0.002109
17.528,48.4000,0.002109
17.543,48.4000,0.002109
17.559,48.4000,0.002109
17.575,48.4000,0.002109
17.591,48.4000,0.002109
17.607,48.4000,0.002109
17.623,48.4000,0.002109
17.639,48.4000,0.002109
17.656,48.4000,0.002306
17.674,48.4000,0.002306
17.705,48.4000,0.002306
17.736,48.4000,0.002306
17.752,48.4000,0.002306
17.767,48.4000,0.002306
17.783,48.4000,0.002306
17.799,48.4000,0.002306
17.816,48.4000,0.002306
17.832,48.4000,0.002306
17.848,48.4000,0.002306
17.875,48.4000,0.002306
17.891,48.4000,0.002306
17.907,48.4000,0.002447
17.922,48.4000,0.002447
17.941,48.4000,0.002447
17.967,48.4000,0.002447
17.986,48.4000,0.002447
18.003,48.4000,0.002447
18.019,48.4000,0.002447
18.035,48.4000,0.002447
18.051,48.4000,0.002447
18.066,48.4000,0.002447
18.083,48.4000,0.002447
18.098,48.4000,0.002447
18.114,48.4000,0.002447
18.130,48.4000,0.002447
18.146,48.4000,0.002447
18.162,48.4000,0.002560
18.178,48.4000,0.002560
18.194,48.4000,0.002560
18.210,48.4000,0.002560
18.226,48.4000,0.002560
18.242,48.4000,0.002560
18.258,48.4000,0.002560
18.274,48.4000,0.002560
18.290,48.4000,0.002560
18.306,48.4000,0.002560
18.322,48.4000,0.002560
18.338,48.4000,0.002560
18.355,48.4000,0.002560
18.370,48.4000,0.002560
18.386,48.4000,0.002560
18.402,48.4000,0.002560
18.433,48.4000,0.002589
18.449,48.4000,0.002589
18.465,48.4000,0.002589
18.481,48.4000,0.002589
18.497,48.4000,0.002589
18.513,48.4000,0.002589
18.529,48.4000,0.002589
18.545,48.4000,0.002589
18.562,48.4000,0.002589
18.589,48.4000,0.002589
18.609,48.4000,0.002589
18.625,48.4000,0.002589
18.641,48.4000,0.002589
18.657,48.4000,0.002513
18.673,48.4000,0.002513
18.689,48.4000,0.002513
18.705,48.4000,0.002513
18.721,48.4000,0.002513
18.737,48.4000,0.002513
18.753,48.4000,0.002513
18.769,48.4000,0.002513
18.785,48.4000,0.002513
18.801,48.4000,0.002513
18.817,48.4000,0.002513
18.833,48.4000,0.002513
18.849,48.4000,0.002513
18.865,48.4000,0.002513
18.881,48.4000,0.002513
18.897,48.4000,0.002542
18.913,48.4000,0.002542
18.928,48.4000,0.002542
18.945,48.4000,0.002542
18.961,48.4000,0.002542
18.989,48.4000,0.002542
19.005,48.4000,0.002542
19.021,48.4000,0.002542
19.037,48.4000,0.002542
19.053,48.4000,0.002542
19.069,48.4000,0.002542
19.085,48.4000,0.002542
19.101,48.4000,0.002542
19.117,48.4000,0.002542
19.133,48.4000,0.002513
19.149,48.4000,0.002513
19.169,48.4000,0.002513
19.195,48.4000,0.002513
19.213,48.4000,0.002513
19.229,48.4000,0.002513
19.245,48.4000,0.002513
19.261,48.4000,0.002513
19.277,48.4000,0.002513
19.293,48.4000,0.002513
19.309,48.4000,0.002513
19.325,48.4000,0.002513
19.341,48.4000,0.002513
19.358,48.4000,0.002513
19.373,48.4000,0.002598
19.389,48.4000,0.002598
19.405,48.4000,0.002598
19.421,48.4000,0.002598
19.437,48.4000,0.002598
19.453,48.4000,0.002598
19.469,48.4000,0.002598
19.485,48.4000,0.002598
19.501,48.4000,0.002598
19.531,48.4000,0.002598
19.548,48.4000,0.002598
19.564,48.4000,0.002598
19.580,48.4000,0.002598
19.597,48.4000,0.002598
19.626,48.4000,0.002523
19.643,48.4000,0.002523
19.661,48.4000,0.002523
19.676,48.4000,0.002523
19.692,48.4000,0.002523
19.708,48.4000,0.002523
19.725,48.4000,0.002523
19.747,48.4000,0.002523
19.763,48.4000,0.002523
19.796,48.4000,0.002523
19.825,48.4000,0.002523
19.842,48.4000,0.002523
19.872,48.4000,0.002523
19.888,48.4000,0.002127
19.919,48.4000,0.002127
19.934,48.4000,0.002127
19.950,48.4000,0.002127
19.966,48.4000,0.002127
19.996,48.4000,0.002127
20.012,48.4000,0.002127
20.028,48.4000,0.002127
20.044,48.4000,0.002127
20.059,48.4000,0.002127
20.089,48.4000,0.002127
20.115,48.4000,0.002127
20.135,48.4000,0.001732
20.153,48.4000,0.001732
20.168,48.3999,0.001732
20.184,48.3997,0.001732
20.201,48.3992,0.001732
20.217,48.3985,0.001732
20.233,48.3977,0.001732
20.248,48.3967,0.001732
20.264,48.3954,0.001732
20.281,48.3939,0.001732
20.298,48.3922,0.001732
20.313,48.3905,0.001732
20.329,48.3885,0.001732
20.345,48.3861,0.001732
20.360,48.3839,0.001732
20.376,48.3813,0.001873
20.392,48.3786,0.001873
20.409,48.3755,0.001873
20.425,48.3722,0.001873
20.440,48.3689,0.001873
20.457,48.3653,0.001873
20.473,48.3616,0.001873
20.488,48.3577,0.001873
20.505,48.3535,0.001873
20.520,48.3493,0.001873
20.536,48.3447,0.001873
20.553,48.3399,0.001873
20.568,48.3349,0.001873
20.588,48.3288,0.001873
20.615,48.3194,0.001873
20.647,48.3077,0.008924
20.664,48.3017,0.008924
20.679,48.2956,0.008924
20.695,48.2891,0.008924
20.716,48.2797,0.008924
20.739,48.2702,0.008924
20.759,48.2614,0.008924
20.776,48.2537,0.008924
20.791,48.2464,0.008924
20.807,48.2385,0.008924
20.823,48.2302,0.008924
20.840,48.2219,0.008924
20.856,48.2135,0.008924
20.871,48.2053,0.008924
20.887,48.1960,0.016370
20.903,48.1873,0.016370
20.919,48.1784,0.016370
20.935,48.1691,0.016370
20.956,48.1563,0.016370
20.972,48.1464,0.016370
20.989,48.1365,0.016370
21.019,48.1169,0.016370
21.050,48.0960,0.016370
21.080,48.0752,0.016370
21.096,48.0638,0.016370
21.127,48.0415,0.016370
21.143,48.0298,0.016370
21.159,48.0175,0.016370
21.187,47.9955,0.013950
21.203,47.9833,0.013950
21.219,47.9707,0.013950
21.235,47.9573,0.013950
21.252,47.9434,0.013950
21.282,47.9183,0.013950
21.299,47.9037,0.013950
21.317,47.8884,0.013950
21.344,47.8632,0.013950
21.363,47.8464,0.013950
21.381,47.8300,0.013950
21.406,47.8061,0.013291
21.427,47.7865,0.013291
21.443,47.7705,0.013291
21.459,47.7546,0.013291
21.475,47.7393,0.013291
21.491,47.7229,0.013291
21.508,47.7066,0.013291
21.523,47.6906,0.013291
21.539,47.6740,0.013291
21.555,47.6570,0.013291
21.571,47.6400,0.013291
21.587,47.6228,0.013291
21.603,47.6053,0.013291
21.619,47.5872,0.013291
21.635,47.5692,0.013291
21.651,47.5511,0.009573
21.667,47.5331,0.009573
21.683,47.5144,0.009573
21.699,47.4964,0.009573
21.715,47.4775,0.009573
21.744,47.4427,0.009573
21.760,47.4238,0.009573
21.775,47.4052,0.009573
21.791,47.3850,0.009573
21.808,47.3642,0.009573
21.838,47.3261,0.009573
21.855,47.3045,0.009573
21.871,47.2833,0.009573
21.887,47.2631,0.009573
21.903,47.2414,0.003464
21.919,47.2211,0.003464
21.935,47.1989,0.003464
21.951,47.1769,0.003464
21.967,47.1562,0.003464
21.983,47.1334,0.003464
21.999,47.1109,0.003464
22.015,47.0893,0.003464
22.031,47.0669,0.003464
22.047,47.0438,0.003464
22.063,47.0201,0.003464
22.079,46.9976,0.003464
22.095,46.9735,0.003464
22.111,46.9501,0.003464
22.127,46.9263,0.003464
22.143,46.9027,0.003596
22.159,46.8781,0.003596
22.175,46.8542,0.003596
22.191,46.8290,0.003596
22.207,46.8047,0.003596
22.223,46.7798,0.003596
22.240,46.7535,0.003596
22.255,46.7284,0.003596
22.271,46.7041,0.003596
22.299,46.6584,0.003596
22.315,46.6318,0.003596
22.331,46.6061,0.003596
22.347,46.5799,0.003596
22.364,46.5512,0.003596
22.393,46.5027,0.003859
22.411,46.4717,0.003859
22.428,46.4421,0.003859
22.443,46.4170,0.003859
22.459,46.3894,0.003859
22.475,46.3607,0.003859
22.491,46.3326,0.003859
22.507,46.3029,0.003859
22.523,46.2756,0.003859
22.539,46.2476,0.003859
22.555,46.2178,0.003859
22.571,46.1881,0.003859
22.587,46.1604,0.003859
22.603,46.1305,0.003859
22.619,46.0996,0.003859
22.635,46.0696,0.004114
22.651,46.0408,0.004114
22.667,46.0105,0.004114
22.683,45.9790,0.004114
22.698,45.9491,0.004114
22.715,45.9173,0.004114
22.731,45.8864,0.004114
22.747,45.8553,0.004114
22.763,45.8234,0.004114
22.779,45.7927,0.004114
22.795,45.7582,0.004114
22.811,45.7273,0.004114
22.826,45.6961,0.004114
22.856,45.6369,0.004114
22.871,45.6055,0.004114
22.887,45.5735,0.004452
22.904,45.5376,0.004452
22.926,45.4902,0.004452
22.951,45.4396,0.004452
22.966,45.4060,0.004452
22.983,45.3714,0.004452
22.998,45.3373,0.004452
23.014,45.3038,0.004452
23.030,45.2700,0.004452
23.047,45.2348,0.004452
23.063,45.2017,0.004452
23.078,45.1702,0.004452
23.095,45.1354,0.004452
23.111,45.1032,0.004452
23.126,45.0711,0.004782
23.142,45.0397,0.004782
23.159,45.0064,0.004782
23.175,44.9738,0.004782
23.190,44.9435,0.004782
23.207,44.9100,0.004782
23.222,44.8805,0.004782
23.238,44.8491,0.004782
23.255,44.8169,0.004782
23.271,44.7865,0.004782
23.287,44.7551,0.004782
23.302,44.7260,0.004782
23.319,44.6956,0.004782
23.334,44.6660,0.004782
23.351,44.6345,0.004782
23.367,44.6054,0.004782
23.382,44.5766,0.004782
23.413,44.5217,0.005074
23.429,44.4923,0.005074
23.444,44.4646,0.005074
23.460,44.4361,0.005074
23.477,44.4060,0.005074
23.492,44.3798,0.005074
23.508,44.3516,0.005074
23.525,44.3234,0.005074
23.541,44.2950,0.005074
23.557,44.2674,0.005074
23.572,44.2421,0.005074
23.589,44.2144,0.005074
23.604,44.1874,0.005074
23.620,44.1618,0.005074
23.637,44.1344,0.005507
23.652,44.1091,0.005507
23.669,44.0820,0.005507
23.685,44.0567,0.005507
23.700,44.0315,0.005507
23.717,44.0041,0.005507
23.739,43.9694,0.005507
23.764,43.9300,0.005507
23.781,43.9053,0.005507
23.797,43.8810,0.005507
23.813,43.8574,0.005507
23.828,43.8334,0.005507
23.845,43.8090,0.005507
23.860,43.7857,0.005507
23.876,43.7620,0.005930
23.893,43.7371,0.005930
23.909,43.7155,0.005930
23.925,43.6920,0.005930
23.940,43.6703,0.005930
23.964,43.6368,0.005930
23.981,43.6132,0.005930
24.010,43.5733,0.005930
24.031,43.5450,0.005930
24.056,43.5110,0.005930
24.076,43.4853,0.005930
24.093,43.4639,0.005930
24.109,43.4429,0.005930
24.125,43.4222,0.006363
24.141,43.4022,0.006363
24.156,43.3815,0.006363
24.172,43.3632,0.006363
24.188,43.3433,0.006363
24.204,43.3237,0.006363
24.220,43.3046,0.006363
24.236,43.2854,0.006363
24.252,43.2658,0.006363
24.268,43.2476,0.006363
24.284,43.2290,0.006363
24.300,43.2109,0.006363
24.316,43.1919,0.006363
24.332,43.1743,0.006363
24.348,43.1567,0.006363
24.364,43.1393,0.006363
24.380,43.1216,0.006363
24.396,43.1047,0.006363
24.412,43.0877,0.006730
24.428,43.0710,0.006730
24.445,43.0531,0.006730
24.472,43.0245,0.006730
24.502,42.9951,0.006730
24.518,42.9803,0.006730
24.533,42.9651,0.006730
24.549,42.9502,0.006730
24.565,42.9346,0.006730
24.581,42.9200,0.006730
24.597,42.9053,0.006730
24.614,42.8895,0.006730
24.642,42.8641,0.006730
24.661,42.8479,0.007098
24.677,42.8337,0.007098
24.693,42.8200,0.007098
24.709,42.8068,0.007098
24.725,42.7940,0.007098
24.741,42.7808,0.007098
24.757,42.7679,0.007098
24.773,42.7551,0.007098
24.789,42.7433,0.007098
24.806,42.7298,0.007098
24.822,42.7184,0.007098
24.837,42.7072,0.007098
24.853,42.6954,0.007098
24.870,42.6830,0.007098
24.888,42.6700,0.007098
24.904,42.6590,0.007352
24.920,42.6487,0.007352
24.951,42.6275,0.007352
24.981,42.6085,0.007352
24.998,42.5987,0.007352
25.013,42.5889,0.007352
25.029,42.5800,0.007352
25.056,42.5634,0.007352
25.073,42.5545,0.007352
25.089,42.5459,0.007352
25.105,42.5371,0.007352
25.121,42.5284,0.007352
25.137,42.5206,0.007352
25.153,42.5126,0.007644
25.169,42.5046,0.007644
25.185,42.4968,0.007644
25.201,42.4897,0.007644
25.218,42.4820,0.007644
25.233,42.4753,0.007644
25.252,42.4667,0.007644
25.276,42.4573,0.007644
25.297,42.4489,0.007644
25.313,42.4428,0.007644
25.329,42.4370,0.007644
25.345,42.4314,0.007644
25.361,42.4257,0.007644
25.377,42.4202,0.007644
25.393,42.4153,0.007644
25.409,42.4104,0.007888
25.425,42.4057,0.007888
25.441,42.4010,0.007888
25.457,42.3968,0.007888
25.473,42.3926,0.007888
25.490,42.3884,0.007888
25.505,42.3848,0.007888
25.521,42.3813,0.007888
25.537,42.3779,0.007888
25.553,42.3746,0.007888
25.569,42.3717,0.007888
25.585,42.3689,0.007888
25.613,42.3644,0.007888
25.629,42.3622,0.007888
25.645,42.3602,0.007945
25.661,42.3582,0.007945
25.684,42.3559,0.007945
25.706,42.3539,0.007945
25.725,42.3526,0.007945
25.742,42.3518,0.007945
25.768,42.3507,0.007945
25.789,42.3502,0.007945
25.805,42.3500,0.007945
25.822,42.3500,0.007945
25.844,42.3500,0.007945
25.875,42.3500,0.007945
25.905,42.3500,0.008077
25.936,42.3500,0.008077
25.952,42.3500,0.008077
25.968,42.3500,0.008077
25.983,42.3500,0.008077
25.999,42.3500,0.008077
26.015,42.3500,0.008077
26.046,42.3500,0.008077
26.066,42.3500,0.008077
26.094,42.3500,0.008077
26.124,42.3500,0.008077
26.140,42.3500,0.008077
26.156,42.3500,0.008246
26.172,42.3500,0.008246
26.189,42.3500,0.008246
26.205,42.3500,0.008246
26.221,42.3500,0.008246
26.237,42.3500,0.008246
26.253,42.3500,0.008246
26.269,42.3500,0.008246
26.285,42.3500,0.008246
26.300,42.3500,0.008246
26.317,42.3500,0.008246
26.333,42.3500,0.008246
26.348,42.3500,0.008246
26.364,42.3503,0.008246
26.380,42.3508,0.008284
26.397,42.3514,0.008284
26.419,42.3526,0.008284
26.450,42.3549,0.008284
26.465,42.3562,0.008284
26.481,42.3580,0.008284
26.496,42.3597,0.008284
26.512,42.3617,0.008284
26.543,42.3662,0.008284
26.558,42.3685,0.008284
26.589,42.3741,0.008284
26.604,42.3771,0.008284
26.620,42.3804,0.008284
26.637,42.3841,0.008284
26.659,42.3892,0.008284
26.675,42.3933,0.008284
26.690,42.3974,0.008152
26.706,42.4016,0.008152
26.722,42.4062,0.008152
26.738,42.4109,0.008152
26.755,42.4161,0.008152
26.771,42.4212,0.008152
26.787,42.4268,0.008152
26.802,42.4321,0.008152
26.819,42.4378,0.008152
26.835,42.4443,0.008152
26.850,42.4499,0.008152
26.866,42.4561,0.008152
26.882,42.4625,0.008001
26.899,42.4696,0.008001
26.914,42.4762,0.008001
26.930,42.4832,0.008001
26.948,42.4917,0.008001
26.974,42.5037,0.008001
26.994,42.5136,0.008001
27.014,42.5238,0.008001
27.036,42.5352,0.008001
27.066,42.5514,0.008001
27.097,42.5689,0.008001
27.128,42.5870,0.008001
27.159,42.6058,0.008001
27.189,42.6249,0.007926
27.220,42.6451,0.007926
27.236,42.6558,0.007926
27.266,42.6770,0.007926
27.282,42.6884,0.007926
27.298,42.6997,0.007926
27.317,42.7143,0.007926
27.343,42.7331,0.007926
27.362,42.7478,0.007926
27.380,42.7618,0.007926
27.404,42.7813,0.007926
27.435,42.8068,0.007766
27.451,42.8198,0.007766
27.467,42.8330,0.007766
27.497,42.8592,0.007766
27.512,42.8733,0.007766
27.543,42.9006,0.007766
27.576,42.9313,0.007766
27.604,42.9576,0.007766
27.619,42.9720,0.007766
27.650,43.0033,0.007427
27.666,43.0188,0.007427
27.682,43.0350,0.007427
27.698,43.0510,0.007427
27.714,43.0680,0.007427
27.740,43.0950,0.007427
27.756,43.1124,0.007427
27.772,43.1294,0.007427
27.788,43.1469,0.007427
27.806,43.1669,0.007427
27.835,43.2002,0.007427
27.852,43.2184,0.007427
27.870,43.2411,0.007427
27.885,43.2583,0.007427
27.912,43.2900,0.007060
27.932,43.3133,0.007060
27.948,43.3327,0.007060
27.965,43.3530,0.007060
27.989,43.3834,0.007060
28.005,43.4031,0.007060
28.035,43.4416,0.007060
28.066,43.4820,0.007060
28.096,43.5216,0.007060
28.113,43.5449,0.007060
28.143,43.5847,0.006740
28.174,43.6276,0.006740
28.190,43.6510,0.006740
28.221,43.6938,0.006740
28.238,43.7175,0.006740
28.266,43.7602,0.006740
28.293,43.7991,0.006740
28.310,43.8231,0.006740
28.326,43.8475,0.006740
28.342,43.8719,0.006740
28.358,43.8966,0.006740
28.374,43.9208,0.006740
28.390,43.9453,0.006392
28.413,43.9812,0.006392
28.435,44.0174,0.006392
28.454,44.0469,0.006392
28.470,44.0715,0.006392
28.487,44.0995,0.006392
28.512,44.1419,0.006392
28.534,44.1771,0.006392
28.550,44.2041,0.006392
28.565,44.2300,0.006392
28.581,44.2569,0.006392
28.598,44.2848,0.006392
28.614,44.3132,0.006392
28.629,44.3391,0.006392
28.646,44.3672,0.005996
28.662,44.3959,0.005996
28.677,44.4236,0.005996
28.694,44.4521,0.005996
28.709,44.4808,0.005996
28.726,44.5102,0.005996
28.741,44.5386,0.005996
28.757,44.5675,0.005996
28.774,44.5988,0.005996
28.792,44.6306,0.005996
28.807,44.6592,0.005996
28.837,44.7149,0.005996
28.853,44.7470,0.005996
28.870,44.7784,0.005996
28.885,44.8079,0.005554
28.901,44.8392,0.005554
28.920,44.8768,0.005554
28.944,44.9239,0.005554
28.966,44.9651,0.005554
28.983,45.0043,0.005554
29.006,45.0472,0.005554
29.037,45.1105,0.005554
29.054,45.1442,0.005554
29.083,45.2042,0.005554
29.114,45.2710,0.005554
29.129,45.3024,0.005083
29.145,45.3345,0.005083
29.176,45.4024,0.005083
29.192,45.4339,0.005083
29.208,45.4669,0.005083
29.239,45.5317,0.005083
29.269,45.5946,0.005083
29.286,45.6298,0.005083
29.316,45.6890,0.005083
29.333,45.7240,0.005083
29.349,45.7572,0.005083
29.373,45.8030,0.005083
29.389,45.8331,0.005083
29.405,45.8642,0.004772
29.421,45.8950,0.004772
29.436,45.9251,0.004772
29.452,45.9551,0.004772
29.468,45.9860,0.004772
29.484,46.0158,0.004772
29.501,46.0466,0.004772
29.516,46.0759,0.004772
29.534,46.1078,0.004772
29.563,46.1618,0.004772
29.580,46.1924,0.004772
29.597,46.2229,0.004772
29.613,46.2509,0.004772
29.628,46.2785,0.004565
29.644,46.3069,0.004565
29.661,46.3360,0.004565
29.676,46.3624,0.004565
29.693,46.3917,0.004565
29.709,46.4200,0.004565
29.725,46.4465,0.004565
29.741,46.4729,0.004565
29.757,46.5001,0.004565
29.781,46.5407,0.004565
29.812,46.5909,0.004565
29.827,46.6176,0.004565
29.846,46.6474,0.004565
29.876,46.6951,0.004565
29.905,46.7408,0.004565
29.931,46.7804,0.004189
29.948,46.8059,0.004189
29.966,46.8327,0.004189
29.997,46.8805,0.004189
30.020,46.9163,0.004189
30.043,46.9489,0.004189
30.059,46.9733,0.004189
30.076,46.9973,0.004189
30.105,47.0369,0.004189
30.123,47.0639,0.004189
30.139,47.0843,0.004189
30.156,47.1086,0.003756
30.171,47.1289,0.003756
30.187,47.1506,0.003756
30.203,47.1714,0.003756
30.219,47.1932,0.003756
30.235,47.2142,0.003756
30.251,47.2356,0.003756
30.268,47.2564,0.003756
30.292,47.2884,0.003756
30.322,47.3250,0.003756
30.352,47.3634,0.003756
30.369,47.3823,0.003756
30.385,47.4019,0.003756
30.415,47.4381,0.003473
30.430,47.4556,0.003473
30.454,47.4831,0.003473
30.470,47.5013,0.003473
30.486,47.5197,0.003473
30.502,47.5377,0.003473
30.518,47.5554,0.003473
30.534,47.5723,0.003473
30.550,47.5895,0.003473
30.566,47.6069,0.003473
30.582,47.6230,0.003473
30.598,47.6398,0.003473
30.615,47.6577,0.003473
30.631,47.6740,0.003473
30.647,47.6905,0.003323
30.678,47.7205,0.003323
30.694,47.7362,0.003323
30.710,47.7510,0.003323
30.726,47.7666,0.003323
30.742,47.7820,0.003323
30.758,47.7963,0.003323
30.774,47.8104,0.003323
30.791,47.8263,0.003323
30.811,47.8441,0.003323
30.833,47.8631,0.003323
30.854,47.8804,0.003323
30.870,47.8941,0.003323
30.886,47.9069,0.003323
30.902,47.9198,0.003153
30.918,47.9327,0.003153
30.935,47.9466,0.003153
30.956,47.9628,0.003153
30.972,47.9752,0.003153
30.993,47.9909,0.003153
31.018,48.0089,0.003153
31.049,48.0311,0.003153
31.065,48.0417,0.003153
31.096,48.0623,0.003153
31.111,48.0730,0.003153
31.142,48.0921,0.002862
31.158,48.1020,0.002862
31.190,48.1211,0.002862
31.220,48.1385,0.002862
31.236,48.1479,0.002862
31.267,48.1646,0.002862
31.283,48.1726,0.002862
31.299,48.1809,0.002862
31.314,48.1884,0.002862
31.345,48.2031,0.002862
31.376,48.2176,0.002862
31.392,48.2245,0.002344
31.407,48.2312,0.002344
31.431,48.2414,0.002344
31.456,48.2508,0.002344
31.471,48.2569,0.002344
31.487,48.2627,0.002344
31.504,48.2688,0.002344
31.533,48.2784,0.002344
31.551,48.2847,0.002344
31.567,48.2894,0.002344
31.584,48.2942,0.002344
31.599,48.2987,0.002344
31.619,48.3042,0.002344
31.642,48.3097,0.002344
31.673,48.3173,0.000988
31.704,48.3237,0.000988
31.720,48.3267,0.000988
31.751,48.3323,0.000988
31.782,48.3370,0.000988
31.813,48.3410,0.000988
31.844,48.3442,0.000988
31.859,48.3457,0.000988
31.875,48.3468,0.000988
31.891,48.3478,-0.001092
31.907,48.3487,-0.001092
31.923,48.3493,-0.001092
31.953,48.3499,-0.001092
31.985,48.3500,-0.001092
32.015,48.3500,-0.001092
32.031,48.3500,-0.001092
32.048,48.3500,-0.001092
32.072,48.3500,-0.001092
32.093,48.3500,-0.001092
32.123,48.3500,-0.001092
32.139,48.3500,-0.001403
32.154,48.3500,-0.001403
32.185,48.3500,-0.001403
32.201,48.3500,-0.001403
32.217,48.3500,-0.001403
32.233,48.3500,-0.001403
32.249,48.3500,-0.001403
32.280,48.3500,-0.001403
32.296,48.3500,-0.001403
32.326,48.3500,-0.001403
32.342,48.3500,-0.001403
32.358,48.3500,-0.001403
32.374,48.3500,-0.001403
32.392,48.3500,-0.001403
32.419,48.3500,0.000160
32.438,48.3500,0.000160
32.454,48.3500,0.000160
32.470,48.3500,0.000160
32.486,48.3500,0.000160
32.503,48.3500,0.000160
32.519,48.3500,0.000160
32.535,48.3500,0.000160
32.550,48.3500,0.000160
32.567,48.3500,0.000160
32.583,48.3500,0.000160
32.598,48.3500,0.000160
32.621,48.3500,0.000160
32.638,48.3500,0.000160
32.653,48.3500,0.001252
32.670,48.3500,0.001252
32.686,48.3500,0.001252
32.703,48.3500,0.001252
32.729,48.3500,0.001252
32.750,48.3500,0.001252
32.765,48.3500,0.001252
32.781,48.3500,0.001252
32.797,48.3500,0.001252
32.814,48.3500,0.001252
32.838,48.3500,0.001252
32.869,48.3500,0.001252
32.885,48.3500,0.001252
32.915,48.3500,0.001704
32.931,48.3500,0.001704
32.947,48.3500,0.001704
32.962,48.3500,0.001704
32.993,48.3500,0.001704
33.024,48.3500,0.001704
33.039,48.3500,0.001704
33.073,48.3500,0.001704
33.101,48.3500,0.001704
33.117,48.3500,0.001704
33.134,48.3500,0.001704
33.149,48.3500,0.001704
33.178,48.3500,0.002005
33.195,48.3500,0.002005
33.225,48.3500,0.002005
33.245,48.3500,0.002005
33.272,48.3500,0.002005
33.290,48.3500,0.002005
33.306,48.3500,0.002005
33.322,48.3500,0.002005
33.338,48.3500,0.002005
33.354,48.3500,0.002005
33.370,48.3500,0.002005
33.387,48.3500,0.002005
33.402,48.3500,0.002165
33.418,48.3500,0.002165
33.435,48.3500,0.002165
33.450,48.3500,0.002165
33.466,48.3500,0.002165
33.482,48.3500,0.002165
33.498,48.3500,0.002165
33.514,48.3500,0.002165
33.530,48.3500,0.002165
33.546,48.3500,0.002165
33.562,48.3500,0.002165
33.577,48.3500,0.002165
33.594,48.3500,0.002165
33.611,48.3500,0.002165
33.629,48.3500,0.002165
33.657,48.3500,0.002259
33.674,48.3500,0.002259
33.690,48.3500,0.002259
33.706,48.3500,0.002259
33.732,48.3500,0.002259
33.748,48.3500,0.002259
33.764,48.3500,0.002259
33.780,48.3500,0.002259
33.803,48.3500,0.002259
33.825,48.3500,0.002259
33.844,48.3500,0.002259
33.864,48.3500,0.002259
33.888,48.3500,0.002363
33.908,48.3500,0.002363
33.924,48.3500,0.002363
33.940,48.3500,0.002363
33.956,48.3500,0.002363
33.972,48.3500,0.002363
33.988,48.3500,0.002363
34.004,48.3500,0.002363
34.020,48.3500,0.002363
34.036,48.3500,0.002363
34.053,48.3500,0.002363
34.074,48.3500,0.002363
34.104,48.3500,0.002363
34.120,48.3500,0.002363
34.149,48.3500,0.002391
34.165,48.3500,0.002391
34.180,48.3500,0.002391
34.196,48.3500,0.002391
34.212,48.3500,0.002391
34.228,48.3500,0.002391
34.244,48.3500,0.002391
34.260,48.3500,0.002391
34.287,48.3500,0.002391
34.303,48.3500,0.002391
34.318,48.3500,0.002391
34.335,48.3500,0.002391
34.357,48.3500,0.002391
34.381,48.3500,0.002391
34.398,48.3500,0.002391
34.414,48.3500,0.002447
34.431,48.3500,0.002447
34.446,48.3500,0.002447
34.463,48.3500,0.002447
34.479,48.3500,0.002447
34.494,48.3500,0.002447
34.510,48.3500,0.002447
34.527,48.3500,0.002447
34.543,48.3500,0.002447
34.565,48.3500,0.002447
34.596,48.3500,0.002447
34.612,48.3500,0.002447
34.643,48.3500,0.002579
34.674,48.3500,0.002579
34.705,48.3500,0.002579
34.736,48.3500,0.002579
34.751,48.3500,0.002579
34.766,48.3500,0.002579
34.784,48.3500,0.002579
34.799,48.3500,0.002579
34.814,48.3500,0.002579
34.843,48.3500,0.002579
34.859,48.3500,0.002579
34.874,48.3500,0.002551
34.891,48.3500,0.002551
34.909,48.3500,0.002551
34.937,48.3500,0.002551
34.954,48.3500,0.002551
34.970,48.3500,0.002551
34.987,48.3500,0.002551
35.002,48.3500,0.002551
35.019,48.3500,0.002551
35.035,48.3500,0.002551
35.050,48.3500,0.002551
35.067,48.3500,0.002551
35.082,48.3500,0.002551
35.099,48.3500,0.002551
35.115,48.3500,0.002551
35.130,48.3500,0.002532
35.146,48.3500,0.002532
35.163,48.3500,0.002532
35.179,48.3500,0.002532
35.200,48.3500,0.002532
35.217,48.3500,0.002532
35.247,48.3500,0.002532
35.278,48.3500,0.002532
35.310,48.3500,0.002532
35.341,48.3500,0.002532
35.357,48.3500,0.002532
35.387,48.3500,0.002532
35.418,48.3500,0.002570
35.435,48.3500,0.002570
35.450,48.3500,0.002570
35.467,48.3500,0.002570
35.495,48.3500,0.002570
35.514,48.3500,0.002570
35.531,48.3500,0.002570
35.546,48.3500,0.002570
35.563,48.3500,0.002570
35.579,48.3500,0.002570
35.594,48.3500,0.002570
35.610,48.3500,0.002570
35.627,48.3500,0.002495
35.642,48.3500,0.002495
35.658,48.3500,0.002495
35.675,48.3500,0.002495
35.699,48.3500,0.002495
35.730,48.3500,0.002495
35.760,48.3500,0.002495
35.776,48.3500,0.002495
35.793,48.3500,0.002495
35.822,48.3500,0.002495
35.853,48.3500,0.002495
35.869,48.3500,0.002495
35.900,48.3500,0.002269
35.930,48.3500,0.002269
35.955,48.3500,0.002269
35.974,48.3500,0.002269
35.992,48.3500,0.002269
36.021,48.3500,0.002269
36.037,48.3500,0.002269
36.068,48.3500,0.002269
36.100,48.3500,0.002269
36.115,48.3500,0.002269
36.146,48.3500,0.001883
36.162,48.3500,0.001883
36.178,48.3500,0.001883
36.197,48.3499,0.001883
36.223,48.3494,0.001883
36.242,48.3487,0.001883
36.258,48.3479,0.001883
36.274,48.3469,0.001883
36.290,48.3457,0.001883
36.306,48.3443,0.001883
36.322,48.3427,0.001883
36.338,48.3410,0.001883
36.354,48.3391,0.001883
36.370,48.3369,0.001883
36.386,48.3344,0.001883
36.402,48.3319,0.001760
36.418,48.3293,0.001760
36.434,48.3264,0.001760
36.450,48.3231,0.001760
36.466,48.3199,0.001760
36.482,48.3163,0.001760
36.504,48.3111,0.001760
36.521,48.3070,0.001760
36.536,48.3030,0.001760
36.552,48.2987,0.001760
36.568,48.2941,0.001760
36.584,48.2893,0.001760
36.600,48.2842,0.001760
36.616,48.2793,0.001760
36.637,48.2723,0.001760
36.658,48.2647,0.007973
36.680,48.2568,0.007973
36.696,48.2505,0.007973
36.712,48.2445,0.007973
36.728,48.2379,0.007973
36.744,48.2312,0.007973
36.760,48.2243,0.007973
36.776,48.2173,0.007973
36.792,48.2099,0.007973
36.808,48.2025,0.007973
36.824,48.1950,0.007973
36.840,48.1867,0.007973
36.856,48.1786,0.007973
36.873,48.1700,0.007973
36.903,48.1537,0.015984
36.920,48.1450,0.015984
36.936,48.1359,0.015984
36.952,48.1266,0.015984
36.968,48.1174,0.015984
36.984,48.1077,0.015984
37.000,48.0973,0.015984
37.016,48.0876,0.015984
37.032,48.0777,0.015984
37.059,48.0597,0.015984
37.090,48.0391,0.015984
37.106,48.0280,0.015984
37.122,48.0167,0.015984
37.138,48.0053,0.015984
37.153,47.9937,0.014129
37.171,47.9811,0.014129
37.199,47.9600,0.014129
37.218,47.9450,0.014129
37.234,47.9320,0.014129
37.250,47.9194,0.014129
37.266,47.9065,0.014129
37.282,47.8930,0.014129
37.298,47.8800,0.014129
37.314,47.8660,0.014129
37.331,47.8521,0.014129
37.353,47.8324,0.014129
37.383,47.8052,0.014129
37.414,47.7774,0.012661
37.444,47.7485,0.012661
37.459,47.7335,0.012661
37.475,47.7189,0.012661
37.490,47.7041,0.012661
37.506,47.6878,0.012661
37.537,47.6571,0.012661
37.554,47.6385,0.012661
37.569,47.6231,0.012661
37.585,47.6059,0.012661
37.611,47.5784,0.012661
37.627,47.5610,0.012661
37.644,47.5431,0.009140
37.660,47.5240,0.009140
37.676,47.5064,0.009140
37.697,47.4821,0.009140
37.723,47.4532,0.009140
37.740,47.4326,0.009140
37.756,47.4139,0.009140
37.785,47.3797,0.009140
37.804,47.3554,0.009140
37.820,47.3363,0.009140
37.836,47.3169,0.009140
37.852,47.2956,0.009140
37.868,47.2757,0.009140
37.883,47.2564,0.009140
37.900,47.2352,0.003445
37.915,47.2151,0.003445
37.933,47.1914,0.003445
37.955,47.1616,0.003445
37.986,47.1196,0.003445
38.017,47.0771,0.003445
38.033,47.0560,0.003445
38.063,47.0118,0.003445
38.079,46.9904,0.003445
38.094,46.9683,0.003445
38.110,46.9445,0.003445
38.125,46.9222,0.003445
38.156,46.8781,0.003605
38.174,46.8490,0.003605
38.203,46.8058,0.003605
38.219,46.7811,0.003605
38.235,46.7567,0.003605
38.252,46.7305,0.003605
38.267,46.7065,0.003605
38.283,46.6809,0.003605
38.300,46.6539,0.003605
38.315,46.6303,0.003605
38.331,46.6044,0.003605
38.347,46.5782,0.003605
38.363,46.5508,0.003605
38.379,46.5250,0.003605
38.397,46.4960,0.003737
38.412,46.4701,0.003737
38.427,46.4448,0.003737
38.444,46.4170,0.003737
38.460,46.3887,0.003737
38.475,46.3626,0.003737
38.492,46.3339,0.003737
38.507,46.3064,0.003737
38.523,46.2784,0.003737
38.539,46.2491,0.003737
38.556,46.2208,0.003737
38.572,46.1918,0.003737
38.587,46.1624,0.003737
38.603,46.1346,0.003737
38.619,46.1051,0.003737
38.635,46.0747,0.003982
38.651,46.0457,0.003982
38.668,46.0110,0.003982
38.693,45.9668,0.003982
38.714,45.9267,0.003982
38.729,45.8977,0.003982
38.744,45.8663,0.003982
38.775,45.8063,0.003982
38.791,45.7766,0.003982
38.807,45.7446,0.003982
38.822,45.7147,0.003982
38.854,45.6503,0.003982
38.884,45.5898,0.003982
38.914,45.5274,0.004396
38.931,45.4933,0.004396
38.950,45.4533,0.004396
38.976,45.3990,0.004396
38.995,45.3580,0.004396
39.012,45.3221,0.004396
39.038,45.2652,0.004396
39.059,45.2201,0.004396
39.075,45.1876,0.004396
39.091,45.1551,0.004396
39.107,45.1212,0.004396
39.123,45.0881,0.004396
39.139,45.0561,0.004396
39.155,45.0240,0.004725
39.171,44.9910,0.004725
39.187,44.9574,0.004725
39.203,44.9260,0.004725
39.227,44.8805,0.004725
39.242,44.8487,0.004725
39.258,44.8188,0.004725
39.274,44.7864,0.004725
39.290,44.7573,0.004725
39.306,44.7263,0.004725
39.322,44.6956,0.004725
39.338,44.6641,0.004725
39.354,44.6354,0.004725
39.370,44.6054,0.004725
39.386,44.5749,0.004998
39.402,44.5452,0.004998
39.418,44.5154,0.004998
39.434,44.4873,0.004998
39.450,44.4582,0.004998
39.466,44.4283,0.004998
39.483,44.3993,0.004998
39.498,44.3722,0.004998
39.514,44.3433,0.004998
39.531,44.3128,0.004998
39.561,44.2615,0.004998
39.579,44.2302,0.004998
39.607,44.1827,0.004998
39.626,44.1516,0.005384
39.644,44.1222,0.005384
39.670,44.0790,0.005384
39.690,44.0463,0.005384
39.706,44.0196,0.005384
39.723,43.9932,0.005384
39.738,43.9685,0.005384
39.763,43.9287,0.005384
39.778,43.9057,0.005384
39.795,43.8802,0.005384
39.810,43.8568,0.005384
39.829,43.8268,0.005384
39.856,43.7867,0.005384
39.874,43.7599,0.005384
39.890,43.7357,0.005384
39.906,43.7126,0.005384
39.922,43.6889,0.005874
39.938,43.6659,0.005874
39.954,43.6425,0.005874
39.970,43.6200,0.005874
39.986,43.5970,0.005874
40.002,43.5759,0.005874
40.018,43.5536,0.005874
40.033,43.5321,0.005874
40.049,43.5103,0.005874
40.066,43.4883,0.005874
40.082,43.4671,0.005874
40.097,43.4458,0.005874
40.113,43.4252,0.005874
40.131,43.4025,0.005874
40.150,43.3782,0.005874
40.180,43.3405,0.006354
40.211,43.3015,0.006354
40.227,43.2821,0.006354
40.257,43.2447,0.006354
40.284,43.2131,0.006354
40.300,43.1941,0.006354
40.317,43.1749,0.006354
40.333,43.1571,0.006354
40.349,43.1391,0.006354
40.365,43.1211,0.006354
40.382,43.1020,0.006354
40.412,43.0697,0.006712
40.428,43.0516,0.006712
40.444,43.0344,0.006712
40.461,43.0175,0.006712
40.477,43.0010,0.006712
40.493,42.9847,0.006712
40.509,42.9679,0.006712
40.536,42.9401,0.006712
40.557,42.9212,0.006712
40.573,42.9050,0.006712
40.599,42.8799,0.006712
40.621,42.8605,0.006712
40.637,42.8446,0.006712
40.662,42.8227,0.006712
40.677,42.8092,0.007060
40.708,42.7823,0.007060
40.739,42.7573,0.007060
40.770,42.7318,0.007060
40.800,42.7073,0.007060
40.816,42.6948,0.007060
40.832,42.6833,0.007060
40.847,42.6711,0.007060
40.862,42.6602,0.007060
40.878,42.6487,0.007060
40.909,42.6264,0.007371
40.925,42.6152,0.007371
40.942,42.6034,0.007371
40.972,42.5838,0.007371
40.988,42.5729,0.007371
41.005,42.5626,0.007371
41.020,42.5528,0.007371
41.036,42.5431,0.007371
41.052,42.5335,0.007371
41.069,42.5239,0.007371
41.084,42.5149,0.007371
41.102,42.5052,0.007371
41.128,42.4902,0.007371
41.149,42.4798,0.007371
41.165,42.4715,0.007700
41.181,42.4631,0.007700
41.199,42.4543,0.007700
41.221,42.4438,0.007700
41.237,42.4366,0.007700
41.252,42.4298,0.007700
41.269,42.4226,0.007700
41.299,42.4098,0.007700
41.329,42.3977,0.007700
41.345,42.3917,0.007700
41.377,42.3802,0.007700
41.407,42.3701,0.007992
41.423,42.3652,0.007992
41.438,42.3603,0.007992
41.454,42.3557,0.007992
41.469,42.3515,0.007992
41.484,42.3472,0.007992
41.501,42.3428,0.007992
41.532,42.3354,0.007992
41.548,42.3318,0.007992
41.564,42.3283,0.007992
41.581,42.3249,0.007992
41.596,42.3221,0.007992
41.612,42.3194,0.007992
41.634,42.3157,0.007992
41.661,42.3118,0.007992
41.676,42.3100,0.007992
41.692,42.3081,0.007992
41.708,42.3064,0.007992
41.724,42.3049,0.008152
41.740,42.3037,0.008152
41.756,42.3025,0.008152
41.772,42.3017,0.008152
41.788,42.3010,0.008152
41.804,42.3004,0.008152
41.821,42.3002,0.008152
41.841,42.3001,0.008152
41.856,42.3001,0.008152
41.888,42.3001,0.008152
41.917,42.3001,0.008199
41.934,42.3001,0.008199
41.964,42.3001,0.008199
41.980,42.3001,0.008199
41.996,42.3001,0.008199
42.012,42.3001,0.008199
42.028,42.3001,0.008199
42.048,42.3001,0.008199
42.072,42.3001,0.008199
42.092,42.3001,0.008199
42.108,42.3001,0.008199
42.124,42.3001,0.008199
42.140,42.3001,0.008199
42.156,42.3001,0.008227
42.172,42.3001,0.008227
42.188,42.3001,0.008227
42.204,42.3001,0.008227
42.220,42.3001,0.008227
42.236,42.3001,0.008227
42.252,42.3001,0.008227
42.268,42.3001,0.008227
42.284,42.3001,0.008227
42.300,42.3001,0.008227
42.316,42.3001,0.008227
42.332,42.3001,0.008227
42.348,42.3001,0.008227
42.364,42.3001,0.008227
42.381,42.3001,0.008227
42.411,42.3001,0.008293
42.428,42.3002,0.008293
42.444,42.3005,0.008293
42.460,42.3010,0.008293
42.476,42.3018,0.008293
42.492,42.3027,0.008293
42.508,42.3038,0.008293
42.524,42.3050,0.008293
42.540,42.3066,0.008293
42.556,42.3084,0.008293
42.572,42.3102,0.008293
42.589,42.3123,0.008293
42.604,42.3144,0.008293
42.622,42.3173,0.008293
42.644,42.3211,0.008293
42.675,42.3270,0.008218
42.691,42.3303,0.008218
42.722,42.3374,0.008218
42.739,42.3415,0.008218
42.769,42.3495,0.008218
42.785,42.3536,0.008218
42.800,42.3581,0.008218
42.831,42.3678,0.008218
42.862,42.3778,0.008218
42.887,42.3865,0.008218
42.907,42.3946,0.008218
42.923,42.4004,0.008218
42.947,42.4097,0.008095
42.962,42.4160,0.008095
42.978,42.4228,0.008095
42.993,42.4294,0.008095
43.014,42.4391,0.008095
43.030,42.4464,0.008095
43.046,42.4542,0.008095
43.062,42.4619,0.008095
43.092,42.4770,0.008095
43.122,42.4934,0.008095
43.138,42.5015,0.008095
43.153,42.5100,0.008020
43.170,42.5192,0.008020
43.185,42.5285,0.008020
43.202,42.5383,0.008020
43.217,42.5477,0.008020
43.233,42.5575,0.008020
43.252,42.5693,0.008020
43.277,42.5862,0.008020
43.298,42.5993,0.008020
43.313,42.6102,0.008020
43.329,42.6209,0.008020
43.346,42.6326,0.008020
43.361,42.6437,0.008020
43.377,42.6555,0.008020
43.394,42.6677,0.008020
43.409,42.6793,0.007851
43.425,42.6912,0.007851
43.442,42.7040,0.007851
43.458,42.7165,0.007851
43.473,42.7302,0.007851
43.496,42.7479,0.007851
43.513,42.7619,0.007851
43.528,42.7746,0.007851
43.545,42.7886,0.007851
43.561,42.8028,0.007851
43.576,42.8162,0.007851
43.593,42.8310,0.007851
43.609,42.8451,0.007851
43.625,42.8604,0.007851
43.641,42.8752,0.007851
43.657,42.8897,0.007606
43.673,42.9055,0.007606
43.689,42.9205,0.007606
43.704,42.9354,0.007606
43.720,42.9512,0.007606
43.736,42.9671,0.007606
43.753,42.9843,0.007606
43.768,42.9997,0.007606
43.784,43.0163,0.007606
43.801,43.0334,0.007606
43.816,43.0501,0.007606
43.833,43.0681,0.007606
43.848,43.0849,0.007606
43.865,43.1026,0.007606
43.880,43.1198,0.007606
43.897,43.1387,0.007305
43.912,43.1558,0.007305
43.928,43.1748,0.007305
43.944,43.1928,0.007305
43.960,43.2113,0.007305
43.976,43.2302,0.007305
43.998,43.2584,0.007305
44.024,43.2870,0.007305
44.053,43.3239,0.007305
44.070,43.3451,0.007305
44.086,43.3650,0.007305
44.102,43.3855,0.007305
44.119,43.4075,0.007305
44.135,43.4274,0.007305
44.150,43.4480,0.006909
44.166,43.4692,0.006909
44.184,43.4930,0.006909
44.209,43.5271,0.006909
44.230,43.5565,0.006909
44.250,43.5842,0.006909
44.271,43.6125,0.006909
44.286,43.6344,0.006909
44.302,43.6576,0.006909
44.333,43.7021,0.006909
44.364,43.7478,0.006909
44.395,43.7928,0.006909
44.425,43.8399,0.006495
44.441,43.8645,0.006495
44.457,43.8879,0.006495
44.473,43.9122,0.006495
44.488,43.9379,0.006495
44.519,43.9854,0.006495
44.548,44.0328,0.006495
44.564,44.0593,0.006495
44.580,44.0844,0.006495
44.596,44.1115,0.006495
44.613,44.1397,0.006495
44.628,44.1649,0.006495
44.644,44.1912,0.006137
44.660,44.2184,0.006137
44.683,44.2584,0.006137
44.704,44.2953,0.006137
44.724,44.3290,0.006137
44.740,44.3585,0.006137
44.756,44.3855,0.006137
44.774,44.4182,0.006137
44.797,44.4608,0.006137
44.828,44.5155,0.006137
44.858,44.5718,0.006137
44.878,44.6074,0.006137
44.905,44.6606,0.005733
44.924,44.6963,0.005733
44.952,44.7491,0.005733
44.968,44.7794,0.005733
44.999,44.8397,0.005733
45.029,44.8991,0.005733
45.060,44.9607,0.005733
45.076,44.9931,0.005733
45.106,45.0540,0.005733
45.121,45.0854,0.005733
45.137,45.1185,0.005215
45.153,45.1502,0.005215
45.174,45.1946,0.005215
45.200,45.2503,0.005215
45.217,45.2858,0.005215
45.236,45.3286,0.005215
45.263,45.3825,0.005215
45.281,45.4207,0.005215
45.297,45.4548,0.005215
45.313,45.4870,0.005215
45.329,45.5198,0.005215
45.345,45.5519,0.005215
45.362,45.5863,0.005215
45.377,45.6178,0.005215
45.393,45.6489,0.004876
45.409,45.6808,0.004876
45.425,45.7133,0.004876
45.441,45.7451,0.004876
45.457,45.7774,0.004876
45.473,45.8076,0.004876
45.490,45.8396,0.004876
45.505,45.8688,0.004876
45.521,45.8988,0.004876
45.537,45.9292,0.004876
45.553,45.9599,0.004876
45.569,45.9895,0.004876
45.585,46.0195,0.004876
45.601,46.0492,0.004876
45.617,46.0788,0.004876
45.633,46.1087,0.004876
45.665,46.1666,0.004612
45.682,46.1956,0.004612
45.697,46.2242,0.004612
45.713,46.2509,0.004612
45.729,46.2797,0.004612
45.745,46.3075,0.004612
45.761,46.3348,0.004612
45.776,46.3619,0.004612
45.793,46.3897,0.004612
45.809,46.4176,0.004612
45.826,46.4476,0.004612
45.842,46.4728,0.004612
45.857,46.4973,0.004612
45.873,46.5245,0.004612
45.888,46.5491,0.004321
45.906,46.5775,0.004321
45.921,46.6022,0.004321
45.937,46.6274,0.004321
45.952,46.6519,0.004321
45.969,46.6771,0.004321
45.985,46.7028,0.004321
46.001,46.7267,0.004321
46.017,46.7514,0.004321
46.033,46.7764,0.004321
46.050,46.8014,0.004321
46.069,46.8316,0.004321
46.085,46.8557,0.004321
46.101,46.8783,0.004321
46.132,46.9234,0.004019
46.148,46.9472,0.004019
46.164,46.9692,0.004019
46.188,47.0039,0.004019
46.204,47.0250,0.004019
46.219,47.0473,0.004019
46.236,47.0690,0.004019
46.251,47.0903,0.004019
46.267,47.1115,0.004019
46.284,47.1342,0.004019
46.301,47.1563,0.004019
46.318,47.1798,0.004019
46.334,47.1998,0.004019
46.349,47.2203,0.004019
46.380,47.2581,0.003699
46.395,47.2771,0.003699
46.419,47.3073,0.003699
46.442,47.3345,0.003699
46.459,47.3554,0.003699
46.475,47.3742,0.003699
46.492,47.3934,0.003699
46.507,47.4117,0.003699
46.523,47.4300,0.003699
46.540,47.4493,0.003699
46.555,47.4665,0.003699
46.572,47.4849,0.003699
46.587,47.5018,0.003699
46.604,47.5208,0.003699
46.620,47.5372,0.003699
46.635,47.5539,0.003455
46.652,47.5712,0.003455
46.668,47.5884,0.003455
46.683,47.6040,0.003455
46.699,47.6204,0.003455
46.723,47.6445,0.003455
46.740,47.6608,0.003455
46.755,47.6758,0.003455
46.771,47.6915,0.003455
46.788,47.7076,0.003455
46.804,47.7220,0.003455
46.819,47.7365,0.003455
46.835,47.7511,0.003455
46.852,47.7666,0.003455
46.867,47.7800,0.003455
46.883,47.7943,0.003238
46.899,47.8081,0.003238
46.915,47.8218,0.003238
46.931,47.8352,0.003238
46.947,47.8484,0.003238
46.964,47.8620,0.003238
46.979,47.8750,0.003238
46.995,47.8874,0.003238
47.011,47.9001,0.003238
47.027,47.9122,0.003238
47.044,47.9250,0.003238
47.059,47.9364,0.003238
47.075,47.9482,0.003238
47.091,47.9596,0.003238
47.107,47.9709,0.003238
47.123,47.9822,0.002984
47.139,47.9932,0.002984
47.156,48.0048,0.002984
47.179,48.0200,0.002984
47.204,48.0364,0.002984
47.220,48.0463,0.002984
47.251,48.0650,0.002984
47.277,48.0802,0.002984
47.293,48.0896,0.002984
47.309,48.0983,0.002984
47.326,48.1072,0.002984
47.341,48.1154,0.002984
47.357,48.1243,0.002984
47.374,48.1323,0.002495
47.389,48.1399,0.002495
47.407,48.1490,0.002495
47.436,48.1621,0.002495
47.453,48.1701,0.002495
47.469,48.1774,0.002495
47.485,48.1838,0.002495
47.501,48.1903,0.002495
47.517,48.1967,0.002495
47.539,48.2052,0.002495
47.560,48.2132,0.002495
47.581,48.2206,0.002495
47.597,48.2261,0.002495
47.613,48.2312,0.002495
47.629,48.2362,0.001440
47.645,48.2413,0.001440
47.661,48.2461,0.001440
47.677,48.2503,0.001440
47.693,48.2545,0.001440
47.709,48.2588,0.001440
47.725,48.2626,0.001440
47.741,48.2663,0.001440
47.757,48.2699,0.001440
47.773,48.2733,0.001440
47.798,48.2781,0.001440
47.814,48.2808,0.001440
47.830,48.2834,0.001440
47.846,48.2859,0.001440
47.862,48.2882,0.001440
47.878,48.2903,-0.000555
47.894,48.2921,-0.000555
47.910,48.2937,-0.000555
47.926,48.2952,-0.000555
47.942,48.2965,-0.000555
47.958,48.2976,-0.000555
47.974,48.2984,-0.000555
47.990,48.2992,-0.000555
48.006,48.2997,-0.000555
48.022,48.2999,-0.000555
48.038,48.3001,-0.000555
48.054,48.3001,-0.000555
48.070,48.3001,-0.000555
48.087,48.3001,-0.000555
48.102,48.3001,-0.000555
48.119,48.3001,-0.000555
48.138,48.3001,-0.000555
48.163,48.3001,-0.000555
48.182,48.3001,-0.001628
48.198,48.3001,-0.001628
48.214,48.3001,-0.001628
48.230,48.3001,-0.001628
48.246,48.3001,-0.001628
48.263,48.3001,-0.001628
48.278,48.3001,-0.001628
48.294,48.3001,-0.001628
48.310,48.3001,-0.001628
48.326,48.3001,-0.001628
48.342,48.3001,-0.001628
48.358,48.3001,-0.001628
48.374,48.3001,-0.001628
48.390,48.3001,-0.001628
48.406,48.3001,-0.000395
48.422,48.3001,-0.000395
48.437,48.3001,-0.000395
48.454,48.3001,-0.000395
48.470,48.3001,-0.000395
48.486,48.3001,-0.000395
48.502,48.3001,-0.000395
48.517,48.3001,-0.000395
48.534,48.3001,-0.000395
48.551,48.3001,-0.000395
48.582,48.3001,-0.000395
48.598,48.3001,-0.000395
48.614,48.3001,-0.000395
48.630,48.3001,-0.000395
48.645,48.3001,0.001054
48.662,48.3001,0.001054
48.679,48.3001,0.001054
48.705,48.3001,0.001054
48.726,48.3001,0.001054
48.741,48.3001,0.001054
48.758,48.3001,0.001054
48.774,48.3001,0.001054
48.790,48.3001,0.001054
48.806,48.3001,0.001054
48.822,48.3001,0.001054
48.837,48.3001,0.001054
48.867,48.3001,0.001054
48.891,48.3001,0.001713
48.908,48.3001,0.001713
48.930,48.3001,0.001713
48.953,48.3001,0.001713
48.972,48.3001,0.001713
48.989,48.3001,0.001713
49.005,48.3001,0.001713
49.020,48.3001,0.001713
49.037,48.3001,0.001713
49.053,48.3001,0.001713
49.068,48.3001,0.001713
49.084,48.3001,0.001713
49.100,48.3001,0.001713
49.117,48.3001,0.001713
49.132,48.3001,0.001713
49.149,48.3001,0.002061
49.165,48.3001,0.002061
49.180,48.3001,0.002061
49.196,48.3001,0.002061
49.212,48.3001,0.002061
49.228,48.3001,0.002061
49.245,48.3001,0.002061
49.261,48.3001,0.002061
49.277,48.3001,0.002061
49.293,48.3001,0.002061
49.308,48.3001,0.002061
49.324,48.3001,0.002061
49.341,48.3001,0.002061
49.357,48.3001,0.002061
49.373,48.3001,0.002061
49.389,48.3001,0.002061
49.414,48.3001,0.002184
49.431,48.3001,0.002184
49.447,48.3001,0.002184
49.462,48.3001,0.002184
49.478,48.3001,0.002184
49.495,48.3001,0.002184
49.511,48.3001,0.002184
49.526,48.3001,0.002184
49.543,48.3001,0.002184
49.570,48.3001,0.002184
49.590,48.3001,0.002184
49.607,48.3001,0.002184
49.623,48.3001,0.002184
49.638,48.3001,0.002269
49.655,48.3001,0.002269
49.670,48.3001,0.002269
49.687,48.3001,0.002269
49.702,48.3001,0.002269
49.718,48.3001,0.002269
49.735,48.3001,0.002269
49.750,48.3001,0.002269
49.766,48.3001,0.002269
49.783,48.3001,0.002269
49.799,48.3001,0.002269
49.814,48.3001,0.002269
49.830,48.3001,0.002269
49.846,48.3001,0.002269
49.862,48.3001,0.002269
49.878,48.3001,0.002391
49.894,48.3001,0.002391
49.910,48.3001,0.002391
49.926,48.3001,0.002391
49.942,48.3001,0.002391
49.972,48.3001,0.002391
49.988,48.3001,0.002391
50.004,48.3001,0.002391
50.019,48.3001,0.002391
50.037,48.3001,0.002391
50.066,48.3001,0.002391
50.083,48.3001,0.002391
50.102,48.3001,0.002391
50.127,48.3001,0.002410
50.147,48.3001,0.002410
50.164,48.3001,0.002410
50.180,48.3001,0.002410
50.205,48.3001,0.002410
50.220,48.3001,0.002410
50.237,48.3001,0.002410
50.267,48.3001,0.002410
50.298,48.3001,0.002410
50.329,48.3001,0.002410
50.359,48.3001,0.002410
50.390,48.3001,0.002410
50.420,48.3001,0.002410
50.435,48.3001,0.002410
50.451,48.3001,0.002410
50.468,48.3001,0.002410
50.483,48.3001,0.002410
50.499,48.3001,0.002410
50.527,48.3001,0.002410
50.544,48.3001,0.002410
50.559,48.3001,0.002410
50.575,48.3001,0.002410
50.591,48.3001,0.002410
50.607,48.3001,0.002410
50.623,48.3001,0.002513
50.639,48.3001,0.002513
50.655,48.3001,0.002513
50.671,48.3001,0.002513
50.687,48.3001,0.002513
50.703,48.3001,0.002513
50.719,48.3001,0.002513
50.735,48.3001,0.002513
50.751,48.3001,0.002513
50.767,48.3001,0.002513
50.783,48.3001,0.002513
50.799,48.3001,0.002513
50.815,48.3001,0.002513
50.831,48.3001,0.002513
50.847,48.3001,0.002513
50.863,48.3001,0.002513
50.879,48.3001,0.002626
50.895,48.3001,0.002626
50.911,48.3001,0.002626
50.927,48.3001,0.002626
50.948,48.3001,0.002626
50.973,48.3001,0.002626
50.991,48.3001,0.002626
51.008,48.3001,0.002626
51.036,48.3001,0.002626
51.054,48.3001,0.002626
51.071,48.3001,0.002626
51.087,48.3001,0.002626
51.103,48.3001,0.002626
51.119,48.3001,0.002626
51.136,48.3001,0.002626
51.151,48.3001,0.002626
51.167,48.3001,0.002626
51.183,48.3001,0.002626
51.199,48.3001,0.002626
51.215,48.3001,0.002626
51.231,48.3001,0.002626
51.247,48.3001,0.002626
51.263,48.3001,0.002626
51.279,48.3001,0.002626
51.295,48.3001,0.002626
51.310,48.3001,0.002626
51.327,48.3001,0.002626
51.343,48.3001,0.002626
51.359,48.3001,0.002626
51.375,48.3001,0.002626
51.390,48.3001,0.002598
51.407,48.3001,0.002598
51.423,48.3001,0.002598
51.439,48.3001,0.002598
51.455,48.3001,0.002598
51.470,48.3001,0.002598
51.487,48.3001,0.002598
51.502,48.3001,0.002598
51.518,48.3001,0.002598
51.535,48.3001,0.002598
51.551,48.3001,0.002598
51.568,48.3001,0.002598
51.593,48.3001,0.002598
51.614,48.3001,0.002598
51.630,48.3001,0.002598
51.646,48.3001,0.002598
51.662,48.3001,0.002636
51.678,48.3001,0.002636
51.694,48.3001,0.002636
51.709,48.3001,0.002636
51.726,48.3001,0.002636
51.744,48.3001,0.002636
51.763,48.3001,0.002636
51.779,48.3001,0.002636
51.810,48.3001,0.002636
51.840,48.3001,0.002636
51.856,48.3001,0.002636
51.872,48.3001,0.002636
51.903,48.3001,0.002664
51.933,48.3001,0.002664
51.949,48.3001,0.002664
51.966,48.3001,0.002664
51.982,48.3001,0.002664
52.011,48.3001,0.002664
52.030,48.3001,0.002664
52.046,48.3001,0.002664
52.061,48.3001,0.002664
52.078,48.3001,0.002664
52.094,48.3001,0.002664
52.110,48.3001,0.002664
52.127,48.3001,0.002664
52.151,48.3001,0.002664
52.171,48.3001,0.002560
52.188,48.3001,0.002560
52.203,48.3001,0.002560
52.219,48.3001,0.002560
52.235,48.3001,0.002560
52.251,48.3001,0.002560
52.267,48.3001,0.002560
52.283,48.3001,0.002560
52.300,48.3001,0.002560
52.315,48.3001,0.002560
52.332,48.3001,0.002560
52.348,48.3001,0.002560
52.363,48.3001,0.002560
52.379,48.3001,0.002269
52.395,48.3001,0.002269
52.412,48.3001,0.002269
52.427,48.3001,0.002269
52.444,48.3001,0.002269
52.459,48.3001,0.002269
52.475,48.3001,0.002269
52.492,48.3001,0.002269
52.507,48.3001,0.002269
52.523,48.3001,0.002269
52.540,48.3001,0.002269
52.555,48.3001,0.002269
52.571,48.3001,0.002269
52.587,48.3001,0.002269
52.604,48.3001,0.002269
52.620,48.3001,0.002269
52.635,48.3001,0.001854
52.651,48.3001,0.001854
52.667,48.3001,0.001854
52.683,48.3001,0.001854
52.699,48.3001,0.001854
52.715,48.3001,0.001854
52.732,48.2999,0.001854
52.755,48.2996,0.001854
52.786,48.2983,0.001854
52.816,48.2965,0.001854
52.848,48.2939,0.001854
52.879,48.2904,0.001826
52.895,48.2884,0.001826
52.925,48.2838,0.001826
52.957,48.2786,0.001826
52.973,48.2758,0.001826
52.988,48.2727,0.001826
53.004,48.2694,0.001826
53.019,48.2660,0.001826
53.035,48.2622,0.001826
53.051,48.2584,0.001826
53.068,48.2538,0.001826
53.084,48.2497,0.001826
53.099,48.2454,0.001826
53.115,48.2405,0.001826
53.135,48.2342,0.001826
53.158,48.2269,0.001826
53.179,48.2199,0.007361
53.195,48.2144,0.007361
53.211,48.2084,0.007361
53.227,48.2023,0.007361
53.254,48.1918,0.007361
53.270,48.1851,0.007361
53.286,48.1784,0.007361
53.302,48.1714,0.007361
53.319,48.1635,0.007361
53.342,48.1528,0.007361
53.374,48.1375,0.007361
53.404,48.1226,0.007361
53.434,48.1065,0.015767
53.465,48.0891,0.015767
53.495,48.0721,0.015767
53.511,48.0622,0.015767
53.541,48.0441,0.015767
53.561,48.0320,0.015767
53.587,48.0151,0.015767
53.606,48.0022,0.015767
53.622,47.9915,0.015767
53.638,47.9805,0.015767
53.655,47.9685,0.014638
53.680,47.9501,0.014638
53.702,47.9344,0.014638
53.718,47.9220,0.014638
53.734,47.9100,0.014638
53.750,47.8971,0.014638
53.766,47.8851,0.014638
53.782,47.8713,0.014638
53.805,47.8532,0.014638
53.821,47.8402,0.014638
53.837,47.8270,0.014638
53.853,47.8133,0.014638
53.870,47.7989,0.014638
53.899,47.7728,0.012520
53.917,47.7568,0.012520
53.933,47.7417,0.012520
53.949,47.7277,0.012520
53.966,47.7113,0.012520
53.981,47.6976,0.012520
53.997,47.6818,0.012520
54.013,47.6662,0.012520
54.029,47.6509,0.012520
54.045,47.6349,0.012520
54.061,47.6179,0.012520
54.077,47.6024,0.012520
54.092,47.5859,0.012520
54.109,47.5692,0.012520
54.125,47.5517,0.012520
54.140,47.5351,0.009187
54.157,47.5173,0.009187
54.173,47.4999,0.009187
54.189,47.4825,0.009187
54.205,47.4643,0.009187
54.221,47.4457,0.009187
54.237,47.4283,0.009187
54.253,47.4098,0.009187
54.268,47.3911,0.009187
54.285,47.3711,0.009187
54.306,47.3461,0.009187
54.330,47.3173,0.009187
54.345,47.2988,0.009187
54.360,47.2802,0.009187
54.377,47.2593,0.009187
54.393,47.2395,0.009187
54.408,47.2198,0.003643
54.424,47.1990,0.003643
54.441,47.1778,0.003643
54.456,47.1572,0.003643
54.472,47.1362,0.003643
54.492,47.1098,0.003643
54.515,47.0790,0.003643
54.546,47.0366,0.003643
54.562,47.0137,0.003643
54.592,46.9710,0.003643
54.624,46.9269,0.003643
54.653,46.8830,0.003577
54.669,46.8608,0.003577
54.685,46.8363,0.003577
54.701,46.8130,0.003577
54.717,46.7880,0.003577
54.734,46.7630,0.003577
54.764,46.7170,0.003577
54.780,46.6907,0.003577
54.811,46.6426,0.003577
54.842,46.5944,0.003577
54.858,46.5683,0.003577
54.889,46.5177,0.003794
54.905,46.4917,0.003794
54.922,46.4633,0.003794
54.951,46.4135,0.003794
54.969,46.3839,0.003794
54.985,46.3565,0.003794
55.005,46.3203,0.003794
55.029,46.2812,0.003794
55.049,46.2455,0.003794
55.065,46.2172,0.003794
55.080,46.1893,0.003794
55.096,46.1609,0.003794
55.113,46.1300,0.003794
55.129,46.1019,0.004057
55.144,46.0737,0.004057
55.161,46.0431,0.004057
55.176,46.0147,0.004057
55.192,45.9850,0.004057
55.209,45.9539,0.004057
55.225,45.9229,0.004057
55.240,45.8943,0.004057
55.256,45.8629,0.004057
55.272,45.8325,0.004057
55.289,45.8012,0.004057
55.304,45.7706,0.004057
55.320,45.7389,0.004057
55.336,45.7072,0.004057
55.352,45.6754,0.004057
55.368,45.6435,0.004057
55.384,45.6115,0.004057
55.401,45.5764,0.004368
55.417,45.5453,0.004368
55.433,45.5113,0.004368
55.461,45.4535,0.004368
55.481,45.4134,0.004368
55.496,45.3812,0.004368
55.512,45.3472,0.004368
55.529,45.3099,0.004368
55.545,45.2775,0.004368
55.570,45.2242,0.004368
55.585,45.1918,0.004368
55.616,45.1259,0.004368
55.631,45.0953,0.004754
55.647,45.0622,0.004754
55.677,44.9992,0.004754
55.693,44.9683,0.004754
55.709,44.9363,0.004754
55.724,44.9058,0.004754
55.739,44.8734,0.004754
55.771,44.8129,0.004754
55.800,44.7553,0.004754
55.817,44.7231,0.004754
55.833,44.6921,0.004754
55.861,44.6380,0.004754
55.881,44.5999,0.004754
55.909,44.5480,0.004754
55.928,44.5125,0.005055
55.944,44.4830,0.005055
55.960,44.4536,0.005055
55.976,44.4251,0.005055
55.992,44.3951,0.005055
56.008,44.3658,0.005055
56.024,44.3385,0.005055
56.040,44.3096,0.005055
56.057,44.2798,0.005055
56.080,44.2403,0.005055
56.111,44.1860,0.005055
56.141,44.1352,0.005422
56.172,44.0829,0.005422
56.204,44.0315,0.005422
56.219,44.0051,0.005422
56.250,43.9559,0.005422
56.280,43.9084,0.005422
56.297,43.8817,0.005422
56.326,43.8366,0.005422
56.344,43.8081,0.005422
56.360,43.7832,0.005422
56.376,43.7598,0.005422
56.392,43.7355,0.005940
56.408,43.7119,0.005940
56.424,43.6875,0.005940
56.441,43.6637,0.005940
56.457,43.6400,0.005940
56.482,43.6033,0.005940
56.513,43.5598,0.005940
56.529,43.5371,0.005940
56.545,43.5150,0.005940
56.562,43.4918,0.005940
56.590,43.4531,0.005940
56.609,43.4276,0.005940
56.625,43.4066,0.005940
56.641,43.3848,0.006373
56.657,43.3650,0.006373
56.673,43.3431,0.006373
56.689,43.3234,0.006373
56.705,43.3024,0.006373
56.721,43.2829,0.006373
56.737,43.2636,0.006373
56.753,43.2435,0.006373
56.769,43.2244,0.006373
56.785,43.2052,0.006373
56.801,43.1860,0.006373
56.817,43.1669,0.006373
56.833,43.1478,0.006373
56.849,43.1293,0.006373
56.865,43.1109,0.006373
56.881,43.0924,0.006721
56.897,43.0751,0.006721
56.914,43.0560,0.006721
56.930,43.0386,0.006721
56.945,43.0224,0.006721
56.961,43.0051,0.006721
56.977,42.9871,0.006721
56.994,42.9704,0.006721
57.023,42.9404,0.006721
57.047,42.9160,0.006721
57.070,42.8930,0.006721
57.089,42.8743,0.006721
57.105,42.8583,0.006721
57.121,42.8434,0.006721
57.137,42.8281,0.007079
57.153,42.8140,0.007079
57.169,42.7992,0.007079
57.185,42.7845,0.007079
57.200,42.7706,0.007079
57.217,42.7562,0.007079
57.232,42.7424,0.007079
57.249,42.7283,0.007079
57.264,42.7153,0.007079
57.281,42.7014,0.007079
57.297,42.6882,0.007079
57.312,42.6760,0.007079
57.329,42.6629,0.007079
57.345,42.6503,0.007079
57.360,42.6380,0.007079
57.376,42.6260,0.007399
57.393,42.6138,0.007399
57.408,42.6023,0.007399
57.424,42.5906,0.007399
57.441,42.5789,0.007399
57.456,42.5682,0.007399
57.473,42.5564,0.007399
57.502,42.5367,0.007399
57.520,42.5253,0.007399
57.536,42.5151,0.007399
57.559,42.5008,0.007399
57.575,42.4912,0.007399
57.590,42.4820,0.007399
57.607,42.4718,0.007399
57.623,42.4633,0.007399
57.638,42.4545,0.007700
57.654,42.4455,0.007700
57.670,42.4370,0.007700
57.687,42.4282,0.007700
57.702,42.4201,0.007700
57.719,42.4122,0.007700
57.735,42.4041,0.007700
57.750,42.3968,0.007700
57.766,42.3895,0.007700
57.783,42.3822,0.007700
57.799,42.3750,0.007700
57.814,42.3683,0.007700
57.831,42.3613,0.007700
57.847,42.3550,0.007700
57.863,42.3485,0.007700
57.879,42.3426,0.007926
57.895,42.3368,0.007926
57.910,42.3311,0.007926
57.928,42.3251,0.007926
57.949,42.3182,0.007926
57.981,42.3082,0.007926
58.012,42.2993,0.007926
58.043,42.2912,0.007926
58.073,42.2841,0.007926
58.094,42.2795,0.007926
58.110,42.2762,0.007926
58.126,42.2731,0.008077
58.142,42.2702,0.008077
58.159,42.2674,0.008077
58.174,42.2651,0.008077
58.190,42.2627,0.008077
58.206,42.2606,0.008077
58.223,42.2586,0.008077
58.243,42.2565,0.008077
58.274,42.2538,0.008077
58.290,42.2527,0.008077
58.306,42.2518,0.008077
58.336,42.2506,0.008077
58.367,42.2501,0.008077
58.399,42.2501,0.008180
58.414,42.2501,0.008180
58.430,42.2501,0.008180
58.446,42.2501,0.008180
58.463,42.2501,0.008180
58.478,42.2501,0.008180
58.494,42.2501,0.008180
58.512,42.2501,0.008180
58.538,42.2501,0.008180
58.558,42.2501,0.008180
58.574,42.2501,0.008180
58.590,42.2501,0.008180
58.608,42.2501,0.008180
58.632,42.2501,0.008180
58.648,42.2501,0.008180
58.664,42.2501,0.008321
58.680,42.2501,0.008321
58.696,42.2501,0.008321
58.712,42.2501,0.008321
58.728,42.2501,0.008321
58.744,42.2501,0.008321
58.761,42.2501,0.008321
58.776,42.2501,0.008321
58.792,42.2501,0.008321
58.808,42.2501,0.008321
58.824,42.2501,0.008321
58.840,42.2501,0.008321
58.856,42.2501,0.008321
58.872,42.2501,0.008321
58.888,42.2501,0.008321
58.904,42.2501,0.008387
58.920,42.2501,0.008387
58.936,42.2502,0.008387
58.952,42.2504,0.008387
58.968,42.2508,0.008387
58.984,42.2514,0.008387
59.000,42.2523,0.008387
59.016,42.2533,0.008387
59.032,42.2545,0.008387
59.048,42.2559,0.008387
59.064,42.2575,0.008387
59.080,42.2594,0.008387
59.096,42.2614,0.008387
59.112,42.2635,0.008387
59.128,42.2659,0.008387
59.144,42.2684,0.008387
59.160,42.2712,0.008387
59.187,42.2764,0.008284
59.203,42.2797,0.008284
59.219,42.2832,0.008284
59.235,42.2870,0.008284
59.252,42.2911,0.008284
59.282,42.2987,0.008284
59.299,42.3035,0.008284
59.316,42.3084,0.008284
59.331,42.3130,0.008284
59.347,42.3179,0.008284
59.363,42.3231,0.008284
59.381,42.3293,0.008284
59.407,42.3390,0.008227
59.427,42.3461,0.008227
59.443,42.3524,0.008227
59.459,42.3586,0.008227
59.475,42.3654,0.008227
59.491,42.3719,0.008227
59.508,42.3796,0.008227
59.523,42.3861,0.008227
59.539,42.3937,0.008227
59.556,42.4015,0.008227
59.571,42.4093,0.008227
59.587,42.4168,0.008227
59.603,42.4247,0.008227
59.618,42.4330,0.008227
59.635,42.4418,0.008227
59.651,42.4506,0.008095
59.667,42.4593,0.008095
59.683,42.4685,0.008095
59.709,42.4836,0.008095
59.725,42.4934,0.008095
59.741,42.5028,0.008095
59.757,42.5131,0.008095
59.774,42.5240,0.008095
59.789,42.5336,0.008095
59.805,42.5440,0.008095
59.821,42.5553,0.008095
59.837,42.5660,0.008095
59.853,42.5771,0.008095
59.869,42.5884,0.008095
59.885,42.5999,0.008095
59.901,42.6120,0.007898
59.917,42.6235,0.007898
59.934,42.6370,0.007898
59.950,42.6486,0.007898
59.979,42.6720,0.007898
59.996,42.6860,0.007898
60.013,42.6995,0.007898
60.028,42.7124,0.007898
60.045,42.7262,0.007898
60.062,42.7403,0.007898
60.089,42.7641,0.007898
60.109,42.7820,0.007898
60.125,42.7965,0.007898
60.140,42.8110,0.007898
60.157,42.8265,0.007634
60.172,42.8404,0.007634
60.189,42.8564,0.007634
60.204,42.8712,0.007634
60.221,42.8876,0.007634
60.245,42.9107,0.007634
60.273,42.9405,0.007634
60.292,42.9590,0.007634
60.308,42.9759,0.007634
60.323,42.9920,0.007634
60.340,43.0096,0.007634
60.355,43.0262,0.007634
60.373,43.0457,0.007634
60.398,43.0736,0.007295
60.419,43.0972,0.007295
60.435,43.1164,0.007295
60.452,43.1342,0.007295
60.467,43.1523,0.007295
60.484,43.1722,0.007295
60.505,43.1964,0.007295
60.522,43.2175,0.007295
60.538,43.2377,0.007295
60.569,43.2754,0.007295
60.599,43.3141,0.007295
60.615,43.3328,0.007295
60.631,43.3539,0.007295
60.661,43.3932,0.006956
60.677,43.4144,0.006956
60.694,43.4364,0.006956
60.724,43.4772,0.006956
60.741,43.5012,0.006956
60.771,43.5420,0.006956
60.801,43.5849,0.006956
60.818,43.6087,0.006956
60.833,43.6312,0.006956
60.849,43.6543,0.006956
60.865,43.6776,0.006956
60.881,43.7009,0.006956
60.897,43.7248,0.006589
60.913,43.7486,0.006589
60.929,43.7741,0.006589
60.945,43.7971,0.006589
60.961,43.8221,0.006589
60.977,43.8465,0.006589
60.996,43.8766,0.006589
61.019,43.9119,0.006589
61.050,43.9623,0.006589
61.080,44.0110,0.006589
61.096,44.0375,0.006589
61.112,44.0629,0.006589
61.142,44.1136,0.006589
61.157,44.1399,0.006222
61.173,44.1649,0.006222
61.189,44.1929,0.006222
61.204,44.2187,0.006222
61.220,44.2475,0.006222
61.235,44.2728,0.006222
61.251,44.3015,0.006222
61.266,44.3281,0.006222
61.297,44.3844,0.006222
61.328,44.4396,0.006222
61.359,44.4945,0.006222
61.375,44.5255,0.006222
61.391,44.5547,0.006222
61.407,44.5846,0.005827
61.424,44.6174,0.005827
61.439,44.6465,0.005827
61.455,44.6767,0.005827
61.471,44.7066,0.005827
61.492,44.7479,0.005827
61.517,44.7970,0.005827
61.535,44.8315,0.005827
61.551,44.8631,0.005827
61.567,44.8955,0.005827
61.583,44.9279,0.005827
61.599,44.9595,0.005827
61.615,44.9926,0.005827
61.631,45.0251,0.005366
61.647,45.0573,0.005366
61.663,45.0911,0.005366
61.680,45.1270,0.005366
61.700,45.1687,0.005366
61.730,45.2335,0.005366
61.746,45.2668,0.005366
61.762,45.2987,0.005366
61.792,45.3638,0.005366
61.824,45.4289,0.005366
61.839,45.4604,0.005366
61.855,45.4928,0.005366
61.871,45.5264,0.005366
61.887,45.5575,0.004885
61.903,45.5904,0.004885
61.919,45.6226,0.004885
61.935,45.6540,0.004885
61.951,45.6849,0.004885
61.967,45.7165,0.004885
61.985,45.7517,0.004885
62.009,45.7994,0.004885
62.031,45.8417,0.004885
62.047,45.8717,0.004885
62.063,45.9022,0.004885
62.079,45.9308,0.004885
62.096,45.9628,0.004885
62.111,45.9912,0.004885
62.127,46.0200,0.004631
62.143,46.0493,0.004631
62.160,46.0813,0.004631
62.175,46.1087,0.004631
62.191,46.1367,0.004631
62.207,46.1661,0.004631
62.224,46.1960,0.004631
62.254,46.2480,0.004631
62.271,46.2774,0.004631
62.287,46.3058,0.004631
62.303,46.3322,0.004631
62.319,46.3591,0.004631
62.335,46.3858,0.004631
62.352,46.4150,0.004631
62.368,46.4403,0.004631
62.383,46.4655,0.004368
62.413,46.5144,0.004368
62.429,46.5410,0.004368
62.445,46.5663,0.004368
62.461,46.5918,0.004368
62.477,46.6178,0.004368
62.493,46.6426,0.004368
62.509,46.6663,0.004368
62.525,46.6911,0.004368
62.541,46.7163,0.004368
62.557,46.7407,0.004368
62.573,46.7639,0.004368
62.589,46.7883,0.004368
62.605,46.8120,0.004368
62.621,46.8351,0.004368
62.637,46.8585,0.003954
62.653,46.8816,0.003954
62.669,46.9047,0.003954
62.685,46.9276,0.003954
62.701,46.9506,0.003954
62.717,46.9723,0.003954
62.733,46.9945,0.003954
62.748,47.0162,0.003954
62.765,47.0387,0.003954
62.782,47.0614,0.003954
62.813,47.1032,0.003954
62.829,47.1234,0.003954
62.845,47.1452,0.003954
62.862,47.1655,0.003954
62.890,47.2022,0.003586
62.909,47.2259,0.003586
62.924,47.2450,0.003586
62.941,47.2648,0.003586
62.966,47.2968,0.003586
62.983,47.3162,0.003586
62.999,47.3348,0.003586
63.014,47.3528,0.003586
63.031,47.3721,0.003586
63.047,47.3905,0.003586
63.063,47.4082,0.003586
63.079,47.4258,0.003586
63.095,47.4439,0.003586
63.111,47.4620,0.003586
63.126,47.4787,0.003342
63.143,47.4958,0.003342
63.159,47.5139,0.003342
63.175,47.5306,0.003342
63.191,47.5470,0.003342
63.206,47.5625,0.003342
63.223,47.5792,0.003342
63.239,47.5956,0.003342
63.254,47.6106,0.003342
63.270,47.6262,0.003342
63.286,47.6417,0.003342
63.302,47.6570,0.003342
63.318,47.6720,0.003342
63.335,47.6880,0.003342
63.353,47.7039,0.003342
63.369,47.7191,0.003342
63.385,47.7323,0.003219
63.400,47.7465,0.003219
63.431,47.7727,0.003219
63.446,47.7862,0.003219
63.463,47.7993,0.003219
63.478,47.8119,0.003219
63.494,47.8252,0.003219
63.522,47.8476,0.003219
63.538,47.8597,0.003219
63.554,47.8717,0.003219
63.571,47.8841,0.003219
63.586,47.8956,0.003219
63.603,47.9076,0.003219
63.619,47.9188,0.003219
63.634,47.9297,0.002993
63.650,47.9408,0.002993
63.666,47.9517,0.002993
63.682,47.9623,0.002993
63.698,47.9734,0.002993
63.714,47.9831,0.002993
63.730,47.9931,0.002993
63.746,48.0031,0.002993
63.763,48.0133,0.002993
63.789,48.0284,0.002993
63.820,48.0468,0.002993
63.842,48.0582,0.002993
63.858,48.0668,0.002993
63.874,48.0752,0.002993
63.890,48.0833,0.002993
63.907,48.0917,0.002993
63.922,48.0989,0.002551
63.938,48.1065,0.002551
63.955,48.1143,0.002551
63.976,48.1235,0.002551
64.006,48.1367,0.002551
64.029,48.1458,0.002551
64.051,48.1541,0.002551
64.066,48.1602,0.002551
64.088,48.1680,0.002551
64.105,48.1736,0.002551
64.120,48.1788,0.002551
64.136,48.1841,0.001525
64.153,48.1892,0.001525
64.169,48.1939,0.001525
64.191,48.2000,0.001525
64.221,48.2082,0.001525
64.252,48.2155,0.001525
64.282,48.2222,0.001525
64.299,48.2254,0.001525
64.314,48.2284,0.001525
64.346,48.2337,0.001525
64.361,48.2359,0.001525
64.376,48.2380,0.001525
64.398,48.2409,-0.000433
64.422,48.2436,-0.000433
64.440,48.2451,-0.000433
64.456,48.2465,-0.000433
64.472,48.2476,-0.000433
64.488,48.2485,-0.000433
64.504,48.2491,-0.000433
64.521,48.2497,-0.000433
64.536,48.2500,-0.000433
64.552,48.2501,-0.000433
64.568,48.2501,-0.000433
64.584,48.2501,-0.000433
64.600,48.2501,-0.000433
64.616,48.2501,-0.000433
64.639,48.2501,-0.000433
64.655,48.2501,-0.001619
64.674,48.2501,-0.001619
64.702,48.2501,-0.001619
64.719,48.2501,-0.001619
64.735,48.2501,-0.001619
64.751,48.2501,-0.001619
64.767,48.2501,-0.001619
64.783,48.2501,-0.001619
64.799,48.2501,-0.001619
64.815,48.2501,-0.001619
64.832,48.2501,-0.001619
64.858,48.2501,-0.001619
64.879,48.2501,-0.000508
64.896,48.2501,-0.000508
64.911,48.2501,-0.000508
64.927,48.2501,-0.000508
64.943,48.2501,-0.000508
64.959,48.2501,-0.000508
64.975,48.2501,-0.000508
64.991,48.2501,-0.000508
65.007,48.2501,-0.000508
65.023,48.2501,-0.000508
65.039,48.2501,-0.000508
65.055,48.2501,-0.000508
65.071,48.2501,-0.000508
65.087,48.2501,-0.000508
65.103,48.2501,-0.000508
65.119,48.2501,-0.000508
65.135,48.2501,-0.000508
65.151,48.2501,-0.000508
65.166,48.2501,0.001017
65.199,48.2501,0.001017
65.221,48.2501,0.001017
65.245,48.2501,0.001017
65.262,48.2501,0.001017
65.278,48.2501,0.001017
65.294,48.2501,0.001017
65.310,48.2501,0.001017
65.326,48.2501,0.001017
65.342,48.2501,0.001017
65.358,48.2501,0.001017
65.374,48.2501,0.001017
65.391,48.2501,0.001017
65.415,48.2501,0.001017
65.446,48.2501,0.001657
65.462,48.2501,0.001657
65.493,48.2501,0.001657
65.524,48.2501,0.001657
65.554,48.2501,0.001657
65.571,48.2501,0.001657
65.600,48.2501,0.001657
65.616,48.2501,0.001657
65.647,48.2501,0.001657
65.662,48.2501,0.001967
65.678,48.2501,0.001967
65.694,48.2501,0.001967
65.709,48.2501,0.001967
65.726,48.2501,0.001967
65.754,48.2501,0.001967
65.770,48.2501,0.001967
65.786,48.2501,0.001967
65.802,48.2501,0.001967
65.818,48.2501,0.001967
65.834,48.2501,0.001967
65.849,48.2501,0.001967
65.866,48.2501,0.001967
65.883,48.2501,0.001967
65.909,48.2501,0.002165
65.930,48.2501,0.002165
65.946,48.2501,0.002165
65.972,48.2501,0.002165
65.988,48.2501,0.002165
66.018,48.2501,0.002165
66.049,48.2501,0.002165
66.080,48.2501,0.002165
66.110,48.2501,0.002165
66.141,48.2501,0.002165
66.157,48.2501,0.002306
66.188,48.2501,0.002306
66.219,48.2501,0.002306
66.234,48.2501,0.002306
66.249,48.2501,0.002306
66.266,48.2501,0.002306
66.281,48.2501,0.002306
66.310,48.2501,0.002306
66.326,48.2501,0.002306
66.343,48.2501,0.002306
66.358,48.2501,0.002306
66.374,48.2501,0.002306
66.391,48.2501,0.002306
66.406,48.2501,0.002438
66.422,48.2501,0.002438
66.439,48.2501,0.002438
66.454,48.2501,0.002438
66.471,48.2501,0.002438
66.486,48.2501,0.002438
66.502,48.2501,0.002438
66.518,48.2501,0.002438
66.534,48.2501,0.002438
66.550,48.2501,0.002438
66.567,48.2501,0.002438
66.583,48.2501,0.002438
66.606,48.2501,0.002438
66.636,48.2501,0.002438
66.667,48.2501,0.002466
66.683,48.2501,0.002466
66.698,48.2501,0.002466
66.714,48.2501,0.002466
66.729,48.2501,0.002466
66.745,48.2501,0.002466
66.761,48.2501,0.002466
66.792,48.2501,0.002466
66.822,48.2501,0.002466
66.838,48.2501,0.002466
66.867,48.2501,0.002466
66.888,48.2501,0.002466
66.915,48.2501,0.002485
66.932,48.2501,0.002485
66.962,48.2501,0.002485
66.978,48.2501,0.002485
66.994,48.2501,0.002485
67.010,48.2501,0.002485
67.026,48.2501,0.002485
67.042,48.2501,0.002485
67.059,48.2501,0.002485
67.074,48.2501,0.002485
67.090,48.2501,0.002485
67.107,48.2501,0.002485
67.123,48.2501,0.002485
67.138,48.2501,0.002485
67.154,48.2501,0.002532
67.170,48.2501,0.002532
67.186,48.2501,0.002532
67.202,48.2501,0.002532
67.218,48.2501,0.002532
67.234,48.2501,0.002532
67.251,48.2501,0.002532
67.266,48.2501,0.002532
67.282,48.2501,0.002532
67.298,48.2501,0.002532
67.315,48.2501,0.002532
67.333,48.2501,0.002532
67.350,48.2501,0.002532
67.381,48.2501,0.002532
67.397,48.2501,0.002532
67.413,48.2501,0.002579
67.443,48.2501,0.002579
67.474,48.2501,0.002579
67.490,48.2501,0.002579
67.506,48.2501,0.002579
67.522,48.2501,0.002579
67.538,48.2501,0.002579
67.554,48.2501,0.002579
67.570,48.2501,0.002579
67.586,48.2501,0.002579
67.605,48.2501,0.002579
67.630,48.2501,0.002655
67.650,48.2501,0.002655
67.669,48.2501,0.002655
67.691,48.2501,0.002655
67.723,48.2501,0.002655
67.753,48.2501,0.002655
67.768,48.2501,0.002655
67.784,48.2501,0.002655
67.799,48.2501,0.002655
67.815,48.2501,0.002655
67.830,48.2501,0.002655
67.861,48.2501,0.002655
67.892,48.2501,0.002655
67.913,48.2501,0.002626
67.932,48.2501,0.002626
67.954,48.2501,0.002626
67.969,48.2501,0.002626
67.985,48.2501,0.002626
68.000,48.2501,0.002626
68.016,48.2501,0.002626
68.046,48.2501,0.002626
68.062,48.2501,0.002626
68.078,48.2501,0.002626
68.094,48.2501,0.002626
68.109,48.2501,0.002626
68.126,48.2501,0.002626
68.156,48.2501,0.002617
68.174,48.2501,0.002617
68.203,48.2501,0.002617
68.234,48.2501,0.002617
68.266,48.2501,0.002617
68.281,48.2501,0.002617
68.298,48.2501,0.002617
68.327,48.2501,0.002617
68.345,48.2501,0.002617
68.361,48.2501,0.002617
68.377,48.2501,0.002617
68.393,48.2501,0.002476
68.409,48.2501,0.002476
68.425,48.2501,0.002476
68.441,48.2501,0.002476
68.457,48.2501,0.002476
68.473,48.2501,0.002476
68.490,48.2501,0.002476
68.506,48.2501,0.002476
68.521,48.2501,0.002476
68.537,48.2501,0.002476
68.554,48.2501,0.002476
68.569,48.2501,0.002476
68.585,48.2501,0.002476
68.601,48.2501,0.002476
68.617,48.2501,0.002476
68.633,48.2501,0.002127
68.649,48.2501,0.002127
68.665,48.2501,0.002127
68.681,48.2501,0.002127
68.697,48.2501,0.002127
68.713,48.2501,0.002127
68.737,48.2501,0.002127
68.759,48.2501,0.002127
68.777,48.2501,0.002127
68.793,48.2501,0.002127
68.808,48.2501,0.002127
68.824,48.2501,0.002127
68.840,48.2501,0.002127
68.859,48.2498,0.002127
68.883,48.2492,0.001741
68.905,48.2482,0.001741
68.922,48.2472,0.001741
68.937,48.2461,0.001741
68.953,48.2447,0.001741
68.978,48.2423,0.001741
69.008,48.2387,0.001741
69.024,48.2364,0.001741
69.042,48.2337,0.001741
69.057,48.2314,0.001741
69.072,48.2287,0.001741
69.089,48.2256,0.001741
69.104,48.2225,0.001741
69.121,48.2191,0.001741
69.136,48.2156,0.003455
69.153,48.2118,0.003455
69.168,48.2079,0.003455
69.184,48.2037,0.003455
69.201,48.1994,0.003455
69.216,48.1949,0.003455
69.232,48.1902,0.003455
69.248,48.1853,0.003455
69.265,48.1800,0.003455
69.280,48.1749,0.003455
69.299,48.1686,0.003455
69.319,48.1609,0.003455
69.351,48.1494,0.003455
69.381,48.1366,0.011701
69.397,48.1304,0.011701
69.428,48.1170,0.011701
69.458,48.1029,0.011701
69.474,48.0954,0.011701
69.490,48.0874,0.011701
69.521,48.0720,0.011701
69.537,48.0635,0.011701
69.553,48.0550,0.011701
69.568,48.0464,0.011701
69.584,48.0374,0.011701
69.601,48.0281,0.011701
69.616,48.0188,0.011701
69.633,48.0089,0.015889
69.648,47.9996,0.015889
69.664,47.9891,0.015889
69.681,47.9788,0.015889
69.697,47.9690,0.015889
69.712,47.9586,0.015889
69.729,47.9477,0.015889
69.744,47.9370,0.015889
69.760,47.9259,0.015889
69.777,47.9139,0.015889
69.793,47.9023,0.015889
69.809,47.8907,0.015889
69.827,47.8778,0.015889
69.859,47.8527,0.015889
69.889,47.8294,0.012802
69.904,47.8172,0.012802
69.920,47.8037,0.012802
69.936,47.7908,0.012802
69.952,47.7774,0.012802
69.972,47.7609,0.012802
69.997,47.7381,0.012802
70.016,47.7214,0.012802
70.032,47.7074,0.012802
70.048,47.6928,0.012802
70.064,47.6773,0.012802
70.089,47.6545,0.012802
70.105,47.6390,0.012802
70.121,47.6236,0.012802
70.137,47.6081,0.013226
70.153,47.5920,0.013226
70.169,47.5756,0.013226
70.185,47.5599,0.013226
70.201,47.5435,0.013226
70.220,47.5234,0.013226
70.245,47.4969,0.013226
70.265,47.4758,0.013226
70.281,47.4582,0.013226
70.298,47.4401,0.013226
70.313,47.4228,0.013226
70.329,47.4049,0.013226
70.346,47.3848,0.013226
70.361,47.3685,0.013226
70.377,47.3498,0.009037
70.393,47.3299,0.009037
70.409,47.3111,0.009037
70.425,47.2927,0.009037
70.441,47.2730,0.009037
70.457,47.2539,0.009037
70.473,47.2342,0.009037
70.490,47.2134,0.009037
70.505,47.1941,0.009037
70.521,47.1739,0.009037
70.537,47.1528,0.009037
70.553,47.1319,0.009037
70.569,47.1119,0.009037
70.585,47.0900,0.009037
70.602,47.0681,0.009037
70.631,47.0296,0.003596
70.650,47.0030,0.003596
70.670,46.9759,0.003596
70.693,46.9425,0.003596
70.713,46.9148,0.003596
70.729,46.8915,0.003596
70.745,46.8683,0.003596
70.762,46.8446,0.003596
70.777,46.8216,0.003596
70.794,46.7976,0.003596
70.810,46.7727,0.003596
70.826,46.7494,0.003596
70.848,46.7150,0.003596
70.879,46.6670,0.003596
70.910,46.6192,0.003596
70.941,46.5694,0.003765
70.972,46.5217,0.003765
70.987,46.4960,0.003765
71.003,46.4703,0.003765
71.018,46.4450,0.003765
71.033,46.4206,0.003765
71.050,46.3932,0.003765
71.070,46.3561,0.003765
71.096,46.3141,0.003765
71.113,46.2860,0.003765
71.129,46.2576,0.003765
71.145,46.2305,0.003765
71.161,46.2025,0.003765
71.189,46.1520,0.003954
71.204,46.1262,0.003954
71.220,46.0973,0.003954
71.236,46.0683,0.003954
71.252,46.0389,0.003954
71.268,46.0093,0.003954
71.284,45.9792,0.003954
71.300,45.9502,0.003954
71.315,45.9196,0.003954
71.332,45.8893,0.003954
71.348,45.8601,0.003954
71.365,45.8269,0.003954
71.389,45.7804,0.003954
71.420,45.7186,0.004283
71.438,45.6859,0.004283
71.468,45.6260,0.004283
71.483,45.5942,0.004283
71.499,45.5639,0.004283
71.530,45.5013,0.004283
71.545,45.4681,0.004283
71.575,45.4057,0.004283
71.591,45.3750,0.004283
71.622,45.3097,0.004283
71.637,45.2769,0.004283
71.653,45.2429,0.004707
71.669,45.2093,0.004707
71.700,45.1442,0.004707
71.716,45.1104,0.004707
71.745,45.0497,0.004707
71.761,45.0159,0.004707
71.777,44.9829,0.004707
71.792,44.9519,0.004707
71.809,44.9173,0.004707
71.825,44.8859,0.004707
71.841,44.8543,0.004707
71.856,44.8229,0.004707
71.878,44.7792,0.004707
71.901,44.7346,0.004707
71.920,44.6964,0.004961
71.937,44.6644,0.004961
71.953,44.6334,0.004961
71.975,44.5900,0.004961
71.991,44.5611,0.004961
72.007,44.5326,0.004961
72.037,44.4734,0.004961
72.053,44.4460,0.004961
72.069,44.4155,0.004961
72.100,44.3591,0.004961
72.131,44.3046,0.004961
72.161,44.2509,0.005196
72.178,44.2209,0.005196
72.193,44.1946,0.005196
72.209,44.1676,0.005196
72.225,44.1388,0.005196
72.247,44.0999,0.005196
72.272,44.0602,0.005196
72.290,44.0289,0.005196
72.316,43.9868,0.005196
72.335,43.9560,0.005196
72.350,43.9310,0.005196
72.366,43.9053,0.005196
72.384,43.8765,0.005196
72.410,43.8341,0.005676
72.431,43.8036,0.005676
72.447,43.7775,0.005676
72.462,43.7546,0.005676
72.478,43.7302,0.005676
72.494,43.7059,0.005676
72.511,43.6809,0.005676
72.526,43.6581,0.005676
72.542,43.6344,0.005676
72.558,43.6106,0.005676
72.575,43.5868,0.005676
72.591,43.5640,0.005676
72.606,43.5413,0.005676
72.622,43.5188,0.005676
72.639,43.4959,0.005676
72.654,43.4739,0.006109
72.671,43.4511,0.006109
72.687,43.4295,0.006109
72.702,43.4083,0.006109
72.718,43.3867,0.006109
72.735,43.3641,0.006109
72.750,43.3440,0.006109
72.767,43.3225,0.006109
72.782,43.3024,0.006109
72.809,43.2671,0.006109
72.826,43.2465,0.006109
72.842,43.2271,0.006109
72.857,43.2073,0.006109
72.874,43.1864,0.006109
72.890,43.1683,0.006109
72.905,43.1492,0.006486
72.921,43.1303,0.006486
72.938,43.1110,0.006486
72.954,43.0921,0.006486
72.969,43.0740,0.006486
72.985,43.0557,0.006486
73.002,43.0368,0.006486
73.018,43.0194,0.006486
73.034,43.0018,0.006486
73.049,42.9845,0.006486
73.065,42.9669,0.006486
73.081,42.9501,0.006486
73.098,42.9322,0.006486
73.121,42.9081,0.006486
73.151,42.8766,0.006486
73.182,42.8464,0.006843
73.198,42.8305,0.006843
73.228,42.8012,0.006843
73.259,42.7726,0.006843
73.289,42.7448,0.006843
73.307,42.7291,0.006843
73.337,42.7025,0.006843
73.366,42.6770,0.006843
73.390,42.6574,0.006843
73.414,42.6375,0.007211
73.434,42.6214,0.007211
73.461,42.5998,0.007211
73.479,42.5863,0.007211
73.494,42.5743,0.007211
73.510,42.5629,0.007211
73.526,42.5508,0.007211
73.542,42.5394,0.007211
73.558,42.5276,0.007211
73.574,42.5170,0.007211
73.590,42.5057,0.007211
73.606,42.4951,0.007211
73.622,42.4845,0.007211
73.638,42.4739,0.007211
73.654,42.4635,0.007549
73.670,42.4537,0.007549
73.686,42.4437,0.007549
73.702,42.4341,0.007549
73.718,42.4251,0.007549
73.734,42.4155,0.007549
73.750,42.4067,0.007549
73.767,42.3977,0.007549
73.782,42.3894,0.007549
73.798,42.3809,0.007549
73.814,42.3725,0.007549
73.830,42.3644,0.007549
73.846,42.3565,0.007549
73.862,42.3487,0.007549
73.878,42.3414,0.007549
73.894,42.3339,0.007549
73.925,42.3205,0.007851
73.941,42.3136,0.007851
73.957,42.3071,0.007851
73.973,42.3008,0.007851
73.992,42.2935,0.007851
74.020,42.2831,0.007851
74.037,42.2774,0.007851
74.054,42.2717,0.007851
74.082,42.2627,0.007851
74.101,42.2571,0.007851
74.118,42.2521,0.007851
74.144,42.2452,0.008105
74.165,42.2399,0.008105
74.181,42.2361,0.008105
74.197,42.2323,0.008105
74.213,42.2290,0.008105
74.229,42.2258,0.008105
74.245,42.2225,0.008105
74.261,42.2198,0.008105
74.277,42.2172,0.008105
74.293,42.2146,0.008105
74.310,42.2122,0.008105
74.325,42.2103,0.008105
74.341,42.2084,0.008105
74.357,42.2067,0.008105
74.373,42.2052,0.008105
74.389,42.2039,0.008237
74.405,42.2027,0.008237
74.421,42.2018,0.008237
74.437,42.2011,0.008237
74.453,42.2006,0.008237
74.482,42.2001,0.008237
74.498,42.2001,0.008237
74.514,42.2001,0.008237
74.530,42.2001,0.008237
74.546,42.2001,0.008237
74.562,42.2001,0.008237
74.578,42.2001,0.008237
74.594,42.2001,0.008237
74.611,42.2001,0.008237
74.626,42.2001,0.008237
74.642,42.2001,0.008284
74.658,42.2001,0.008284
74.676,42.2001,0.008284
74.699,42.2001,0.008284
74.714,42.2001,0.008284
74.730,42.2001,0.008284
74.760,42.2001,0.008284
74.791,42.2001,0.008284
74.810,42.2001,0.008284
74.838,42.2001,0.008284
74.868,42.2001,0.008284
74.898,42.2001,0.008350
74.916,42.2001,0.008350
74.945,42.2001,0.008350
74.962,42.2001,0.008350
74.977,42.2001,0.008350
74.993,42.2001,0.008350
75.009,42.2001,0.008350
75.038,42.2001,0.008350
75.069,42.2003,0.008350
75.085,42.2007,0.008350
75.102,42.2013,0.008350
75.117,42.2021,0.008350
75.133,42.2031,0.008387
75.149,42.2042,0.008387
75.165,42.2057,0.008387
75.181,42.2072,0.008387
75.197,42.2089,0.008387
75.212,42.2108,0.008387
75.229,42.2130,0.008387
75.245,42.2153,0.008387
75.261,42.2180,0.008387
75.277,42.2206,0.008387
75.293,42.2237,0.008387
75.318,42.2285,0.008387
75.333,42.2317,0.008387
75.349,42.2354,0.008387
75.379,42.2426,0.008387
75.395,42.2466,0.008293
75.426,42.2553,0.008293
75.456,42.2643,0.008293
75.472,42.2695,0.008293
75.503,42.2798,0.008293
75.534,42.2908,0.008293
75.549,42.2966,0.008293
75.565,42.3027,0.008293
75.580,42.3089,0.008293
75.596,42.3154,0.008293
75.613,42.3226,0.008293
75.628,42.3292,0.008161
75.644,42.3364,0.008161
75.667,42.3473,0.008161
75.690,42.3580,0.008161
75.708,42.3670,0.008161
75.724,42.3752,0.008161
75.740,42.3835,0.008161
75.757,42.3925,0.008161
75.772,42.4006,0.008161
75.788,42.4096,0.008161
75.805,42.4191,0.008161
75.821,42.4287,0.008161
75.836,42.4375,0.008161
75.853,42.4475,0.008161
75.869,42.4573,0.008161
75.884,42.4671,0.008048
75.900,42.4774,0.008048
75.917,42.4882,0.008048
75.932,42.4985,0.008048
75.948,42.5094,0.008048
75.964,42.5208,0.008048
75.982,42.5326,0.008048
76.000,42.5456,0.008048
76.030,42.5688,0.008048
76.062,42.5919,0.008048
76.078,42.6043,0.008048
76.094,42.6168,0.008048
76.124,42.6420,0.008048
76.156,42.6684,0.007841
76.172,42.6820,0.007841
76.187,42.6946,0.007841
76.203,42.7085,0.007841
76.220,42.7235,0.007841
76.248,42.7486,0.007841
76.267,42.7661,0.007841
76.283,42.7814,0.007841
76.299,42.7965,0.007841
76.315,42.8119,0.007841
76.331,42.8280,0.007841
76.347,42.8434,0.007841
76.363,42.8589,0.007841
76.379,42.8747,0.007502
76.395,42.8910,0.007502
76.412,42.9085,0.007502
76.433,42.9307,0.007502
76.449,42.9470,0.007502
76.466,42.9649,0.007502
76.495,42.9972,0.007502
76.526,43.0322,0.007502
76.557,43.0669,0.007502
76.588,43.1025,0.007502
76.604,43.1217,0.007502
76.619,43.1392,0.007502
76.635,43.1578,0.007116
76.651,43.1780,0.007116
76.667,43.1966,0.007116
76.683,43.2167,0.007116
76.709,43.2490,0.007116
76.725,43.2697,0.007116
76.741,43.2899,0.007116
76.757,43.3102,0.007116
76.773,43.3321,0.007116
76.790,43.3536,0.007116
76.820,43.3939,0.007116
76.837,43.4174,0.007116
76.853,43.4391,0.007116
76.869,43.4602,0.007116
76.885,43.4822,0.006749
76.901,43.5048,0.006749
76.918,43.5286,0.006749
76.933,43.5506,0.006749
76.949,43.5739,0.006749
76.966,43.5975,0.006749
76.981,43.6198,0.006749
76.997,43.6429,0.006749
77.013,43.6674,0.006749
77.029,43.6915,0.006749
77.045,43.7148,0.006749
77.061,43.7392,0.006749
77.077,43.7640,0.006749
77.093,43.7891,0.006749
77.109,43.8140,0.006749
77.125,43.8401,0.006749
77.141,43.8647,0.006749
77.158,43.8908,0.006749
77.174,43.9167,0.006749
77.205,43.9680,0.006392
77.221,43.9935,0.006392
77.250,44.0413,0.006392
77.267,44.0692,0.006392
77.283,44.0970,0.006392
77.314,44.1506,0.006392
77.331,44.1784,0.006392
77.346,44.2051,0.006392
77.362,44.2333,0.006392
77.378,44.2628,0.006392
77.394,44.2893,0.006392
77.410,44.3177,0.006024
77.426,44.3485,0.006024
77.446,44.3843,0.006024
77.468,44.4248,0.006024
77.491,44.4658,0.006024
77.507,44.4949,0.006024
77.522,44.5243,0.006024
77.537,44.5531,0.006024
77.554,44.5837,0.006024
77.570,44.6152,0.006024
77.585,44.6447,0.006024
77.602,44.6755,0.006024
77.618,44.7069,0.006024
77.633,44.7377,0.006024
77.649,44.7692,0.005601
77.665,44.8006,0.005601
77.681,44.8325,0.005601
77.698,44.8662,0.005601
77.714,44.8978,0.005601
77.730,44.9302,0.005601
77.746,44.9647,0.005601
77.776,45.0260,0.005601
77.807,45.0883,0.005601
77.823,45.1228,0.005601
77.839,45.1559,0.005601
77.855,45.1909,0.005601
77.870,45.2234,0.005601
77.886,45.2580,0.005601
77.902,45.2908,0.005074
77.919,45.3249,0.005074
77.935,45.3586,0.005074
77.951,45.3920,0.005074
77.967,45.4243,0.005074
77.983,45.4569,0.005074
77.999,45.4904,0.005074
78.014,45.5211,0.005074
78.030,45.5531,0.005074
78.046,45.5848,0.005074
78.063,45.6177,0.005074
78.078,45.6482,0.005074
78.094,45.6794,0.005074
78.111,45.7119,0.005074
78.127,45.7428,0.005074
78.143,45.7731,0.005074
78.158,45.8028,0.004791
78.175,45.8340,0.004791
78.191,45.8650,0.004791
78.206,45.8936,0.004791
78.223,45.9241,0.004791
78.238,45.9534,0.004791
78.254,45.9827,0.004791
78.271,46.0126,0.004791
78.287,46.0415,0.004791
78.303,46.0722,0.004791
78.333,46.1251,0.004791
78.363,46.1764,0.004791
78.379,46.2059,0.004791
78.395,46.2317,0.004631
78.410,46.2606,0.004631
78.434,46.3003,0.004631
78.457,46.3389,0.004631
78.475,46.3680,0.004631
78.491,46.3942,0.004631
78.507,46.4209,0.004631
78.523,46.4480,0.004631
78.538,46.4722,0.004631
78.555,46.4997,0.004631
78.580,46.5388,0.004631
78.595,46.5645,0.004631
78.612,46.5888,0.004631
78.628,46.6145,0.004631
78.659,46.6626,0.004236
78.690,46.7092,0.004236
78.720,46.7547,0.004236
78.751,46.7989,0.004236
78.782,46.8443,0.004236
78.812,46.8872,0.004236
78.828,46.9098,0.004236
78.843,46.9310,0.004236
78.860,46.9547,0.004236
78.890,46.9948,0.004236
78.920,47.0360,0.003841
78.937,47.0562,0.003841
78.953,47.0772,0.003841
78.968,47.0979,0.003841
78.985,47.1199,0.003841
79.000,47.1391,0.003841
79.016,47.1584,0.003841
79.032,47.1786,0.003841
79.049,47.1995,0.003841
79.064,47.2185,0.003841
79.080,47.2377,0.003841
79.096,47.2569,0.003841
79.113,47.2772,0.003841
79.128,47.2950,0.003841
79.144,47.3128,0.003558
79.160,47.3316,0.003558
79.176,47.3498,0.003558
79.192,47.3684,0.003558
79.208,47.3855,0.003558
79.225,47.4041,0.003558
79.240,47.4216,0.003558
79.256,47.4388,0.003558
79.272,47.4550,0.003558
79.288,47.4720,0.003558
79.307,47.4914,0.003558
79.325,47.5105,0.003558
79.341,47.5264,0.003558
79.356,47.5420,0.003558
79.387,47.5722,0.003361
79.403,47.5885,0.003361
79.434,47.6177,0.003361
79.465,47.6457,0.003361
79.481,47.6611,0.003361
79.496,47.6744,0.003361
79.512,47.6881,0.003361
79.528,47.7023,0.003361
79.544,47.7164,0.003361
79.560,47.7299,0.003361
79.576,47.7429,0.003361
79.592,47.7563,0.003361
79.608,47.7699,0.003361
79.624,47.7819,0.003361
79.640,47.7944,0.003153
79.656,47.8069,0.003153
79.672,47.8198,0.003153
79.688,47.8313,0.003153
79.704,47.8432,0.003153
79.720,47.8548,0.003153
79.736,47.8663,0.003153
79.752,47.8779,0.003153
79.768,47.8885,0.003153
79.784,47.8997,0.003153
79.802,47.9115,0.003153
79.822,47.9253,0.003153
79.838,47.9356,0.003153
79.869,47.9545,0.003153
79.899,47.9726,0.002880
79.914,47.9813,0.002880
79.930,47.9901,0.002880
79.946,47.9989,0.002880
79.962,48.0082,0.002880
79.978,48.0163,0.002880
80.002,48.0284,0.002880
80.018,48.0370,0.002880
80.033,48.0447,0.002880
80.050,48.0520,0.002880
80.067,48.0601,0.002880
80.082,48.0669,0.002880
80.098,48.0741,0.002880
80.114,48.0810,0.002880
80.130,48.0875,0.002880
80.146,48.0942,0.002250
80.162,48.1003,0.002250
80.179,48.1068,0.002250
80.194,48.1124,0.002250
80.211,48.1186,0.002250
80.226,48.1237,0.002250
80.242,48.1290,0.002250
80.259,48.1345,0.002250
80.286,48.1429,0.002250
80.308,48.1492,0.002250
80.333,48.1559,0.002250
80.354,48.1612,0.002250
80.371,48.1650,0.002250
80.386,48.1686,0.002250
80.402,48.1718,0.000706
80.418,48.1750,0.000706
80.434,48.1781,0.000706
80.449,48.1809,0.000706
80.465,48.1835,0.000706
80.482,48.1860,0.000706
80.498,48.1883,0.000706
80.513,48.1902,0.000706
80.530,48.1922,0.000706
80.551,48.1943,0.000706
80.567,48.1958,0.000706
80.582,48.1969,0.000706
80.599,48.1979,0.000706
80.615,48.1987,0.000706
80.630,48.1994,0.000706
80.648,48.1998,-0.001337
80.672,48.2001,-0.001337
80.705,48.2001,-0.001337
80.733,48.2001,-0.001337
80.749,48.2001,-0.001337
80.779,48.2001,-0.001337
80.809,48.2001,-0.001337
80.840,48.2001,-0.001337
80.859,48.2001,-0.001337
80.887,48.2001,-0.001186
80.902,48.2001,-0.001186
80.919,48.2001,-0.001186
80.935,48.2001,-0.001186
80.950,48.2001,-0.001186
80.966,48.2001,-0.001186
80.982,48.2001,-0.001186
80.999,48.2001,-0.001186
81.014,48.2001,-0.001186
81.031,48.2001,-0.001186
81.047,48.2001,-0.001186
81.062,48.2001,-0.001186
81.078,48.2001,-0.001186
81.106,48.2001,-0.001186
81.121,48.2001,-0.001186
81.137,48.2001,0.000602
81.153,48.2001,0.000602
81.169,48.2001,0.000602
81.185,48.2001,0.000602
81.201,48.2001,0.000602
81.220,48.2001,0.000602
81.243,48.2001,0.000602
81.259,48.2001,0.000602
81.290,48.2001,0.000602
81.321,48.2001,0.000602
81.336,48.2001,0.000602
81.353,48.2001,0.000602
81.383,48.2001,0.001506
81.399,48.2001,0.001506
81.429,48.2001,0.001506
81.461,48.2001,0.001506
81.491,48.2001,0.001506
81.508,48.2001,0.001506
81.538,48.2001,0.001506
81.553,48.2001,0.001506
81.569,48.2001,0.001506
81.586,48.2001,0.001506
81.601,48.2001,0.001506
81.629,48.2001,0.001506
81.645,48.2001,0.001506
81.661,48.2001,0.001939
81.677,48.2001,0.001939
81.694,48.2001,0.001939
81.710,48.2001,0.001939
81.737,48.2001,0.001939
81.759,48.2001,0.001939
81.784,48.2001,0.001939
81.805,48.2001,0.001939
81.821,48.2001,0.001939
81.837,48.2001,0.001939
81.853,48.2001,0.001939
81.869,48.2001,0.001939
81.885,48.2001,0.001939
81.901,48.2001,0.001939
81.917,48.2001,0.002184
81.933,48.2001,0.002184
81.949,48.2001,0.002184
81.965,48.2001,0.002184
81.981,48.2001,0.002184
81.997,48.2001,0.002184
82.013,48.2001,0.002184
82.029,48.2001,0.002184
82.045,48.2001,0.002184
82.061,48.2001,0.002184
82.077,48.2001,0.002184
82.093,48.2001,0.002184
82.109,48.2001,0.002184
82.125,48.2001,0.002184
82.141,48.2001,0.002184
82.157,48.2001,0.002184
82.187,48.2001,0.002297
82.205,48.2001,0.002297
82.234,48.2001,0.002297
82.251,48.2001,0.002297
82.268,48.2001,0.002297
82.283,48.2001,0.002297
82.299,48.2001,0.002297
82.317,48.2001,0.002297
82.343,48.2001,0.002297
82.363,48.2001,0.002297
82.380,48.2001,0.002297
82.405,48.2001,0.002297
82.435,48.2001,0.002419
82.465,48.2001,0.002419
82.481,48.2001,0.002419
82.511,48.2001,0.002419
82.542,48.2001,0.002419
82.558,48.2001,0.002419
82.590,48.2001,0.002419
82.605,48.2001,0.002419
82.636,48.2001,0.002419
82.651,48.2001,0.002495
82.667,48.2001,0.002495
82.683,48.2001,0.002495
82.699,48.2001,0.002495
82.715,48.2001,0.002495
82.743,48.2001,0.002495
82.759,48.2001,0.002495
82.775,48.2001,0.002495
82.792,48.2001,0.002495
82.807,48.2001,0.002495
82.823,48.2001,0.002495
82.839,48.2001,0.002495
82.855,48.2001,0.002495
82.871,48.2001,0.002495
82.887,48.2001,0.002495
82.903,48.2001,0.002532
82.920,48.2001,0.002532
82.939,48.2001,0.002532
82.963,48.2001,0.002532
82.983,48.2001,0.002532
83.000,48.2001,0.002532
83.024,48.2001,0.002532
83.055,48.2001,0.002532
83.070,48.2001,0.002532
83.086,48.2001,0.002532
83.116,48.2001,0.002532
83.148,48.2001,0.002532
83.178,48.2001,0.002579
83.194,48.2001,0.002579
83.210,48.2001,0.002579
83.225,48.2001,0.002579
83.256,48.2001,0.002579
83.287,48.2001,0.002579
83.304,48.2001,0.002579
83.319,48.2001,0.002579
83.335,48.2001,0.002579
83.351,48.2001,0.002579
83.367,48.2001,0.002579
83.383,48.2001,0.002579
83.399,48.2001,0.002645
83.415,48.2001,0.002645
83.431,48.2001,0.002645
83.447,48.2001,0.002645
83.463,48.2001,0.002645
83.479,48.2001,0.002645
83.495,48.2001,0.002645
83.511,48.2001,0.002645
83.527,48.2001,0.002645
83.543,48.2001,0.002645
83.559,48.2001,0.002645
83.574,48.2001,0.002645
83.590,48.2001,0.002645
83.606,48.2001,0.002645
83.623,48.2001,0.002645
83.638,48.2001,0.002692
83.654,48.2001,0.002692
83.671,48.2001,0.002692
83.686,48.2001,0.002692
83.702,48.2001,0.002692
83.719,48.2001,0.002692
83.734,48.2001,0.002692
83.751,48.2001,0.002692
83.767,48.2001,0.002692
83.782,48.2001,0.002692
83.799,48.2001,0.002692
83.823,48.2001,0.002692
83.839,48.2001,0.002692
83.854,48.2001,0.002692
83.871,48.2001,0.002692
83.887,48.2001,0.002692
83.903,48.2001,0.002720
83.918,48.2001,0.002720
83.934,48.2001,0.002720
83.951,48.2001,0.002720
83.966,48.2001,0.002720
83.982,48.2001,0.002720
83.999,48.2001,0.002720
84.014,48.2001,0.002720
84.030,48.2001,0.002720
84.046,48.2001,0.002720
84.062,48.2001,0.002720
84.078,48.2001,0.002720
84.094,48.2001,0.002720
84.110,48.2001,0.002720
84.126,48.2001,0.002720
84.142,48.2001,0.002720
84.158,48.2001,0.002720
84.174,48.2001,0.002720
84.190,48.2001,0.002720
84.206,48.2001,0.002720
84.222,48.2001,0.002720
84.238,48.2001,0.002720
84.254,48.2001,0.002720
84.270,48.2001,0.002720
84.287,48.2001,0.002720
84.302,48.2001,0.002720
84.318,48.2001,0.002720
84.334,48.2001,0.002720
84.350,48.2001,0.002720
84.374,48.2001,0.002720
84.389,48.2001,0.002720
84.405,48.2001,0.002702
84.421,48.2001,0.002702
84.437,48.2001,0.002702
84.453,48.2001,0.002702
84.470,48.2001,0.002702
84.485,48.2001,0.002702
84.502,48.2001,0.002702
84.518,48.2001,0.002702
84.534,48.2001,0.002702
84.549,48.2001,0.002702
84.567,48.2001,0.002702
84.588,48.2001,0.002702
84.618,48.2001,0.002702
84.634,48.2001,0.002702
84.649,48.2001,0.002702
84.664,48.2001,0.002702
84.695,48.2001,0.002702
84.710,48.2001,0.002702
84.741,48.2001,0.002702
84.757,48.2001,0.002702
84.773,48.2001,0.002702
84.789,48.2001,0.002702
84.806,48.2001,0.002702
84.821,48.2001,0.002702
84.837,48.2001,0.002702
84.854,48.2001,0.002702
84.870,48.2001,0.002702
84.898,48.2001,0.002702
84.917,48.2001,0.002523
84.933,48.2001,0.002523
84.949,48.2001,0.002523
84.965,48.2001,0.002523
84.981,48.2001,0.002523
84.997,48.2001,0.002523
85.013,48.2001,0.002523
85.029,48.2001,0.002523
85.046,48.2001,0.002523
85.061,48.2001,0.002523
85.077,48.2001,0.002523
85.093,48.2001,0.002523
85.109,48.2001,0.002523
85.125,48.2001,0.002222
85.141,48.2001,0.002222
85.157,48.2001,0.002222
85.173,48.2001,0.002222
85.189,48.2001,0.002222
85.205,48.2001,0.002222
85.221,48.2001,0.002222
85.237,48.2001,0.002222
85.253,48.2001,0.002222
85.270,48.2001,0.002222
85.289,48.2001,0.002222
85.305,48.2001,0.002222
85.330,48.2001,0.002222
85.350,48.2001,0.002222
85.376,48.2001,0.001939
85.397,48.2001,0.001939
85.413,48.1998,0.001939
85.429,48.1995,0.001939
85.445,48.1989,0.001939
85.470,48.1976,0.001939
85.487,48.1965,0.001939
85.517,48.1940,0.001939
85.534,48.1922,0.001939
85.550,48.1904,0.001939
85.566,48.1884,0.001939
85.582,48.1862,0.001939
85.601,48.1831,0.001939
85.624,48.1793,0.001939
85.646,48.1753,0.002899
85.663,48.1716,0.002899
85.686,48.1667,0.002899
85.717,48.1595,0.002899
85.748,48.1514,0.002899
85.779,48.1428,0.002899
85.794,48.1381,0.002899
85.825,48.1284,0.002899
85.857,48.1177,0.002899
85.872,48.1118,0.002899
85.888,48.1062,0.010213
85.904,48.1000,0.010213
85.934,48.0880,0.010213
85.950,48.0814,0.010213
85.966,48.0743,0.010213
85.982,48.0674,0.010213
85.998,48.0603,0.010213
86.026,48.0468,0.010213
86.042,48.0392,0.010213
86.058,48.0312,0.010213
86.074,48.0227,0.010213
86.090,48.0143,0.010213
86.106,48.0060,0.010213
86.122,47.9974,0.010213
86.138,47.9884,0.016435
86.155,47.9788,0.016435
86.170,47.9697,0.016435
86.186,47.9605,0.016435
86.204,47.9487,0.016435
86.220,47.9393,0.016435
86.236,47.9292,0.016435
86.258,47.9148,0.016435
86.288,47.8944,0.016435
86.304,47.8833,0.016435
86.320,47.8730,0.016435
86.350,47.8510,0.016435
86.382,47.8278,0.013856
86.413,47.8041,0.013856
86.443,47.7800,0.013856
86.474,47.7551,0.013856
86.490,47.7422,0.013856
86.513,47.7217,0.013856
86.539,47.6999,0.013856
86.568,47.6747,0.013856
86.596,47.6498,0.013856
86.612,47.6348,0.013856
86.627,47.6203,0.013932
86.644,47.6052,0.013932
86.659,47.5900,0.013932
86.675,47.5746,0.013932
86.692,47.5579,0.013932
86.707,47.5431,0.013932
86.724,47.5262,0.013932
86.740,47.5100,0.013932
86.755,47.4945,0.013932
86.771,47.4779,0.013932
86.788,47.4598,0.013932
86.803,47.4437,0.013932
86.819,47.4266,0.013932
86.835,47.4094,0.013932
86.852,47.3911,0.013932
86.868,47.3735,0.013932
86.884,47.3549,0.010147
86.900,47.3373,0.010147
86.916,47.3184,0.010147
86.931,47.3008,0.010147
86.947,47.2822,0.010147
86.964,47.2627,0.010147
86.979,47.2438,0.010147
86.995,47.2247,0.010147
87.012,47.2048,0.010147
87.027,47.1855,0.010147
87.044,47.1650,0.010147
87.059,47.1454,0.010147
87.075,47.1249,0.010147
87.092,47.1040,0.010147
87.108,47.0825,0.010147
87.124,47.0622,0.010147
87.155,47.0208,0.003709
87.170,47.0003,0.003709
87.187,46.9775,0.003709
87.202,46.9570,0.003709
87.219,46.9341,0.003709
87.234,46.9125,0.003709
87.251,46.8893,0.003709
87.266,46.8678,0.003709
87.282,46.8440,0.003709
87.299,46.8208,0.003709
87.314,46.7984,0.003709
87.331,46.7732,0.003709
87.347,46.7499,0.003709
87.370,46.7167,0.003709
87.400,46.6711,0.003765
87.431,46.6235,0.003765
87.462,46.5758,0.003765
87.492,46.5268,0.003765
87.523,46.4780,0.003765
87.538,46.4534,0.003765
87.554,46.4269,0.003765
87.571,46.3993,0.003765
87.588,46.3716,0.003765
87.617,46.3235,0.003765
87.634,46.2940,0.003888
87.651,46.2656,0.003888
87.666,46.2392,0.003888
87.684,46.2088,0.003888
87.708,46.1656,0.003888
87.724,46.1380,0.003888
87.740,46.1091,0.003888
87.756,46.0809,0.003888
87.772,46.0525,0.003888
87.788,46.0232,0.003888
87.804,45.9943,0.003888
87.821,45.9632,0.003888
87.839,45.9291,0.003888
87.854,45.9010,0.003888
87.877,45.8587,0.003888
87.893,45.8294,0.004245
87.908,45.8002,0.004245
87.939,45.7412,0.004245
87.970,45.6806,0.004245
87.999,45.6230,0.004245
88.016,45.5888,0.004245
88.047,45.5271,0.004245
88.077,45.4669,0.004245
88.092,45.4357,0.004245
88.108,45.4032,0.004245
88.124,45.3711,0.004245
88.141,45.3352,0.004245
88.156,45.3034,0.004245
88.172,45.2704,0.004697
88.188,45.2369,0.004697
88.205,45.2012,0.004697
88.220,45.1683,0.004697
88.236,45.1335,0.004697
88.262,45.0789,0.004697
88.277,45.0470,0.004697
88.293,45.0147,0.004697
88.309,44.9808,0.004697
88.326,44.9450,0.004697
88.354,44.8890,0.004697
88.373,44.8499,0.004697
88.389,44.8175,0.004697
88.405,44.7857,0.004697
88.421,44.7539,0.004989
88.438,44.7202,0.004989
88.463,44.6703,0.004989
88.485,44.6275,0.004989
88.501,44.5973,0.004989
88.517,44.5662,0.004989
88.533,44.5371,0.004989
88.549,44.5069,0.004989
88.565,44.4759,0.004989
88.583,44.4428,0.004989
88.601,44.4078,0.004989
88.617,44.3798,0.004989
88.648,44.3220,0.004989
88.678,44.2684,0.005300
88.697,44.2357,0.005300
88.726,44.1837,0.005300
88.756,44.1308,0.005300
88.773,44.1022,0.005300
88.789,44.0751,0.005300
88.817,44.0281,0.005300
88.833,44.0007,0.005300
88.849,43.9736,0.005300
88.864,43.9480,0.005300
88.882,43.9184,0.005300
88.898,43.8940,0.005300
88.927,43.8460,0.005723
88.946,43.8157,0.005723
88.961,43.7922,0.005723
88.977,43.7675,0.005723
88.993,43.7431,0.005723
89.014,43.7087,0.005723
89.037,43.6729,0.005723
89.057,43.6440,0.005723
89.073,43.6212,0.005723
89.090,43.5961,0.005723
89.113,43.5615,0.005723
89.144,43.5157,0.005723
89.175,43.4724,0.006147
89.206,43.4284,0.006147
89.221,43.4077,0.006147
89.237,43.3855,0.006147
89.253,43.3637,0.006147
89.268,43.3433,0.006147
89.299,43.3030,0.006147
89.330,43.2601,0.006147
89.346,43.2411,0.006147
89.376,43.2033,0.006147
89.392,43.1830,0.006147
89.408,43.1633,0.006542
89.424,43.1439,0.006542
89.441,43.1232,0.006542
89.469,43.0890,0.006542
89.488,43.0668,0.006542
89.504,43.0477,0.006542
89.520,43.0296,0.006542
89.535,43.0113,0.006542
89.552,42.9933,0.006542
89.567,42.9746,0.006542
89.584,42.9569,0.006542
89.599,42.9400,0.006542
89.616,42.9224,0.006542
89.632,42.9044,0.006542
89.647,42.8884,0.006542
89.663,42.8717,0.006956
89.679,42.8548,0.006956
89.695,42.8382,0.006956
89.711,42.8224,0.006956
89.727,42.8064,0.006956
89.744,42.7896,0.006956
89.770,42.7644,0.006956
89.795,42.7408,0.006956
89.826,42.7116,0.006956
89.842,42.6972,0.006956
89.874,42.6675,0.006956
89.903,42.6430,0.006956
89.920,42.6280,0.007333
89.935,42.6152,0.007333
89.952,42.6014,0.007333
89.967,42.5890,0.007333
89.988,42.5724,0.007333
90.011,42.5541,0.007333
90.031,42.5384,0.007333
90.048,42.5252,0.007333
90.063,42.5142,0.007333
90.080,42.5021,0.007333
90.095,42.4907,0.007333
90.111,42.4789,0.007333
90.127,42.4682,0.007333
90.144,42.4568,0.007681
90.159,42.4464,0.007681
90.175,42.4357,0.007681
90.192,42.4248,0.007681
90.208,42.4150,0.007681
90.223,42.4051,0.007681
90.240,42.3951,0.007681
90.256,42.3855,0.007681
90.271,42.3763,0.007681
90.287,42.3670,0.007681
90.304,42.3577,0.007681
90.319,42.3490,0.007681
90.336,42.3401,0.007681
90.351,42.3318,0.007681
90.367,42.3235,0.007681
90.384,42.3153,0.007992
90.399,42.3076,0.007992
90.419,42.2978,0.007992
90.441,42.2877,0.007992
90.457,42.2803,0.007992
90.473,42.2735,0.007992
90.490,42.2664,0.007992
90.506,42.2597,0.007992
90.522,42.2534,0.007992
90.537,42.2475,0.007992
90.554,42.2411,0.007992
90.569,42.2354,0.007992
90.585,42.2299,0.007992
90.602,42.2240,0.007992
90.618,42.2191,0.007992
90.633,42.2140,0.008208
90.650,42.2090,0.008208
90.666,42.2042,0.008208
90.681,42.2000,0.008208
90.697,42.1957,0.008208
90.713,42.1917,0.008208
90.730,42.1874,0.008208
90.746,42.1837,0.008208
90.761,42.1804,0.008208
90.777,42.1769,0.008208
90.793,42.1739,0.008208
90.809,42.1711,0.008208
90.825,42.1682,0.008208
90.841,42.1657,0.008208
90.858,42.1633,0.008208
90.878,42.1605,0.008331
90.909,42.1571,0.008331
90.940,42.1542,0.008331
90.970,42.1521,0.008331
90.985,42.1515,0.008331
91.003,42.1507,0.008331
91.032,42.1501,0.008331
91.050,42.1501,0.008331
91.066,42.1501,0.008331
91.094,42.1501,0.008331
91.117,42.1501,0.008331
91.141,42.1501,0.008397
91.161,42.1501,0.008397
91.177,42.1501,0.008397
91.193,42.1501,0.008397
91.209,42.1501,0.008397
91.227,42.1505,0.008397
91.249,42.1511,0.008397
91.265,42.1518,0.008397
91.295,42.1537,0.008397
91.310,42.1548,0.008397
91.326,42.1563,0.008397
91.357,42.1595,0.008397
91.373,42.1616,0.008397
91.389,42.1638,0.008500
91.406,42.1665,0.008500
91.435,42.1713,0.008500
91.465,42.1770,0.008500
91.481,42.1804,0.008500
91.497,42.1838,0.008500
91.527,42.1909,0.008500
91.543,42.1951,0.008500
91.559,42.1992,0.008500
91.575,42.2037,0.008500
91.591,42.2086,0.008500
91.607,42.2131,0.008500
91.623,42.2183,0.008500
91.639,42.2234,0.008397
91.655,42.2292,0.008397
91.671,42.2344,0.008397
91.687,42.2404,0.008397
91.703,42.2464,0.008397
91.719,42.2527,0.008397
91.735,42.2591,0.008397
91.750,42.2655,0.008397
91.767,42.2723,0.008397
91.783,42.2796,0.008397
91.799,42.2867,0.008397
91.814,42.2937,0.008397
91.830,42.3013,0.008397
91.847,42.3094,0.008397
91.863,42.3170,0.008397
91.879,42.3254,0.008227
91.896,42.3339,0.008227
91.911,42.3427,0.008227
91.927,42.3512,0.008227
91.943,42.3597,0.008227
91.959,42.3690,0.008227
91.975,42.3784,0.008227
91.991,42.3879,0.008227
92.007,42.3978,0.008227
92.023,42.4073,0.008227
92.039,42.4174,0.008227
92.069,42.4367,0.008227
92.084,42.4470,0.008227
92.099,42.4574,0.008227
92.116,42.4685,0.008227
92.133,42.4804,0.008227
92.148,42.4912,0.008227
92.163,42.5026,0.008095
92.180,42.5144,0.008095
92.197,42.5276,0.008095
92.212,42.5388,0.008095
92.227,42.5510,0.008095
92.243,42.5632,0.008095
92.260,42.5771,0.008095
92.276,42.5898,0.008095
92.291,42.6027,0.008095
92.307,42.6154,0.008095
92.323,42.6291,0.008095
92.340,42.6435,0.008095
92.355,42.6569,0.008095
92.371,42.6708,0.008095
92.388,42.6859,0.008095
92.403,42.6998,0.008095
92.419,42.7142,0.007851
92.436,42.7303,0.007851
92.454,42.7480,0.007851
92.476,42.7680,0.007851
92.500,42.7911,0.007851
92.516,42.8077,0.007851
92.545,42.8366,0.007851
92.564,42.8556,0.007851
92.580,42.8723,0.007851
92.595,42.8887,0.007851
92.623,42.9188,0.007851
92.644,42.9406,0.007851
92.670,42.9689,0.007615
92.688,42.9905,0.007615
92.716,43.0212,0.007615
92.734,43.0428,0.007615
92.751,43.0623,0.007615
92.768,43.0831,0.007615
92.793,43.1129,0.007615
92.815,43.1392,0.007615
92.830,43.1583,0.007615
92.847,43.1789,0.007615
92.863,43.1982,0.007615
92.879,43.2188,0.007615
92.895,43.2397,0.007615
92.910,43.2589,0.007248
92.926,43.2802,0.007248
92.943,43.3015,0.007248
92.958,43.3225,0.007248
92.975,43.3440,0.007248
92.991,43.3657,0.007248
93.006,43.3870,0.007248
93.022,43.4087,0.007248
93.038,43.4316,0.007248
93.054,43.4536,0.007248
93.070,43.4760,0.007248
93.087,43.4997,0.007248
93.103,43.5224,0.007248
93.122,43.5508,0.007248
93.150,43.5927,0.007248
93.167,43.6162,0.007248
93.182,43.6384,0.007248
93.198,43.6632,0.006740
93.214,43.6866,0.006740
93.229,43.7108,0.006740
93.245,43.7356,0.006740
93.263,43.7630,0.006740
93.289,43.8041,0.006740
93.309,43.8361,0.006740
93.326,43.8642,0.006740
93.342,43.8882,0.006740
93.357,43.9137,0.006740
93.373,43.9399,0.006740
93.389,43.9664,0.006740
93.405,43.9927,0.006345
93.421,44.0195,0.006345
93.437,44.0473,0.006345
93.454,44.0757,0.006345
93.474,44.1102,0.006345
93.490,44.1367,0.006345
93.521,44.1925,0.006345
93.552,44.2473,0.006345
93.583,44.3025,0.006345
93.599,44.3312,0.006345
93.615,44.3596,0.006345
93.632,44.3911,0.006345
93.662,44.4471,0.006345
93.691,44.5023,0.006043
93.708,44.5328,0.006043
93.723,44.5624,0.006043
93.739,44.5932,0.006043
93.757,44.6281,0.006043
93.785,44.6847,0.006043
93.803,44.7175,0.006043
93.821,44.7535,0.006043
93.840,44.7913,0.006043
93.863,44.8396,0.006043
93.883,44.8786,0.006043
93.899,44.9100,0.006043
93.915,44.9436,0.005610
93.931,44.9756,0.005610
93.947,45.0105,0.005610
93.963,45.0430,0.005610
93.979,45.0771,0.005610
93.995,45.1102,0.005610
94.012,45.1469,0.005610
94.033,45.1913,0.005610
94.048,45.2234,0.005610
94.064,45.2574,0.005610
94.080,45.2886,0.005610
94.095,45.3215,0.005610
94.111,45.3533,0.005610
94.142,45.4173,0.005610
94.157,45.4489,0.005158
94.173,45.4800,0.005158
94.189,45.5133,0.005158
94.205,45.5444,0.005158
94.220,45.5743,0.005158
94.236,45.6042,0.005158
94.251,45.6337,0.005158
94.267,45.6662,0.005158
94.283,45.6959,0.005158
94.299,45.7269,0.005158
94.315,45.7593,0.005158
94.331,45.7882,0.005158
94.347,45.8176,0.005158
94.363,45.8495,0.005158
94.379,45.8790,0.005158
94.395,45.9069,0.005158
94.411,45.9365,0.004857
94.428,45.9677,0.004857
94.443,45.9947,0.004857
94.459,46.0235,0.004857
94.475,46.0518,0.004857
94.491,46.0802,0.004857
94.507,46.1091,0.004857
94.523,46.1368,0.004857
94.539,46.1639,0.004857
94.555,46.1919,0.004857
94.571,46.2206,0.004857
94.587,46.2469,0.004857
94.603,46.2735,0.004857
94.620,46.3029,0.004857
94.637,46.3321,0.004857
94.667,46.3817,0.004575
94.686,46.4119,0.004575
94.714,46.4556,0.004575
94.731,46.4836,0.004575
94.747,46.5098,0.004575
94.763,46.5333,0.004575
94.779,46.5589,0.004575
94.807,46.6023,0.004575
94.838,46.6499,0.004575
94.854,46.6740,0.004575
94.870,46.6967,0.004575
94.886,46.7211,0.004575
94.902,46.7441,0.004198
94.918,46.7668,0.004198
94.940,46.7996,0.004198
94.965,46.8353,0.004198
94.983,46.8592,0.004198
95.010,46.8969,0.004198
95.029,46.9244,0.004198
95.045,46.9457,0.004198
95.063,46.9698,0.004198
95.078,46.9895,0.004198
95.093,47.0097,0.004198
95.109,47.0304,0.004198
95.125,47.0513,0.004198
95.141,47.0722,0.004198
95.157,47.0921,0.003841
95.174,47.1127,0.003841
95.189,47.1325,0.003841
95.206,47.1523,0.003841
95.222,47.1719,0.003841
95.238,47.1910,0.003841
95.254,47.2109,0.003841
95.270,47.2296,0.003841
95.286,47.2482,0.003841
95.304,47.2693,0.003841
95.331,47.3017,0.003841
95.363,47.3361,0.003841
95.378,47.3531,0.003841
95.394,47.3714,0.003605
95.410,47.3881,0.003605
95.427,47.4065,0.003605
95.443,47.4228,0.003605
95.458,47.4386,0.003605
95.474,47.4552,0.003605
95.491,47.4727,0.003605
95.506,47.4878,0.003605
95.522,47.5037,0.003605
95.538,47.5193,0.003605
95.554,47.5353,0.003605
95.570,47.5508,0.003605
95.587,47.5657,0.003605
95.602,47.5811,0.003605
95.619,47.5955,0.003605
95.634,47.6095,0.003605
95.650,47.6239,0.003379
95.666,47.6381,0.003379
95.682,47.6524,0.003379
95.699,47.6659,0.003379
95.715,47.6802,0.003379
95.731,47.6937,0.003379
95.746,47.7060,0.003379
95.762,47.7193,0.003379
95.779,47.7323,0.003379
95.795,47.7458,0.003379
95.811,47.7582,0.003379
95.827,47.7696,0.003379
95.842,47.7815,0.003379
95.859,47.7937,0.003379
95.876,47.8060,0.003379
95.903,47.8254,0.003379
95.922,47.8383,0.003172
95.939,47.8500,0.003172
95.965,47.8675,0.003172
95.986,47.8809,0.003172
96.001,47.8907,0.003172
96.018,47.9011,0.003172
96.033,47.9101,0.003172
96.050,47.9201,0.003172
96.065,47.9291,0.003172
96.081,47.9382,0.003172
96.098,47.9477,0.003172
96.115,47.9571,0.003172
96.134,47.9673,0.003172
96.165,47.9834,0.002824
96.186,47.9935,0.002824
96.211,48.0056,0.002824
96.227,48.0128,0.002824
96.242,48.0195,0.002824
96.257,48.0262,0.002824
96.274,48.0333,0.002824
96.291,48.0406,0.002824
96.307,48.0467,0.002824
96.322,48.0526,0.002824
96.337,48.0585,0.002824
96.354,48.0644,0.002824
96.370,48.0704,0.002824
96.385,48.0753,0.001826
96.401,48.0808,0.001826
96.418,48.0860,0.001826
96.434,48.0910,0.001826
96.449,48.0955,0.001826
96.474,48.1024,0.001826
96.489,48.1062,0.001826
96.506,48.1106,0.001826
96.521,48.1141,0.001826
96.539,48.1182,0.001826
96.565,48.1237,0.001826
96.585,48.1275,0.001826
96.601,48.1305,0.001826
96.618,48.1332,0.001826
96.642,48.1368,-0.000160
96.657,48.1390,-0.000160
96.688,48.1425,-0.000160
96.704,48.1442,-0.000160
96.720,48.1457,-0.000160
96.750,48.1478,-0.000160
96.782,48.1492,-0.000160
96.813,48.1500,-0.000160
96.843,48.1501,-0.000160
96.875,48.1501,-0.001591
96.905,48.1501,-0.001591
96.921,48.1501,-0.001591
96.937,48.1501,-0.001591
96.953,48.1501,-0.001591
96.969,48.1501,-0.001591
96.985,48.1501,-0.001591
97.001,48.1501,-0.001591
97.030,48.1501,-0.001591
97.046,48.1501,-0.001591
97.062,48.1501,-0.001591
97.079,48.1501,-0.001591
97.099,48.1501,-0.001591
97.115,48.1501,-0.001591
97.138,48.1501,-0.000555
97.158,48.1501,-0.000555
97.174,48.1501,-0.000555
97.190,48.1501,-0.000555
97.206,48.1501,-0.000555
97.222,48.1501,-0.000555
97.238,48.1501,-0.000555
97.254,48.1501,-0.000555
97.270,48.1501,-0.000555
97.288,48.1501,-0.000555
97.308,48.1501,-0.000555
97.339,48.1501,-0.000555
97.371,48.1501,-0.000555
