Elapsed Time (s),Position (mm),Force (N)
-0.016,51.7000,0.000546
0.001,51.7000,0.000734
0.016,51.7000,0.000734
0.039,51.7000,0.000734
0.055,51.7000,0.000734
0.078,51.7000,0.000734
0.096,51.7000,0.000734
0.118,51.7000,0.000734
0.134,51.7000,0.000734
0.150,51.7000,0.000734
0.166,51.7000,0.000734
0.183,51.7000,0.000734
0.203,51.7000,0.000734
0.234,51.7000,0.000734
0.249,51.7000,0.000734
0.265,51.7000,0.000828
0.280,51.7000,0.000828
0.312,51.7000,0.000828
0.327,51.7000,0.000828
0.342,51.7000,0.000828
0.361,51.7000,0.000828
0.389,51.7000,0.000828
0.406,51.7000,0.000828
0.426,51.7000,0.000828
0.450,51.7000,0.000828
0.470,51.7000,0.000828
0.487,51.7000,0.000828
0.513,51.7000,0.000828
0.543,51.7000,0.000819
0.574,51.7000,0.000819
0.589,51.7000,0.000819
0.605,51.7000,0.000819
0.636,51.7000,0.000819
0.652,51.7000,0.000819
0.673,51.7000,0.000819
0.689,51.7000,0.000819
0.705,51.7000,0.000819
0.720,51.7000,0.000819
0.738,51.7000,0.000819
0.760,51.7000,0.000819
0.791,51.7000,0.000866
0.807,51.7000,0.000866
0.822,51.7000,0.000866
0.852,51.7000,0.000866
0.868,51.7000,0.000866
0.899,51.7000,0.000866
0.930,51.7000,0.000866
0.960,51.7000,0.000866
0.979,51.7000,0.000866
1.007,51.7000,0.000951
1.024,51.7000,0.000951
1.042,51.7000,0.000951
1.061,51.7000,0.000951
1.085,51.7000,0.000951
1.105,51.7000,0.000951
1.121,51.7000,0.000951
1.137,51.7000,0.000951
1.152,51.7000,0.000951
1.168,51.7000,0.000951
1.185,51.7000,0.000951
1.208,51.7000,0.000951
1.231,51.7000,0.000951
1.247,51.7000,0.000951
1.262,51.7000,0.000941
1.279,51.7000,0.000941
1.294,51.7000,0.000941
1.310,51.7000,0.000941
1.326,51.7000,0.000941
1.342,51.7000,0.000941
1.359,51.7000,0.000941
1.379,51.7000,0.000941
1.410,51.7000,0.000941
1.426,51.7000,0.000941
1.441,51.7000,0.000941
1.457,51.7000,0.000941
1.487,51.7000,0.000941
1.504,51.7000,0.000941
1.533,51.7000,0.000941
1.551,51.7000,0.000941
1.567,51.7000,0.000941
1.583,51.7000,0.000941
1.598,51.7000,0.000941
1.615,51.7000,0.000941
1.630,51.7000,0.000941
1.647,51.7000,0.000941
1.663,51.7000,0.000941
1.679,51.7000,0.000941
1.694,51.7000,0.000941
1.710,51.7000,0.000941
1.728,51.7000,0.000941
1.750,51.7000,0.000941
1.766,51.7000,0.000941
1.788,51.7000,0.000951
1.812,51.7000,0.000951
1.843,51.7000,0.000951
1.859,51.7000,0.000951
1.889,51.7000,0.000951
1.920,51.7000,0.000951
1.950,51.7000,0.000951
1.981,51.7000,0.000951
2.011,51.7000,0.000941
2.028,51.7000,0.000941
2.044,51.7000,0.000941
2.073,51.7000,0.000941
2.090,51.7000,0.000941
2.106,51.7000,0.000941
2.122,51.7000,0.000941
2.138,51.7000,0.000941
2.157,51.7000,0.000941
2.183,51.7000,0.000941
2.202,51.7000,0.000941
2.218,51.7000,0.000941
2.234,51.7000,0.000941
2.250,51.7000,0.000998
2.266,51.7000,0.000998
2.283,51.7000,0.000998
2.308,51.7000,0.000998
2.323,51.7000,0.000998
2.346,51.7000,0.000998
2.362,51.7000,0.000998
2.378,51.7000,0.000998
2.394,51.7000,0.000998
2.410,51.7000,0.000998
2.426,51.7000,0.000998
2.442,51.7000,0.000998
2.458,51.7000,0.000998
2.474,51.7000,0.000998
2.490,51.7000,0.000979
2.506,51.7000,0.000979
2.522,51.7000,0.000979
2.538,51.7000,0.000979
2.554,51.7000,0.000979
2.570,51.7000,0.000979
2.586,51.7000,0.000979
2.602,51.7000,0.000979
2.618,51.7000,0.000979
2.634,51.7000,0.000979
2.650,51.7000,0.000979
2.667,51.7000,0.000979
2.682,51.7000,0.000979
2.698,51.7000,0.000979
2.714,51.7000,0.000979
2.730,51.7000,0.000979
2.746,51.7000,0.001017
2.763,51.7000,0.001017
2.784,51.7000,0.001017
2.807,51.7000,0.001017
2.826,51.7000,0.001017
2.842,51.7000,0.001017
2.865,51.7000,0.001017
2.881,51.7000,0.001017
2.897,51.7000,0.001017
2.913,51.7000,0.001017
2.929,51.7000,0.001017
2.945,51.7000,0.001017
2.961,51.7000,0.001017
2.977,51.7000,0.001017
2.993,51.7000,0.001017
3.011,51.7000,0.001017
3.036,51.7000,0.001064
3.057,51.7000,0.001064
3.073,51.7000,0.001064
3.089,51.7000,0.001064
3.105,51.7000,0.001064
3.121,51.7000,0.001064
3.137,51.7000,0.001064
3.153,51.7000,0.001064
3.169,51.7000,0.001064
3.185,51.7000,0.001064
3.201,51.7000,0.001064
3.217,51.7000,0.001064
3.233,51.7000,0.001064
3.249,51.7000,0.001064
3.265,51.7000,0.000988
3.281,51.7000,0.000988
3.297,51.7000,0.000988
3.313,51.7000,0.000988
3.329,51.7000,0.000988
3.345,51.7000,0.000988
3.361,51.7000,0.000988
3.377,51.7000,0.000988
3.393,51.7000,0.000988
3.422,51.7000,0.000988
3.439,51.7000,0.000988
3.455,51.7000,0.000988
3.471,51.7000,0.000988
3.488,51.7000,0.000988
3.503,51.7000,0.000988
3.518,51.7000,0.001035
3.535,51.7000,0.001035
3.551,51.7000,0.001035
3.567,51.7000,0.001035
3.583,51.7000,0.001035
3.599,51.7000,0.001035
3.615,51.7000,0.001035
3.631,51.7000,0.001035
3.646,51.7000,0.001035
3.663,51.7000,0.001035
3.679,51.7000,0.001035
3.694,51.7000,0.001035
3.710,51.7000,0.001035
3.727,51.7000,0.001035
3.742,51.7000,0.001035
3.758,51.7000,0.000904
3.775,51.7000,0.000904
3.791,51.7000,0.000904
3.806,51.7000,0.000904
3.822,51.7000,0.000904
3.839,51.7000,0.000904
3.856,51.7000,0.000904
3.871,51.7000,0.000904
3.886,51.7000,0.000904
3.903,51.7000,0.000904
3.919,51.7000,0.000904
3.934,51.7000,0.000904
3.950,51.7000,0.000904
3.978,51.7000,0.000904
4.002,51.7000,0.000904
4.024,51.7000,0.000904
4.041,51.7000,0.000555
4.057,51.7000,0.000555
4.073,51.7000,0.000555
4.089,51.7000,0.000555
4.106,51.6999,0.000555
4.132,51.6993,0.000555
4.153,51.6985,0.000555
4.169,51.6976,0.000555
4.186,51.6964,0.000555
4.209,51.6946,0.000555
4.227,51.6930,0.000555
4.256,51.6895,0.000555
4.286,51.6854,0.000358
4.317,51.6803,0.000358
4.347,51.6749,0.000358
4.378,51.6685,0.000358
4.393,51.6651,0.000358
4.410,51.6610,0.000358
4.426,51.6572,0.000358
4.441,51.6533,0.000358
4.457,51.6489,0.000358
4.478,51.6429,0.000358
4.503,51.6353,0.000358
4.522,51.6292,0.000358
4.537,51.6243,0.000358
4.561,51.6158,0.003822
4.576,51.6104,0.003822
4.593,51.6042,0.003822
4.608,51.5982,0.003822
4.624,51.5915,0.003822
4.640,51.5853,0.003822
4.656,51.5785,0.003822
4.672,51.5715,0.003822
4.691,51.5632,0.003822
4.716,51.5515,0.003822
4.737,51.5415,0.003822
4.753,51.5334,0.003822
4.779,51.5201,0.010279
4.801,51.5087,0.010279
4.817,51.4996,0.010279
4.833,51.4911,0.010279
4.849,51.4820,0.010279
4.864,51.4728,0.010279
4.881,51.4632,0.010279
4.896,51.4539,0.010279
4.912,51.4441,0.010279
4.928,51.4340,0.010279
4.944,51.4235,0.010279
4.961,51.4127,0.010279
4.976,51.4025,0.010279
4.992,51.3916,0.010279
5.008,51.3803,0.010279
5.024,51.3695,0.009893
5.040,51.3579,0.009893
5.057,51.3460,0.009893
5.072,51.3347,0.009893
5.088,51.3225,0.009893
5.116,51.3013,0.009893
5.133,51.2883,0.009893
5.148,51.2759,0.009893
5.164,51.2631,0.009893
5.187,51.2439,0.009893
5.210,51.2252,0.009893
5.228,51.2095,0.009893
5.244,51.1955,0.009893
5.260,51.1815,0.009893
5.276,51.1672,0.005930
5.292,51.1525,0.005930
5.308,51.1381,0.005930
5.324,51.1227,0.005930
5.340,51.1077,0.005930
5.356,51.0931,0.005930
5.372,51.0771,0.005930
5.388,51.0621,0.005930
5.404,51.0463,0.005930
5.420,51.0301,0.005930
5.436,51.0132,0.005930
5.452,50.9977,0.005930
5.468,50.9811,0.005930
5.484,50.9630,0.005930
5.500,50.9471,0.005930
5.516,50.9299,0.003342
5.531,50.9127,0.003342
5.552,50.8909,0.003342
5.579,50.8593,0.003342
5.596,50.8409,0.003342
5.613,50.8217,0.003342
5.629,50.8037,0.003342
5.644,50.7857,0.003342
5.672,50.7519,0.003342
5.688,50.7327,0.003342
5.704,50.7132,0.003342
5.719,50.6942,0.003342
5.736,50.6732,0.003342
5.752,50.6540,0.003342
5.768,50.6334,0.001440
5.784,50.6135,0.001440
5.800,50.5918,0.001440
5.816,50.5722,0.001440
5.832,50.5511,0.001440
5.848,50.5300,0.001440
5.865,50.5076,0.001440
5.880,50.4862,0.001440
5.896,50.4646,0.001440
5.912,50.4428,0.001440
5.929,50.4191,0.001440
5.950,50.3906,0.001440
5.980,50.3466,0.001440
5.996,50.3244,0.001440
6.026,50.2807,0.001591
6.042,50.2578,0.001591
6.057,50.2328,0.001591
6.073,50.2111,0.001591
6.104,50.1650,0.001591
6.120,50.1402,0.001591
6.136,50.1158,0.001591
6.153,50.0886,0.001591
6.168,50.0652,0.001591
6.184,50.0391,0.001591
6.200,50.0149,0.001591
6.227,49.9708,0.001591
6.244,49.9418,0.001591
6.274,49.8941,0.001826
6.291,49.8649,0.001826
6.307,49.8397,0.001826
6.323,49.8125,0.001826
6.339,49.7856,0.001826
6.356,49.7532,0.001826
6.383,49.7100,0.001826
6.403,49.6750,0.001826
6.419,49.6462,0.001826
6.436,49.6172,0.001826
6.451,49.5883,0.001826
6.467,49.5614,0.001826
6.483,49.5296,0.001826
6.505,49.4912,0.001826
6.537,49.4334,0.002127
6.567,49.3770,0.002127
6.583,49.3467,0.002127
6.614,49.2868,0.002127
6.630,49.2583,0.002127
6.646,49.2273,0.002127
6.677,49.1657,0.002127
6.692,49.1366,0.002127
6.723,49.0752,0.002127
6.740,49.0420,0.002127
6.755,49.0115,0.002127
6.783,48.9547,0.001996
6.798,48.9225,0.001996
6.815,48.8888,0.001996
6.831,48.8553,0.001996
6.848,48.8180,0.001996
6.864,48.7855,0.001996
6.892,48.7274,0.001996
6.911,48.6860,0.001996
6.927,48.6529,0.001996
6.942,48.6197,0.001996
6.959,48.5861,0.001996
6.974,48.5522,0.001996
6.990,48.5190,0.001996
7.007,48.4847,0.002419
7.023,48.4521,0.002419
7.039,48.4187,0.002419
7.055,48.3859,0.002419
7.071,48.3533,0.002419
7.087,48.3218,0.002419
7.103,48.2893,0.002419
7.118,48.2589,0.002419
7.134,48.2274,0.002419
7.151,48.1946,0.002419
7.166,48.1639,0.002419
7.183,48.1323,0.002419
7.198,48.1021,0.002419
7.215,48.0690,0.002419
7.231,48.0406,0.002419
7.246,48.0105,0.002673
7.262,47.9805,0.002673
7.279,47.9483,0.002673
7.311,47.8907,0.002673
7.326,47.8626,0.002673
7.341,47.8341,0.002673
7.358,47.8035,0.002673
7.374,47.7748,0.002673
7.390,47.7444,0.002673
7.406,47.7180,0.002673
7.422,47.6902,0.002673
7.437,47.6632,0.002673
7.454,47.6342,0.002673
7.469,47.6079,0.002673
7.485,47.5805,0.002673
7.502,47.5512,0.002607
7.518,47.5254,0.002607
7.534,47.4978,0.002607
7.549,47.4726,0.002607
7.566,47.4457,0.002607
7.582,47.4178,0.002607
7.607,47.3776,0.002607
7.637,47.3299,0.002607
7.668,47.2798,0.002607
7.698,47.2338,0.002607
7.714,47.2090,0.002607
7.730,47.1835,0.002607
7.761,47.1376,0.002843
7.777,47.1140,0.002843
7.808,47.0688,0.002843
7.838,47.0241,0.002843
7.854,47.0022,0.002843
7.870,46.9796,0.002843
7.886,46.9563,0.002843
7.901,46.9349,0.002843
7.917,46.9129,0.002843
7.933,46.8905,0.002843
7.950,46.8671,0.002843
7.966,46.8469,0.002843
7.981,46.8260,0.002843
7.997,46.8043,0.003172
8.013,46.7837,0.003172
8.031,46.7598,0.003172
8.054,46.7307,0.003172
8.085,46.6906,0.003172
8.116,46.6529,0.003172
8.147,46.6143,0.003172
8.177,46.5795,0.003172
8.207,46.5424,0.003172
8.224,46.5238,0.003172
8.254,46.4899,0.003455
8.271,46.4696,0.003455
8.300,46.4385,0.003455
8.317,46.4201,0.003455
8.334,46.4023,0.003455
8.349,46.3860,0.003455
8.365,46.3695,0.003455
8.393,46.3402,0.003455
8.409,46.3237,0.003455
8.425,46.3079,0.003455
8.441,46.2921,0.003455
8.457,46.2756,0.003455
8.473,46.2609,0.003455
8.489,46.2459,0.003558
8.505,46.2309,0.003558
8.522,46.2147,0.003558
8.537,46.2006,0.003558
8.553,46.1866,0.003558
8.569,46.1724,0.003558
8.585,46.1581,0.003558
8.602,46.1437,0.003558
8.618,46.1300,0.003558
8.633,46.1171,0.003558
8.649,46.1035,0.003558
8.665,46.0902,0.003558
8.681,46.0777,0.003558
8.697,46.0649,0.003558
8.713,46.0524,0.003558
8.729,46.0399,0.003558
8.745,46.0277,0.003794
8.761,46.0152,0.003794
8.778,46.0033,0.003794
8.793,45.9920,0.003794
8.809,45.9807,0.003794
8.827,45.9677,0.003794
8.854,45.9491,0.003794
8.873,45.9369,0.003794
8.889,45.9264,0.003794
8.905,45.9163,0.003794
8.921,45.9063,0.003794
8.948,45.8897,0.003794
8.964,45.8802,0.003794
8.980,45.8708,0.003794
8.996,45.8619,0.004076
9.013,45.8518,0.004076
9.041,45.8367,0.004076
9.060,45.8270,0.004076
9.076,45.8184,0.004076
9.092,45.8109,0.004076
9.108,45.8032,0.004076
9.124,45.7957,0.004076
9.141,45.7875,0.004076
9.165,45.7768,0.004076
9.196,45.7638,0.004076
9.211,45.7573,0.004076
9.241,45.7453,0.004292
9.273,45.7338,0.004292
9.304,45.7231,0.004292
9.335,45.7133,0.004292
9.366,45.7042,0.004292
9.381,45.6997,0.004292
9.412,45.6917,0.004292
9.430,45.6871,0.004292
9.458,45.6808,0.004292
9.476,45.6772,0.004292
9.502,45.6723,0.004330
9.518,45.6694,0.004330
9.534,45.6667,0.004330
9.550,45.6643,0.004330
9.566,45.6620,0.004330
9.581,45.6600,0.004330
9.598,45.6581,0.004330
9.615,45.6564,0.004330
9.644,45.6538,0.004330
9.662,45.6525,0.004330
9.678,45.6517,0.004330
9.694,45.6510,0.004330
9.709,45.6505,0.004330
9.726,45.6502,0.004330
9.741,45.6501,0.004330
9.757,45.6501,0.004330
9.774,45.6501,0.004255
9.799,45.6501,0.004255
9.814,45.6501,0.004255
9.845,45.6501,0.004255
9.860,45.6501,0.004255
9.891,45.6501,0.004255
9.922,45.6502,0.004255
9.937,45.6504,0.004255
9.968,45.6517,0.004255
9.984,45.6525,0.004255
10.015,45.6548,0.004255
10.045,45.6576,0.004311
10.062,45.6596,0.004311
10.078,45.6616,0.004311
10.093,45.6637,0.004311
10.110,45.6663,0.004311
10.126,45.6688,0.004311
10.141,45.6715,0.004311
10.158,45.6746,0.004311
10.174,45.6776,0.004311
10.190,45.6811,0.004311
10.206,45.6847,0.004311
10.221,45.6882,0.004311
10.240,45.6927,0.004311
10.262,45.6987,0.004311
10.292,45.7071,0.004377
10.308,45.7122,0.004377
10.339,45.7217,0.004377
10.355,45.7273,0.004377
10.371,45.7328,0.004377
10.402,45.7441,0.004377
10.418,45.7501,0.004377
10.449,45.7627,0.004377
10.480,45.7756,0.004377
10.511,45.7896,0.004245
10.526,45.7968,0.004245
10.557,45.8118,0.004245
10.573,45.8197,0.004245
10.602,45.8351,0.004245
10.619,45.8435,0.004245
10.634,45.8521,0.004245
10.650,45.8610,0.004245
10.669,45.8717,0.004245
10.696,45.8879,0.004245
10.714,45.8988,0.004245
10.731,45.9094,0.004245
10.747,45.9189,0.004245
10.762,45.9290,0.004217
10.778,45.9395,0.004217
10.794,45.9503,0.004217
10.810,45.9610,0.004217
10.827,45.9724,0.004217
10.842,45.9835,0.004217
10.860,45.9962,0.004217
10.883,46.0134,0.004217
10.913,46.0358,0.004217
10.929,46.0479,0.004217
10.960,46.0721,0.004217
10.990,46.0973,0.004217
11.021,46.1227,0.004104
11.052,46.1497,0.004104
11.083,46.1769,0.004104
11.114,46.2049,0.004104
11.130,46.2193,0.004104
11.161,46.2490,0.004104
11.176,46.2630,0.004104
11.193,46.2791,0.004104
11.222,46.3081,0.004104
11.245,46.3308,0.004104
11.268,46.3541,0.003935
11.288,46.3758,0.003935
11.304,46.3923,0.003935
11.321,46.4102,0.003935
11.336,46.4263,0.003935
11.352,46.4442,0.003935
11.368,46.4615,0.003935
11.384,46.4793,0.003935
11.400,46.4980,0.003935
11.416,46.5164,0.003935
11.432,46.5340,0.003935
11.448,46.5526,0.003935
11.464,46.5714,0.003935
11.480,46.5908,0.003935
11.496,46.6095,0.003746
11.512,46.6292,0.003746
11.528,46.6501,0.003746
11.544,46.6687,0.003746
11.560,46.6883,0.003746
11.576,46.7092,0.003746
11.592,46.7294,0.003746
11.608,46.7503,0.003746
11.624,46.7700,0.003746
11.640,46.7914,0.003746
11.657,46.8133,0.003746
11.672,46.8337,0.003746
11.688,46.8554,0.003746
11.716,46.8930,0.003746
11.731,46.9145,0.003746
11.747,46.9363,0.003492
11.763,46.9587,0.003492
11.780,46.9827,0.003492
11.808,47.0224,0.003492
11.827,47.0498,0.003492
11.843,47.0738,0.003492
11.860,47.0979,0.003492
11.876,47.1217,0.003492
11.891,47.1444,0.003492
11.907,47.1697,0.003492
11.923,47.1938,0.003492
11.939,47.2178,0.003492
11.955,47.2429,0.003492
11.971,47.2687,0.003492
11.987,47.2926,0.003163
12.003,47.3175,0.003163
12.019,47.3438,0.003163
12.036,47.3710,0.003163
12.054,47.4011,0.003163
12.084,47.4499,0.003163
12.101,47.4772,0.003163
12.131,47.5276,0.003163
12.147,47.5559,0.003163
12.163,47.5837,0.003163
12.179,47.6092,0.003163
12.195,47.6367,0.003163
12.212,47.6662,0.003163
12.241,47.7181,0.003163
12.272,47.7747,0.003022
12.290,47.8062,0.003022
12.319,47.8574,0.003022
12.337,47.8907,0.003022
12.352,47.9192,0.003022
12.368,47.9485,0.003022
12.384,47.9782,0.003022
12.400,48.0096,0.003022
12.416,48.0381,0.003022
12.431,48.0688,0.003022
12.448,48.0995,0.003022
12.464,48.1308,0.003022
12.480,48.1621,0.003022
12.495,48.1927,0.002815
12.512,48.2251,0.002815
12.528,48.2584,0.002815
12.544,48.2877,0.002815
12.560,48.3198,0.002815
12.576,48.3528,0.002815
12.592,48.3855,0.002815
12.608,48.4178,0.002815
12.624,48.4500,0.002815
12.640,48.4858,0.002815
12.655,48.5165,0.002815
12.673,48.5528,0.002815
12.688,48.5839,0.002815
12.705,48.6215,0.002815
12.734,48.6823,0.002485
12.752,48.7195,0.002485
12.769,48.7546,0.002485
12.784,48.7867,0.002485
12.799,48.8190,0.002485
12.829,48.8801,0.002485
12.857,48.9388,0.002485
12.876,48.9743,0.002485
12.892,49.0074,0.002485
12.907,49.0381,0.002485
12.924,49.0714,0.002485
12.940,49.1015,0.002485
12.957,49.1355,0.002485
12.980,49.1803,0.002485
12.996,49.2130,0.002259
13.027,49.2709,0.002259
13.043,49.3013,0.002259
13.074,49.3595,0.002259
13.091,49.3923,0.002259
13.121,49.4473,0.002259
13.152,49.5010,0.002259
13.183,49.5588,0.002259
13.199,49.5863,0.002259
13.230,49.6406,0.002259
13.260,49.6937,0.002203
13.277,49.7209,0.002203
13.307,49.7721,0.002203
13.326,49.8047,0.002203
13.341,49.8285,0.002203
13.356,49.8542,0.002203
13.371,49.8790,0.002203
13.387,49.9050,0.002203
13.403,49.9318,0.002203
13.420,49.9574,0.002203
13.435,49.9827,0.002203
13.452,50.0091,0.002203
13.467,50.0330,0.002203
13.484,50.0581,0.001996
13.499,50.0824,0.001996
13.515,50.1070,0.001996
13.531,50.1313,0.001996
13.548,50.1562,0.001996
13.563,50.1795,0.001996
13.580,50.2041,0.001996
13.596,50.2281,0.001996
13.612,50.2506,0.001996
13.627,50.2734,0.001996
13.643,50.2963,0.001996
13.659,50.3190,0.001996
13.676,50.3424,0.001996
13.692,50.3652,0.001996
13.707,50.3866,0.001996
13.723,50.4083,0.001996
13.740,50.4309,0.001996
13.755,50.4517,0.001996
13.772,50.4743,0.001770
13.787,50.4949,0.001770
13.805,50.5180,0.001770
13.835,50.5565,0.001770
13.851,50.5777,0.001770
13.868,50.5992,0.001770
13.884,50.6189,0.001770
13.899,50.6377,0.001770
13.927,50.6723,0.001770
13.943,50.6921,0.001770
13.959,50.7112,0.001770
13.975,50.7297,0.001770
13.992,50.7490,0.001770
14.008,50.7674,0.001770
14.023,50.7861,0.001610
14.039,50.8037,0.001610
14.055,50.8222,0.001610
14.071,50.8398,0.001610
14.087,50.8574,0.001610
14.103,50.8744,0.001610
14.120,50.8925,0.001610
14.135,50.9094,0.001610
14.151,50.9258,0.001610
14.167,50.9428,0.001610
14.184,50.9595,0.001610
14.199,50.9755,0.001610
14.215,50.9914,0.001610
14.231,51.0070,0.001610
14.247,51.0230,0.001610
14.263,51.0381,0.001610
14.279,51.0534,0.001440
14.295,51.0685,0.001440
14.311,51.0839,0.001440
14.327,51.0985,0.001440
14.343,51.1128,0.001440
14.359,51.1269,0.001440
14.375,51.1412,0.001440
14.391,51.1556,0.001440
14.407,51.1687,0.001440
14.427,51.1867,0.001440
14.453,51.2080,0.001440
14.470,51.2214,0.001440
14.499,51.2447,0.001290
14.517,51.2581,0.001290
14.532,51.2705,0.001290
14.548,51.2816,0.001290
14.564,51.2941,0.001290
14.580,51.3053,0.001290
14.596,51.3168,0.001290
14.612,51.3280,0.001290
14.628,51.3393,0.001290
14.644,51.3499,0.001290
14.660,51.3610,0.001290
14.676,51.3711,0.001290
14.692,51.3817,0.001290
14.708,51.3916,0.001290
14.724,51.4014,0.001290
14.740,51.4114,0.001290
14.756,51.4210,0.001290
14.773,51.4304,0.001290
14.788,51.4390,0.001111
14.804,51.4481,0.001111
14.820,51.4570,0.001111
14.836,51.4653,0.001111
14.852,51.4738,0.001111
14.868,51.4819,0.001111
14.884,51.4898,0.001111
14.900,51.4979,0.001111
14.916,51.5054,0.001111
14.933,51.5133,0.001111
14.949,51.5202,0.001111
14.978,51.5329,0.001111
14.996,51.5407,0.001111
15.013,51.5470,0.001111
15.040,51.5575,0.000753
15.061,51.5653,0.000753
15.087,51.5743,0.000753
15.108,51.5813,0.000753
15.124,51.5862,0.000753
15.140,51.5911,0.000753
15.156,51.5959,0.000753
15.172,51.6004,0.000753
15.192,51.6058,0.000753
15.208,51.6100,0.000753
15.225,51.6140,0.000753
15.255,51.6205,0.000753
15.272,51.6239,0.000753
15.303,51.6297,-0.000188
15.319,51.6326,-0.000188
15.350,51.6372,-0.000188
15.367,51.6395,-0.000188
15.397,51.6430,-0.000188
15.428,51.6457,-0.000188
15.443,51.6470,-0.000188
15.460,51.6479,-0.000188
15.476,51.6487,-0.000188
15.492,51.6493,-0.000188
15.513,51.6499,-0.000188
15.528,51.6501,-0.000188
15.545,51.6501,-0.000188
15.560,51.6501,-0.001431
15.577,51.6501,-0.001431
15.592,51.6501,-0.001431
15.609,51.6501,-0.001431
15.625,51.6501,-0.001431
15.641,51.6501,-0.001431
15.657,51.6501,-0.001431
15.673,51.6501,-0.001431
15.689,51.6501,-0.001431
15.704,51.6501,-0.001431
15.721,51.6501,-0.001431
15.736,51.6501,-0.001412
15.753,51.6501,-0.001412
15.768,51.6501,-0.001412
15.784,51.6501,-0.001412
15.802,51.6501,-0.001412
15.830,51.6501,-0.001412
15.849,51.6501,-0.001412
15.865,51.6501,-0.001412
15.880,51.6501,-0.001412
15.896,51.6501,-0.001412
15.912,51.6501,-0.001412
15.929,51.6501,-0.001412
15.945,51.6501,-0.001412
15.960,51.6501,-0.001412
15.977,51.6501,-0.001412
15.993,51.6501,-0.001412
16.009,51.6501,-0.001412
16.025,51.6501,-0.001412
16.049,51.6501,-0.000320
16.065,51.6501,-0.000320
16.081,51.6501,-0.000320
16.097,51.6501,-0.000320
16.118,51.6501,-0.000320
16.141,51.6501,-0.000320
16.160,51.6501,-0.000320
16.177,51.6501,-0.000320
16.192,51.6501,-0.000320
16.209,51.6501,-0.000320
16.225,51.6501,-0.000320
16.241,51.6501,-0.000320
16.257,51.6501,-0.000320
16.272,51.6501,0.000282
16.288,51.6501,0.000282
16.304,51.6501,0.000282
16.320,51.6501,0.000282
16.336,51.6501,0.000282
16.353,51.6501,0.000282
16.371,51.6501,0.000282
16.390,51.6501,0.000282
16.420,51.6501,0.000282
16.451,51.6501,0.000282
16.467,51.6501,0.000282
16.497,51.6501,0.000282
16.513,51.6501,0.000555
16.528,51.6501,0.000555
16.546,51.6501,0.000555
16.576,51.6501,0.000555
16.606,51.6501,0.000555
16.624,51.6501,0.000555
16.653,51.6501,0.000555
16.671,51.6501,0.000555
16.700,51.6501,0.000555
16.718,51.6501,0.000555
16.735,51.6501,0.000555
16.751,51.6501,0.000555
16.766,51.6501,0.000753
16.782,51.6501,0.000753
16.800,51.6501,0.000753
16.825,51.6501,0.000753
16.846,51.6501,0.000753
16.863,51.6501,0.000753
16.879,51.6501,0.000753
16.894,51.6501,0.000753
16.911,51.6501,0.000753
16.926,51.6501,0.000753
16.942,51.6501,0.000753
16.958,51.6501,0.000753
16.974,51.6501,0.000753
16.992,51.6501,0.000753
17.011,51.6501,0.000857
17.041,51.6501,0.000857
17.057,51.6501,0.000857
17.072,51.6501,0.000857
17.088,51.6501,0.000857
17.104,51.6501,0.000857
17.135,51.6501,0.000857
17.165,51.6501,0.000857
17.181,51.6501,0.000857
17.197,51.6501,0.000857
17.213,51.6501,0.000857
17.229,51.6501,0.000857
17.245,51.6501,0.000857
17.261,51.6501,0.000904
17.277,51.6501,0.000904
17.293,51.6501,0.000904
17.309,51.6501,0.000904
17.325,51.6501,0.000904
17.341,51.6501,0.000904
17.357,51.6501,0.000904
17.373,51.6501,0.000904
17.389,51.6501,0.000904
17.405,51.6501,0.000904
17.424,51.6501,0.000904
17.446,51.6501,0.000904
17.477,51.6501,0.000904
17.508,51.6501,0.000904
17.538,51.6501,0.000951
17.561,51.6501,0.000951
17.581,51.6501,0.000951
17.597,51.6501,0.000951
17.614,51.6501,0.000951
17.629,51.6501,0.000951
17.645,51.6501,0.000951
17.661,51.6501,0.000951
17.677,51.6501,0.000951
17.693,51.6501,0.000951
17.724,51.6501,0.000951
17.740,51.6501,0.000951
17.756,51.6501,0.001007
17.772,51.6501,0.001007
17.790,51.6501,0.001007
17.817,51.6501,0.001007
17.836,51.6501,0.001007
17.857,51.6501,0.001007
17.879,51.6501,0.001007
17.900,51.6501,0.001007
17.916,51.6501,0.001007
17.932,51.6501,0.001007
17.947,51.6501,0.001007
17.964,51.6501,0.001007
17.980,51.6501,0.001007
17.996,51.6501,0.001007
18.012,51.6501,0.000960
18.028,51.6501,0.000960
18.045,51.6501,0.000960
18.065,51.6501,0.000960
18.097,51.6501,0.000960
18.127,51.6501,0.000960
18.157,51.6501,0.000960
18.173,51.6501,0.000960
18.189,51.6501,0.000960
18.219,51.6501,0.000960
18.236,51.6501,0.000960
18.252,51.6501,0.000960
18.281,51.6501,0.001017
18.297,51.6501,0.001017
18.313,51.6501,0.001017
18.329,51.6501,0.001017
18.351,51.6501,0.001017
18.366,51.6501,0.001017
18.389,51.6501,0.001017
18.409,51.6501,0.001017
18.426,51.6501,0.001017
18.441,51.6501,0.001017
18.457,51.6501,0.001017
18.473,51.6501,0.001017
18.489,51.6501,0.001017
18.505,51.6501,0.001054
18.521,51.6501,0.001054
18.537,51.6501,0.001054
18.553,51.6501,0.001054
18.568,51.6501,0.001054
18.586,51.6501,0.001054
18.606,51.6501,0.001054
18.637,51.6501,0.001054
18.653,51.6501,0.001054
18.684,51.6501,0.001054
18.715,51.6501,0.001054
18.731,51.6501,0.001054
18.746,51.6501,0.001130
18.761,51.6501,0.001130
18.777,51.6501,0.001130
18.792,51.6501,0.001130
18.809,51.6501,0.001130
18.836,51.6501,0.001130
18.852,51.6501,0.001130
18.868,51.6501,0.001130
18.884,51.6501,0.001130
18.900,51.6501,0.001130
18.916,51.6501,0.001130
18.932,51.6501,0.001130
18.948,51.6501,0.001130
18.965,51.6501,0.001130
18.994,51.6501,0.001130
19.011,51.6501,0.001130
19.028,51.6501,0.001130
19.044,51.6501,0.001130
19.059,51.6501,0.001130
19.075,51.6501,0.001130
19.097,51.6501,0.001130
19.121,51.6501,0.001130
19.140,51.6501,0.001130
19.155,51.6501,0.001130
19.172,51.6501,0.001130
19.188,51.6501,0.001130
19.203,51.6501,0.001130
19.220,51.6501,0.001130
19.235,51.6501,0.001130
19.251,51.6501,0.001064
19.267,51.6501,0.001064
19.283,51.6501,0.001064
19.300,51.6501,0.001064
19.315,51.6501,0.001064
19.331,51.6501,0.001064
19.359,51.6501,0.001064
19.374,51.6501,0.001064
19.390,51.6501,0.001064
19.407,51.6501,0.001064
19.423,51.6501,0.001064
19.438,51.6501,0.001064
19.454,51.6501,0.001064
19.471,51.6501,0.001064
19.486,51.6501,0.000894
19.502,51.6501,0.000894
19.519,51.6501,0.000894
19.538,51.6501,0.000894
19.567,51.6501,0.000894
19.584,51.6501,0.000894
19.599,51.6501,0.000894
19.614,51.6501,0.000894
19.630,51.6501,0.000894
19.652,51.6501,0.000894
19.676,51.6501,0.000894
19.694,51.6501,0.000894
19.711,51.6501,0.000894
19.726,51.6501,0.000894
19.743,51.6501,0.000555
19.758,51.6501,0.000555
19.777,51.6501,0.000555
19.800,51.6501,0.000555
19.831,51.6501,0.000555
19.862,51.6496,0.000555
19.893,51.6483,0.000555
19.908,51.6473,0.000555
19.923,51.6463,0.000555
19.954,51.6436,0.000555
19.985,51.6403,0.000555
20.002,51.6380,0.000367
20.032,51.6337,0.000367
20.047,51.6312,0.000367
20.063,51.6285,0.000367
20.094,51.6225,0.000367
20.110,51.6192,0.000367
20.127,51.6153,0.000367
20.142,51.6117,0.000367
20.158,51.6079,0.000367
20.174,51.6038,0.000367
20.191,51.5992,0.000367
20.206,51.5949,0.000367
20.222,51.5902,0.000367
20.238,51.5853,0.003954
20.254,51.5801,0.003954
20.270,51.5747,0.003954
20.286,51.5693,0.003954
20.302,51.5639,0.003954
20.319,51.5577,0.003954
20.334,51.5517,0.003954
20.350,51.5456,0.003954
20.366,51.5391,0.003954
20.382,51.5325,0.003954
20.398,51.5255,0.003954
20.414,51.5186,0.003954
20.439,51.5071,0.003954
20.455,51.4994,0.003954
20.471,51.4918,0.003954
20.487,51.4839,0.003954
20.504,51.4753,0.003954
20.520,51.4671,0.003954
20.535,51.4588,0.010232
20.551,51.4504,0.010232
20.567,51.4412,0.010232
20.583,51.4321,0.010232
20.599,51.4232,0.010232
20.615,51.4134,0.010232
20.631,51.4036,0.010232
20.647,51.3942,0.010232
20.663,51.3838,0.010232
20.679,51.3732,0.010232
20.695,51.3634,0.010232
20.711,51.3524,0.010232
20.727,51.3419,0.010232
20.743,51.3308,0.010232
20.759,51.3197,0.010232
20.775,51.3084,0.009884
20.791,51.2966,0.009884
20.807,51.2842,0.009884
20.825,51.2715,0.009884
20.852,51.2505,0.009884
20.872,51.2343,0.009884
20.898,51.2137,0.009884
20.919,51.1965,0.009884
20.936,51.1829,0.009884
20.951,51.1701,0.009884
20.967,51.1561,0.009884
20.996,51.1309,0.009884
21.012,51.1165,0.009884
21.028,51.1024,0.007436
21.044,51.0872,0.007436
21.061,51.0714,0.007436
21.083,51.0500,0.007436
21.099,51.0356,0.007436
21.114,51.0205,0.007436
21.146,50.9896,0.007436
21.161,50.9739,0.007436
21.192,50.9419,0.007436
21.208,50.9256,0.007436
21.224,50.9091,0.007436
21.260,50.8703,0.007436
21.285,50.8432,0.007436
21.300,50.8259,0.004744
21.316,50.8081,0.004744
21.332,50.7905,0.004744
21.348,50.7722,0.004744
21.366,50.7501,0.004744
21.393,50.7195,0.004744
21.412,50.6963,0.004744
21.431,50.6726,0.004744
21.454,50.6446,0.004744
21.485,50.6052,0.004744
21.508,50.5771,0.004744
21.524,50.5569,0.004744
21.548,50.5264,0.001563
21.564,50.5042,0.001563
21.579,50.4842,0.001563
21.596,50.4627,0.001563
21.612,50.4403,0.001563
21.627,50.4196,0.001563
21.644,50.3968,0.001563
21.660,50.3753,0.001563
21.676,50.3520,0.001563
21.692,50.3303,0.001563
21.707,50.3080,0.001563
21.723,50.2852,0.001563
21.739,50.2615,0.001563
21.756,50.2374,0.001563
21.771,50.2155,0.001657
21.788,50.1910,0.001657
21.803,50.1675,0.001657
21.820,50.1429,0.001657
21.836,50.1195,0.001657
21.851,50.0951,0.001657
21.867,50.0701,0.001657
21.884,50.0441,0.001657
21.900,50.0205,0.001657
21.915,49.9955,0.001657
21.931,49.9702,0.001657
21.947,49.9442,0.001657
21.963,49.9184,0.001657
21.981,49.8892,0.001657
22.008,49.8448,0.001770
22.027,49.8134,0.001770
22.044,49.7855,0.001770
22.059,49.7598,0.001770
22.075,49.7327,0.001770
22.101,49.6878,0.001770
22.123,49.6484,0.001770
22.148,49.6075,0.001770
22.165,49.5763,0.001770
22.181,49.5484,0.001770
22.197,49.5192,0.001770
22.212,49.4923,0.001770
22.229,49.4612,0.001770
22.244,49.4339,0.001770
22.260,49.4047,0.001958
22.276,49.3746,0.001958
22.292,49.3446,0.001958
22.309,49.3141,0.001958
22.324,49.2848,0.001958
22.340,49.2545,0.001958
22.357,49.2230,0.001958
22.373,49.1915,0.001958
22.389,49.1602,0.001958
22.404,49.1314,0.001958
22.421,49.0973,0.001958
22.436,49.0681,0.001958
22.453,49.0351,0.001958
22.468,49.0046,0.001958
22.485,48.9721,0.001958
22.500,48.9403,0.002156
22.517,48.9072,0.002156
22.532,48.8745,0.002156
22.548,48.8415,0.002156
22.565,48.8079,0.002156
22.581,48.7751,0.002156
22.596,48.7425,0.002156
22.612,48.7086,0.002156
22.628,48.6745,0.002156
22.658,48.6114,0.002156
22.675,48.5763,0.002156
22.691,48.5426,0.002156
22.707,48.5077,0.002156
22.722,48.4760,0.002156
22.738,48.4426,0.002156
22.755,48.4091,0.002353
22.771,48.3760,0.002353
22.787,48.3433,0.002353
22.802,48.3116,0.002353
22.819,48.2786,0.002353
22.834,48.2473,0.002353
22.851,48.2144,0.002353
22.867,48.1827,0.002353
22.882,48.1521,0.002353
22.898,48.1200,0.002353
22.914,48.0892,0.002353
22.930,48.0581,0.002353
22.946,48.0281,0.002353
22.962,47.9974,0.002353
22.978,47.9658,0.002353
22.994,47.9359,0.002353
23.011,47.9060,0.002495
23.026,47.8769,0.002495
23.042,47.8471,0.002495
23.059,47.8166,0.002495
23.074,47.7880,0.002495
23.091,47.7570,0.002495
23.107,47.7300,0.002495
23.122,47.7018,0.002495
23.138,47.6732,0.002495
23.154,47.6455,0.002495
23.170,47.6163,0.002495
23.186,47.5894,0.002495
23.214,47.5405,0.002495
23.230,47.5128,0.002495
23.246,47.4870,0.002720
23.262,47.4596,0.002720
23.280,47.4295,0.002720
23.307,47.3844,0.002720
23.326,47.3540,0.002720
23.342,47.3266,0.002720
23.358,47.3023,0.002720
23.374,47.2754,0.002720
23.390,47.2502,0.002720
23.407,47.2243,0.002720
23.422,47.2005,0.002720
23.438,47.1760,0.002720
23.454,47.1517,0.002720
23.470,47.1264,0.002720
23.486,47.1031,0.003012
23.502,47.0789,0.003012
23.518,47.0551,0.003012
23.534,47.0314,0.003012
23.550,47.0080,0.003012
23.566,46.9844,0.003012
23.582,46.9614,0.003012
23.598,46.9379,0.003012
23.614,46.9152,0.003012
23.630,46.8939,0.003012
23.647,46.8702,0.003012
23.676,46.8294,0.003012
23.694,46.8055,0.003012
23.710,46.7835,0.003012
23.726,46.7625,0.003012
23.742,46.7421,0.003012
23.771,46.7034,0.003257
23.789,46.6803,0.003257
23.821,46.6401,0.003257
23.848,46.6063,0.003257
23.867,46.5832,0.003257
23.882,46.5653,0.003257
23.898,46.5462,0.003257
23.915,46.5262,0.003257
23.931,46.5068,0.003257
23.947,46.4883,0.003257
23.962,46.4711,0.003257
23.978,46.4524,0.003257
23.994,46.4349,0.003257
24.010,46.4169,0.003473
24.026,46.3990,0.003473
24.042,46.3810,0.003473
24.058,46.3644,0.003473
24.074,46.3471,0.003473
24.090,46.3298,0.003473
24.106,46.3133,0.003473
24.122,46.2967,0.003473
24.138,46.2803,0.003473
24.154,46.2642,0.003473
24.170,46.2475,0.003473
24.186,46.2323,0.003473
24.202,46.2175,0.003473
24.218,46.2013,0.003473
24.234,46.1868,0.003473
24.250,46.1714,0.003624
24.266,46.1571,0.003624
24.282,46.1425,0.003624
24.303,46.1234,0.003624
24.319,46.1088,0.003624
24.335,46.0950,0.003624
24.351,46.0814,0.003624
24.367,46.0674,0.003624
24.385,46.0526,0.003624
24.401,46.0389,0.003624
24.432,46.0144,0.003624
24.463,45.9902,0.003624
24.478,45.9783,0.003624
24.495,45.9657,0.003888
24.511,45.9548,0.003888
24.527,45.9429,0.003888
24.542,45.9313,0.003888
24.558,45.9207,0.003888
24.575,45.9095,0.003888
24.590,45.8986,0.003888
24.606,45.8879,0.003888
24.622,45.8774,0.003888
24.639,45.8668,0.003888
24.655,45.8567,0.003888
24.671,45.8470,0.003888
24.687,45.8375,0.003888
24.703,45.8280,0.003888
24.719,45.8185,0.003888
24.734,45.8098,0.003888
24.750,45.8009,0.004104
24.767,45.7919,0.004104
24.783,45.7830,0.004104
24.799,45.7751,0.004104
24.814,45.7666,0.004104
24.837,45.7557,0.004104
24.854,45.7479,0.004104
24.869,45.7407,0.004104
24.885,45.7333,0.004104
24.904,45.7248,0.004104
24.927,45.7154,0.004104
24.958,45.7025,0.004104
24.989,45.6910,0.004104
25.020,45.6794,0.004264
25.051,45.6693,0.004264
25.066,45.6643,0.004264
25.097,45.6551,0.004264
25.128,45.6466,0.004264
25.144,45.6422,0.004264
25.176,45.6347,0.004264
25.192,45.6313,0.004264
25.223,45.6249,0.004264
25.239,45.6219,0.004321
25.268,45.6168,0.004321
25.285,45.6142,0.004321
25.301,45.6120,0.004321
25.317,45.6099,0.004321
25.334,45.6080,0.004321
25.350,45.6064,0.004321
25.365,45.6049,0.004321
25.393,45.6028,0.004321
25.410,45.6018,0.004321
25.439,45.6007,0.004321
25.457,45.6002,0.004321
25.473,45.6001,0.004321
25.489,45.6001,0.004358
25.505,45.6001,0.004358
25.523,45.6001,0.004358
25.547,45.6001,0.004358
25.578,45.6001,0.004358
25.594,45.6001,0.004358
25.625,45.6001,0.004358
25.640,45.6001,0.004358
25.671,45.6004,0.004358
25.701,45.6016,0.004358
25.732,45.6034,0.004358
25.748,45.6047,0.004358
25.778,45.6075,0.004434
25.793,45.6092,0.004434
25.810,45.6112,0.004434
25.825,45.6132,0.004434
25.841,45.6157,0.004434
25.857,45.6182,0.004434
25.874,45.6210,0.004434
25.889,45.6239,0.004434
25.905,45.6271,0.004434
25.932,45.6328,0.004434
25.949,45.6365,0.004434
25.964,45.6404,0.004434
25.980,45.6446,0.004434
25.997,45.6488,0.004434
26.012,45.6530,0.004434
26.028,45.6576,0.004349
26.044,45.6623,0.004349
26.063,45.6687,0.004349
26.079,45.6734,0.004349
26.101,45.6809,0.004349
26.131,45.6922,0.004349
26.162,45.7039,0.004349
26.178,45.7101,0.004349
26.194,45.7170,0.004349
26.209,45.7236,0.004349
26.240,45.7371,0.004349
26.257,45.7449,0.004349
26.287,45.7593,0.004255
26.318,45.7751,0.004255
26.348,45.7911,0.004255
26.364,45.8000,0.004255
26.380,45.8084,0.004255
26.396,45.8172,0.004255
26.412,45.8265,0.004255
26.430,45.8376,0.004255
26.456,45.8530,0.004255
26.476,45.8655,0.004255
26.492,45.8760,0.004255
26.509,45.8869,0.004255
26.524,45.8972,0.004227
26.540,45.9080,0.004227
26.556,45.9194,0.004227
26.572,45.9298,0.004227
26.588,45.9420,0.004227
26.604,45.9529,0.004227
26.620,45.9651,0.004227
26.636,45.9766,0.004227
26.652,45.9888,0.004227
26.668,46.0015,0.004227
26.684,46.0146,0.004227
26.700,46.0265,0.004227
26.716,46.0397,0.004227
26.732,46.0529,0.004227
26.748,46.0660,0.004227
26.764,46.0800,0.004161
26.780,46.0936,0.004161
26.796,46.1074,0.004161
26.812,46.1215,0.004161
26.828,46.1355,0.004161
26.844,46.1501,0.004161
26.860,46.1646,0.004161
26.876,46.1798,0.004161
26.892,46.1946,0.004161
26.908,46.2101,0.004161
26.924,46.2255,0.004161
26.940,46.2414,0.004161
26.956,46.2575,0.004161
26.972,46.2734,0.004161
26.988,46.2900,0.004161
27.012,46.3143,0.003991
27.030,46.3337,0.003991
27.046,46.3504,0.003991
27.063,46.3678,0.003991
27.094,46.4015,0.003991
27.125,46.4367,0.003991
27.155,46.4706,0.003991
27.172,46.4908,0.003991
27.202,46.5260,0.003991
27.218,46.5454,0.003991
27.234,46.5644,0.003991
27.250,46.5837,0.003991
27.266,46.6035,0.003718
27.282,46.6231,0.003718
27.299,46.6437,0.003718
27.314,46.6637,0.003718
27.330,46.6842,0.003718
27.347,46.7045,0.003718
27.364,46.7274,0.003718
27.390,46.7612,0.003718
27.411,46.7890,0.003718
27.427,46.8110,0.003718
27.443,46.8326,0.003718
27.458,46.8544,0.003718
27.475,46.8765,0.003718
27.491,46.8992,0.003718
27.507,46.9222,0.003718
27.523,46.9446,0.003718
27.549,46.9822,0.003511
27.574,47.0186,0.003511
27.595,47.0497,0.003511
27.612,47.0753,0.003511
27.628,47.0990,0.003511
27.651,47.1345,0.003511
27.668,47.1594,0.003511
27.697,47.2062,0.003511
27.729,47.2545,0.003511
27.760,47.3038,0.003313
27.791,47.3546,0.003313
27.810,47.3855,0.003313
27.836,47.4279,0.003313
27.852,47.4547,0.003313
27.868,47.4814,0.003313
27.884,47.5084,0.003313
27.899,47.5353,0.003313
27.915,47.5625,0.003313
27.932,47.5910,0.003313
27.947,47.6183,0.003313
27.963,47.6461,0.003313
27.980,47.6763,0.003313
28.007,47.7243,0.003022
28.027,47.7608,0.003022
28.044,47.7903,0.003022
28.059,47.8186,0.003022
28.076,47.8495,0.003022
28.101,47.8951,0.003022
28.117,47.9256,0.003022
28.132,47.9549,0.003022
28.149,47.9853,0.003022
28.164,48.0167,0.003022
28.180,48.0454,0.003022
28.196,48.0766,0.003022
28.212,48.1075,0.003022
28.229,48.1404,0.003022
28.245,48.1708,0.003022
28.260,48.2031,0.002833
28.276,48.2337,0.002833
28.293,48.2686,0.002833
28.317,48.3162,0.002833
28.348,48.3784,0.002833
28.379,48.4434,0.002833
28.409,48.5062,0.002833
28.440,48.5712,0.002833
28.470,48.6355,0.002833
28.487,48.6706,0.002833
28.517,48.7334,0.002523
28.532,48.7665,0.002523
28.549,48.7989,0.002523
28.564,48.8309,0.002523
28.580,48.8642,0.002523
28.596,48.8962,0.002523
28.612,48.9287,0.002523
28.628,48.9606,0.002523
28.657,49.0189,0.002523
28.673,49.0504,0.002523
28.690,49.0818,0.002523
28.705,49.1120,0.002523
28.722,49.1444,0.002523
28.737,49.1752,0.002523
28.753,49.2044,0.002306
28.769,49.2347,0.002306
28.786,49.2661,0.002306
28.801,49.2957,0.002306
28.817,49.3249,0.002306
28.833,49.3539,0.002306
28.851,49.3869,0.002306
28.877,49.4344,0.002306
28.897,49.4706,0.002306
28.914,49.5006,0.002306
28.929,49.5281,0.002306
28.945,49.5578,0.002306
28.961,49.5844,0.002306
28.977,49.6119,0.002306
28.993,49.6401,0.002306
29.009,49.6665,0.002240
29.025,49.6941,0.002240
29.041,49.7212,0.002240
29.058,49.7494,0.002240
29.076,49.7800,0.002240
29.092,49.8077,0.002240
29.123,49.8577,0.002240
29.139,49.8832,0.002240
29.155,49.9101,0.002240
29.171,49.9354,0.002240
29.202,49.9831,0.002240
29.217,50.0062,0.002240
29.234,50.0325,0.002240
29.249,50.0560,0.002043
29.265,50.0798,0.002043
29.283,50.1077,0.002043
29.310,50.1486,0.002043
29.329,50.1760,0.002043
29.346,50.2001,0.002043
29.373,50.2397,0.002043
29.393,50.2681,0.002043
29.409,50.2913,0.002043
29.425,50.3130,0.002043
29.442,50.3364,0.002043
29.458,50.3586,0.002043
29.479,50.3877,0.002043
29.496,50.4107,0.002043
29.511,50.4313,0.002043
29.527,50.4514,0.001807
29.558,50.4916,0.001807
29.573,50.5123,0.001807
29.605,50.5518,0.001807
29.620,50.5712,0.001807
29.636,50.5920,0.001807
29.667,50.6284,0.001807
29.697,50.6649,0.001807
29.715,50.6855,0.001807
29.730,50.7029,0.001807
29.759,50.7377,0.001610
29.777,50.7577,0.001610
29.793,50.7757,0.001610
29.809,50.7929,0.001610
29.830,50.8165,0.001610
29.854,50.8437,0.001610
29.873,50.8624,0.001610
29.889,50.8789,0.001610
29.906,50.8971,0.001610
29.921,50.9125,0.001610
29.937,50.9280,0.001610
29.954,50.9452,0.001610
29.969,50.9609,0.001610
29.985,50.9757,0.001468
30.002,50.9926,0.001468
30.021,51.0111,0.001468
30.052,51.0400,0.001468
30.069,51.0547,0.001468
30.099,51.0820,0.001468
30.129,51.1083,0.001468
30.145,51.1222,0.001468
30.161,51.1349,0.001468
30.176,51.1484,0.001468
30.193,51.1623,0.001468
30.222,51.1847,0.001468
30.241,51.2000,0.001468
30.256,51.2120,0.001468
30.272,51.2243,0.001468
30.300,51.2445,0.001365
30.316,51.2567,0.001365
30.332,51.2678,0.001365
30.348,51.2789,0.001365
30.363,51.2900,0.001365
30.380,51.3012,0.001365
30.396,51.3113,0.001365
30.412,51.3218,0.001365
30.427,51.3322,0.001365
30.443,51.3421,0.001365
30.459,51.3520,0.001365
30.476,51.3617,0.001365
30.492,51.3715,0.001365
30.508,51.3808,0.001365
30.523,51.3897,0.001130
30.540,51.3989,0.001130
30.556,51.4080,0.001130
30.572,51.4161,0.001130
30.588,51.4246,0.001130
30.604,51.4325,0.001130
30.620,51.4407,0.001130
30.636,51.4485,0.001130
30.651,51.4556,0.001130
30.668,51.4633,0.001130
30.684,51.4706,0.001130
30.700,51.4774,0.001130
30.715,51.4840,0.001130
30.731,51.4907,0.001130
30.747,51.4971,0.001130
30.764,51.5036,0.000715
30.779,51.5093,0.000715
30.797,51.5156,0.000715
30.812,51.5211,0.000715
30.828,51.5263,0.000715
30.843,51.5315,0.000715
30.859,51.5366,0.000715
30.876,51.5415,0.000715
30.891,51.5461,0.000715
30.907,51.5506,0.000715
30.925,51.5553,0.000715
30.945,51.5603,0.000715
30.968,51.5658,0.000715
30.988,51.5701,0.000715
31.004,51.5735,0.000715
31.020,51.5766,-0.000273
31.035,51.5794,-0.000273
31.053,51.5825,-0.000273
31.077,51.5862,-0.000273
31.107,51.5903,-0.000273
31.123,51.5920,-0.000273
31.139,51.5936,-0.000273
31.170,51.5964,-0.000273
31.185,51.5975,-0.000273
31.216,51.5990,-0.000273
31.247,51.6000,-0.000273
31.277,51.6001,-0.001572
31.294,51.6001,-0.001572
31.322,51.6001,-0.001572
31.340,51.6001,-0.001572
31.356,51.6001,-0.001572
31.371,51.6001,-0.001572
31.387,51.6001,-0.001572
31.415,51.6001,-0.001572
31.431,51.6001,-0.001572
31.447,51.6001,-0.001572
31.462,51.6001,-0.001572
31.478,51.6001,-0.001572
31.495,51.6001,-0.001572
31.510,51.6001,-0.001403
31.526,51.6001,-0.001403
31.547,51.6001,-0.001403
31.573,51.6001,-0.001403
31.591,51.6001,-0.001403
31.607,51.6001,-0.001403
31.623,51.6001,-0.001403
31.639,51.6001,-0.001403
31.654,51.6001,-0.001403
31.671,51.6001,-0.001403
31.694,51.6001,-0.001403
31.709,51.6001,-0.001403
31.740,51.6001,-0.001403
31.771,51.6001,-0.000235
31.802,51.6001,-0.000235
31.833,51.6001,-0.000235
31.864,51.6001,-0.000235
31.895,51.6001,-0.000235
31.911,51.6001,-0.000235
31.940,51.6001,-0.000235
31.956,51.6001,-0.000235
31.972,51.6001,-0.000235
31.988,51.6001,-0.000235
32.005,51.6001,-0.000235
32.034,51.6001,0.000320
32.052,51.6001,0.000320
32.068,51.6001,0.000320
32.084,51.6001,0.000320
32.101,51.6001,0.000320
32.126,51.6001,0.000320
32.141,51.6001,0.000320
32.157,51.6001,0.000320
32.174,51.6001,0.000320
32.203,51.6001,0.000320
32.234,51.6001,0.000320
32.264,51.6001,0.000650
32.299,51.6001,0.000650
32.325,51.6001,0.000650
32.356,51.6001,0.000650
32.372,51.6001,0.000650
32.388,51.6001,0.000650
32.404,51.6001,0.000650
32.420,51.6001,0.000650
32.436,51.6001,0.000650
32.465,51.6001,0.000650
32.484,51.6001,0.000650
32.511,51.6001,0.000781
32.529,51.6001,0.000781
32.557,51.6001,0.000781
32.576,51.6001,0.000781
32.593,51.6001,0.000781
32.620,51.6001,0.000781
32.640,51.6001,0.000781
32.656,51.6001,0.000781
32.672,51.6001,0.000781
32.688,51.6001,0.000781
32.704,51.6001,0.000781
32.720,51.6001,0.000781
32.736,51.6001,0.000781
32.752,51.6001,0.000810
32.768,51.6001,0.000810
32.785,51.6001,0.000810
32.806,51.6001,0.000810
32.837,51.6001,0.000810
32.853,51.6001,0.000810
32.868,51.6001,0.000810
32.899,51.6001,0.000810
32.931,51.6001,0.000810
32.962,51.6001,0.000810
32.977,51.6001,0.000810
32.993,51.6001,0.000988
33.024,51.6001,0.000988
33.040,51.6001,0.000988
33.056,51.6001,0.000988
33.072,51.6001,0.000988
33.088,51.6001,0.000988
33.104,51.6001,0.000988
33.120,51.6001,0.000988
33.136,51.6001,0.000988
33.153,51.6001,0.000988
33.180,51.6001,0.000988
33.200,51.6001,0.000988
33.216,51.6001,0.000988
33.232,51.6001,0.000988
33.248,51.6001,0.000988
33.264,51.6001,0.000979
33.281,51.6001,0.000979
33.296,51.6001,0.000979
33.312,51.6001,0.000979
33.328,51.6001,0.000979
33.344,51.6001,0.000979
33.360,51.6001,0.000979
33.381,51.6001,0.000979
33.411,51.6001,0.000979
33.441,51.6001,0.000979
33.458,51.6001,0.000979
33.489,51.6001,0.000998
33.519,51.6001,0.000998
33.536,51.6001,0.000998
33.551,51.6001,0.000998
33.582,51.6001,0.000998
33.597,51.6001,0.000998
33.614,51.6001,0.000998
33.630,51.6001,0.000998
33.646,51.6001,0.000998
33.661,51.6001,0.000998
33.678,51.6001,0.000998
33.694,51.6001,0.000998
33.709,51.6001,0.000998
33.726,51.6001,0.000998
33.742,51.6001,0.001026
33.757,51.6001,0.001026
33.773,51.6001,0.001026
33.790,51.6001,0.001026
33.806,51.6001,0.001026
33.821,51.6001,0.001026
33.838,51.6001,0.001026
33.853,51.6001,0.001026
33.869,51.6001,0.001026
33.886,51.6001,0.001026
33.902,51.6001,0.001026
33.918,51.6001,0.001026
33.933,51.6001,0.001026
33.950,51.6001,0.001026
33.965,51.6001,0.001026
33.981,51.6001,0.001026
33.998,51.6001,0.001026
34.014,51.6001,0.001026
34.030,51.6001,0.001026
34.045,51.6001,0.001026
34.061,51.6001,0.001026
34.078,51.6001,0.001026
34.093,51.6001,0.001026
34.110,51.6001,0.001026
34.137,51.6001,0.001026
34.167,51.6001,0.001026
34.185,51.6001,0.001026
34.200,51.6001,0.001026
34.217,51.6001,0.001026
34.232,51.6001,0.001026
34.248,51.6001,0.001035
34.265,51.6001,0.001035
34.281,51.6001,0.001035
34.297,51.6001,0.001035
34.313,51.6001,0.001035
34.329,51.6001,0.001035
34.351,51.6001,0.001035
34.367,51.6001,0.001035
34.382,51.6001,0.001035
34.413,51.6001,0.001035
34.429,51.6001,0.001035
34.460,51.6001,0.001035
34.476,51.6001,0.001035
34.491,51.6001,0.001035
34.522,51.6001,0.001092
34.553,51.6001,0.001092
34.572,51.6001,0.001092
34.600,51.6001,0.001092
34.617,51.6001,0.001092
34.633,51.6001,0.001092
34.649,51.6001,0.001092
34.679,51.6001,0.001092
34.695,51.6001,0.001092
34.712,51.6001,0.001092
34.728,51.6001,0.001092
34.744,51.6001,0.001092
34.759,51.6001,0.001092
34.775,51.6001,0.001083
34.792,51.6001,0.001083
34.808,51.6001,0.001083
34.825,51.6001,0.001083
34.848,51.6001,0.001083
34.879,51.6001,0.001083
34.909,51.6001,0.001083
34.926,51.6001,0.001083
34.955,51.6001,0.001083
34.985,51.6001,0.001083
35.017,51.6001,0.000998
35.033,51.6001,0.000998
35.050,51.6001,0.000998
35.065,51.6001,0.000998
35.094,51.6001,0.000998
35.117,51.6001,0.000998
35.141,51.6001,0.000998
35.159,51.6001,0.000998
35.175,51.6001,0.000998
35.191,51.6001,0.000998
35.207,51.6001,0.000998
35.234,51.6001,0.000998
35.250,51.6001,0.000998
35.266,51.6001,0.000810
35.282,51.6001,0.000810
35.300,51.6001,0.000810
35.326,51.6001,0.000810
35.346,51.6001,0.000810
35.362,51.6001,0.000810
35.378,51.6001,0.000810
35.394,51.6001,0.000810
35.410,51.6001,0.000810
35.426,51.6001,0.000810
35.442,51.6001,0.000810
35.458,51.6001,0.000810
35.474,51.6001,0.000810
35.490,51.6001,0.000810
35.506,51.6001,0.000810
35.522,51.6001,0.000555
35.538,51.6001,0.000555
35.554,51.5998,0.000555
35.570,51.5995,0.000555
35.586,51.5988,0.000555
35.602,51.5980,0.000555
35.618,51.5970,0.000555
35.634,51.5959,0.000555
35.650,51.5944,0.000555
35.667,51.5928,0.000555
35.682,51.5910,0.000555
35.698,51.5892,0.000555
35.714,51.5871,0.000555
35.730,51.5847,0.000555
35.746,51.5821,0.000555
35.762,51.5792,0.000555
35.788,51.5745,0.000471
35.804,51.5712,0.000471
35.820,51.5678,0.000471
35.836,51.5641,0.000471
35.853,51.5601,0.000471
35.883,51.5523,0.000471
35.900,51.5477,0.000471
35.916,51.5430,0.000471
35.932,51.5382,0.000471
35.948,51.5335,0.000471
35.964,51.5283,0.000471
35.980,51.5226,0.000471
35.996,51.5171,0.000471
36.012,51.5115,0.005102
36.028,51.5051,0.005102
36.044,51.4994,0.005102
36.060,51.4929,0.005102
36.076,51.4866,0.005102
36.092,51.4799,0.005102
36.109,51.4725,0.005102
36.124,51.4656,0.005102
36.140,51.4581,0.005102
36.156,51.4510,0.005102
36.173,51.4424,0.005102
36.188,51.4351,0.005102
36.204,51.4272,0.005102
36.220,51.4191,0.005102
36.236,51.4106,0.005102
36.251,51.4019,0.010693
36.268,51.3930,0.010693
36.284,51.3839,0.010693
36.310,51.3688,0.010693
36.326,51.3593,0.010693
36.341,51.3497,0.010693
36.358,51.3390,0.010693
36.374,51.3291,0.010693
36.390,51.3189,0.010693
36.406,51.3086,0.010693
36.422,51.2976,0.010693
36.437,51.2870,0.010693
36.454,51.2759,0.010693
36.470,51.2646,0.010693
36.486,51.2529,0.010693
36.501,51.2415,0.009583
36.517,51.2297,0.009583
36.533,51.2176,0.009583
36.549,51.2051,0.009583
36.566,51.1920,0.009583
36.582,51.1803,0.009583
36.599,51.1656,0.009583
36.629,51.1418,0.009583
36.646,51.1272,0.009583
36.662,51.1134,0.009583
36.678,51.0999,0.009583
36.693,51.0861,0.009583
36.709,51.0720,0.009583
36.726,51.0572,0.009583
36.742,51.0418,0.009583
36.757,51.0282,0.009150
36.773,51.0129,0.009150
36.790,50.9973,0.009150
36.805,50.9826,0.009150
36.821,50.9672,0.009150
36.846,50.9426,0.009150
36.875,50.9125,0.009150
36.892,50.8954,0.009150
36.910,50.8775,0.009150
36.938,50.8475,0.009150
36.956,50.8282,0.009150
36.973,50.8099,0.009150
36.988,50.7932,0.009150
37.005,50.7745,0.006213
37.020,50.7573,0.006213
37.037,50.7380,0.006213
37.053,50.7200,0.006213
37.069,50.7019,0.006213
37.085,50.6821,0.006213
37.101,50.6635,0.006213
37.116,50.6446,0.006213
37.133,50.6249,0.006213
37.155,50.5980,0.006213
37.171,50.5779,0.006213
37.201,50.5399,0.006213
37.233,50.5005,0.006213
37.249,50.4788,0.006213
37.265,50.4584,0.006213
37.295,50.4180,0.001628
37.312,50.3961,0.001628
37.341,50.3567,0.001628
37.356,50.3332,0.001628
37.378,50.3047,0.001628
37.395,50.2808,0.001628
37.411,50.2589,0.001628
37.426,50.2367,0.001628
37.443,50.2124,0.001628
37.458,50.1903,0.001628
37.474,50.1669,0.001628
37.490,50.1433,0.001628
37.507,50.1166,0.001628
37.527,50.0874,0.001638
37.558,50.0387,0.001638
37.588,49.9935,0.001638
37.604,49.9684,0.001638
37.620,49.9418,0.001638
37.636,49.9168,0.001638
37.667,49.8690,0.001638
37.683,49.8413,0.001638
37.699,49.8167,0.001638
37.715,49.7911,0.001638
37.731,49.7628,0.001638
37.747,49.7365,0.001638
37.775,49.6880,0.001864
37.794,49.6565,0.001864
37.811,49.6276,0.001864
37.826,49.6009,0.001864
37.842,49.5733,0.001864
37.858,49.5445,0.001864
37.874,49.5171,0.001864
37.890,49.4878,0.001864
37.906,49.4593,0.001864
37.932,49.4125,0.001864
37.948,49.3843,0.001864
37.963,49.3556,0.001864
37.979,49.3266,0.001864
37.996,49.2951,0.001864
38.011,49.2657,0.001864
38.027,49.2356,0.002080
38.043,49.2062,0.002080
38.064,49.1631,0.002080
38.090,49.1140,0.002080
38.107,49.0814,0.002080
38.123,49.0506,0.002080
38.139,49.0201,0.002080
38.155,48.9884,0.002080
38.171,48.9556,0.002080
38.187,48.9238,0.002080
38.203,48.8898,0.002080
38.219,48.8592,0.002080
38.235,48.8263,0.002080
38.251,48.7932,0.002080
38.267,48.7613,0.002080
38.283,48.7281,0.002222
38.300,48.6916,0.002222
38.316,48.6586,0.002222
38.335,48.6161,0.002222
38.351,48.5838,0.002222
38.382,48.5157,0.002222
38.398,48.4842,0.002222
38.429,48.4184,0.002222
38.454,48.3668,0.002222
38.475,48.3231,0.002222
38.491,48.2913,0.002222
38.521,48.2297,0.002382
38.537,48.1987,0.002382
38.553,48.1666,0.002382
38.589,48.0941,0.002382
38.615,48.0454,0.002382
38.632,48.0096,0.002382
38.662,47.9542,0.002382
38.694,47.8910,0.002382
38.724,47.8370,0.002382
38.741,47.8058,0.002570
38.757,47.7759,0.002570
38.774,47.7457,0.002570
38.801,47.6961,0.002570
38.821,47.6597,0.002570
38.838,47.6311,0.002570
38.853,47.6039,0.002570
38.869,47.5753,0.002570
38.885,47.5474,0.002570
38.901,47.5203,0.002570
38.917,47.4902,0.002570
38.934,47.4629,0.002570
38.951,47.4341,0.002570
38.968,47.4025,0.002570
38.986,47.3745,0.002570
39.017,47.3233,0.002824
39.033,47.2975,0.002824
39.049,47.2730,0.002824
39.080,47.2232,0.002824
39.095,47.1975,0.002824
39.126,47.1510,0.002824
39.141,47.1269,0.002824
39.157,47.1026,0.002824
39.172,47.0786,0.002824
39.191,47.0498,0.002824
39.218,47.0096,0.002824
39.237,46.9819,0.002824
39.252,46.9595,0.002824
39.268,46.9359,0.002824
39.285,46.9120,0.003078
39.301,46.8902,0.003078
39.318,46.8651,0.003078
39.341,46.8331,0.003078
39.372,46.7895,0.003078
39.404,46.7477,0.003078
39.434,46.7056,0.003078
39.450,46.6849,0.003078
39.481,46.6451,0.003078
39.497,46.6243,0.003323
39.512,46.6048,0.003323
39.528,46.5856,0.003323
39.544,46.5663,0.003323
39.564,46.5405,0.003323
39.580,46.5206,0.003323
39.596,46.5017,0.003323
39.613,46.4824,0.003323
39.629,46.4633,0.003323
39.645,46.4442,0.003323
39.660,46.4267,0.003323
39.677,46.4081,0.003323
39.694,46.3887,0.003323
39.714,46.3650,0.003323
39.730,46.3487,0.003323
39.746,46.3304,0.003323
39.762,46.3133,0.003323
39.792,46.2817,0.003539
39.823,46.2498,0.003539
39.853,46.2189,0.003539
39.869,46.2026,0.003539
39.899,46.1737,0.003539
39.916,46.1566,0.003539
39.932,46.1411,0.003539
39.948,46.1262,0.003539
39.965,46.1112,0.003539
39.980,46.0969,0.003539
39.997,46.0808,0.003539
40.013,46.0679,0.003539
40.029,46.0534,0.003784
40.044,46.0402,0.003784
40.061,46.0261,0.003784
40.076,46.0129,0.003784
40.092,45.9998,0.003784
40.115,45.9808,0.003784
40.132,45.9679,0.003784
40.147,45.9551,0.003784
40.163,45.9431,0.003784
40.179,45.9303,0.003784
40.196,45.9186,0.003784
40.211,45.9069,0.003784
40.228,45.8951,0.003784
40.243,45.8833,0.003784
40.260,45.8722,0.003784
40.276,45.8613,0.004001
40.291,45.8507,0.004001
40.308,45.8392,0.004001
40.323,45.8293,0.004001
40.339,45.8192,0.004001
40.355,45.8090,0.004001
40.371,45.7986,0.004001
40.387,45.7892,0.004001
40.403,45.7799,0.004001
40.420,45.7704,0.004001
40.435,45.7613,0.004001
40.451,45.7525,0.004001
40.467,45.7437,0.004001
40.492,45.7303,0.004001
40.518,45.7174,0.004001
40.546,45.7034,0.004217
40.564,45.6949,0.004217
40.579,45.6878,0.004217
40.595,45.6806,0.004217
40.616,45.6715,0.004217
40.640,45.6613,0.004217
40.662,45.6528,0.004217
40.686,45.6432,0.004217
40.703,45.6368,0.004217
40.720,45.6308,0.004217
40.749,45.6212,0.004283
40.771,45.6141,0.004283
40.794,45.6068,0.004283
40.815,45.6008,0.004283
40.831,45.5967,0.004283
40.847,45.5926,0.004283
40.863,45.5884,0.004283
40.885,45.5836,0.004283
40.903,45.5796,0.004283
40.936,45.5729,0.004283
40.964,45.5681,0.004283
40.995,45.5634,0.004283
41.010,45.5611,0.004283
41.026,45.5593,0.004358
41.057,45.5560,0.004358
41.074,45.5544,0.004358
41.092,45.5532,0.004358
41.118,45.5516,0.004358
41.136,45.5508,0.004358
41.152,45.5505,0.004358
41.167,45.5502,0.004358
41.191,45.5501,0.004358
41.207,45.5501,0.004358
41.223,45.5501,0.004358
41.239,45.5501,0.004358
41.255,45.5501,0.004358
41.271,45.5501,0.004405
41.286,45.5501,0.004405
41.304,45.5501,0.004405
41.320,45.5501,0.004405
41.335,45.5501,0.004405
41.351,45.5501,0.004405
41.368,45.5502,0.004405
41.398,45.5508,0.004405
41.415,45.5515,0.004405
41.431,45.5523,0.004405
41.447,45.5533,0.004405
41.462,45.5546,0.004405
41.480,45.5560,0.004405
41.495,45.5575,0.004405
41.511,45.5594,0.004405
41.528,45.5615,0.004481
41.551,45.5647,0.004481
41.583,45.5699,0.004481
41.599,45.5727,0.004481
41.614,45.5756,0.004481
41.645,45.5822,0.004481
41.675,45.5892,0.004481
41.706,45.5971,0.004481
41.736,45.6054,0.004481
41.767,45.6146,0.004462
41.783,45.6197,0.004462
41.801,45.6256,0.004462
41.828,45.6350,0.004462
41.847,45.6419,0.004462
41.863,45.6482,0.004462
41.879,45.6541,0.004462
41.894,45.6606,0.004462
41.911,45.6673,0.004462
41.927,45.6741,0.004462
41.943,45.6812,0.004462
41.959,45.6885,0.004462
41.975,45.6957,0.004462
41.991,45.7036,0.004462
42.007,45.7113,0.004462
42.023,45.7193,0.004339
42.039,45.7273,0.004339
42.055,45.7360,0.004339
42.071,45.7447,0.004339
42.086,45.7530,0.004339
42.103,45.7622,0.004339
42.120,45.7717,0.004339
42.139,45.7833,0.004339
42.170,45.8020,0.004339
42.186,45.8119,0.004339
42.216,45.8310,0.004339
42.232,45.8418,0.004339
42.248,45.8520,0.004339
42.263,45.8628,0.004339
42.293,45.8833,0.004283
42.308,45.8947,0.004283
42.325,45.9067,0.004283
42.340,45.9181,0.004283
42.359,45.9323,0.004283
42.388,45.9547,0.004283
42.405,45.9677,0.004283
42.420,45.9803,0.004283
42.436,45.9932,0.004283
42.452,46.0065,0.004283
42.468,46.0199,0.004283
42.485,46.0339,0.004283
42.500,46.0472,0.004283
42.517,46.0619,0.004189
42.543,46.0850,0.004189
42.573,46.1129,0.004189
42.589,46.1264,0.004189
42.604,46.1414,0.004189
42.620,46.1563,0.004189
42.651,46.1862,0.004189
42.682,46.2172,0.004189
42.712,46.2475,0.004189
42.728,46.2640,0.004189
42.759,46.2976,0.004001
42.790,46.3298,0.004001
42.806,46.3479,0.004001
42.822,46.3658,0.004001
42.849,46.3959,0.004001
42.866,46.4150,0.004001
42.881,46.4326,0.004001
42.898,46.4517,0.004001
42.915,46.4718,0.004001
42.945,46.5078,0.004001
42.961,46.5279,0.004001
42.978,46.5484,0.004001
43.008,46.5854,0.003737
43.025,46.6068,0.003737
43.043,46.6288,0.003737
43.058,46.6481,0.003737
43.073,46.6683,0.003737
43.089,46.6892,0.003737
43.106,46.7113,0.003737
43.121,46.7319,0.003737
43.137,46.7530,0.003737
43.153,46.7748,0.003737
43.170,46.7981,0.003737
43.193,46.8300,0.003737
43.223,46.8724,0.003737
43.241,46.8971,0.003737
43.270,46.9398,0.003737
43.301,46.9850,0.003521
43.332,47.0313,0.003521
43.362,47.0771,0.003521
43.378,47.1004,0.003521
43.393,47.1231,0.003521
43.409,47.1481,0.003521
43.426,47.1755,0.003521
43.441,47.1992,0.003521
43.457,47.2234,0.003521
43.478,47.2591,0.003521
43.502,47.2952,0.003521
43.522,47.3299,0.003229
43.538,47.3541,0.003229
43.553,47.3805,0.003229
43.569,47.4065,0.003229
43.585,47.4347,0.003229
43.602,47.4629,0.003229
43.617,47.4881,0.003229
43.633,47.5150,0.003229
43.649,47.5443,0.003229
43.673,47.5858,0.003229
43.702,47.6359,0.003229
43.718,47.6637,0.003229
43.748,47.7196,0.003003
43.764,47.7475,0.003003
43.795,47.8066,0.003003
43.826,47.8623,0.003003
43.849,47.9065,0.003003
43.872,47.9497,0.003003
43.889,47.9817,0.003003
43.906,48.0154,0.003003
43.922,48.0459,0.003003
43.949,48.0984,0.003003
43.969,48.1378,0.003003
43.996,48.1907,0.002843
44.016,48.2315,0.002843
44.032,48.2633,0.002843
44.048,48.2960,0.002843
44.064,48.3298,0.002843
44.080,48.3632,0.002843
44.096,48.3957,0.002843
44.112,48.4294,0.002843
44.129,48.4629,0.002843
44.144,48.4958,0.002843
44.160,48.5293,0.002843
44.176,48.5629,0.002843
44.192,48.5966,0.002843
44.208,48.6313,0.002843
44.224,48.6656,0.002843
44.240,48.6976,0.002542
44.256,48.7303,0.002542
44.272,48.7643,0.002542
44.288,48.7973,0.002542
44.304,48.8300,0.002542
44.320,48.8619,0.002542
44.336,48.8940,0.002542
44.352,48.9256,0.002542
44.368,48.9574,0.002542
44.383,48.9884,0.002542
44.400,49.0226,0.002542
44.416,49.0523,0.002542
44.431,49.0819,0.002542
44.448,49.1130,0.002542
44.464,49.1457,0.002542
44.480,49.1739,0.002542
44.495,49.2044,0.002542
44.524,49.2567,0.002400
44.540,49.2869,0.002400
44.555,49.3158,0.002400
44.572,49.3459,0.002400
44.588,49.3761,0.002400
44.604,49.4047,0.002400
44.634,49.4582,0.002400
44.652,49.4902,0.002400
44.667,49.5173,0.002400
44.683,49.5453,0.002400
44.699,49.5728,0.002400
44.718,49.6047,0.002400
44.742,49.6478,0.002222
44.763,49.6821,0.002222
44.780,49.7102,0.002222
44.796,49.7361,0.002222
44.812,49.7633,0.002222
44.828,49.7892,0.002222
44.844,49.8149,0.002222
44.860,49.8413,0.002222
44.875,49.8654,0.002222
44.892,49.8917,0.002222
44.907,49.9166,0.002222
44.924,49.9424,0.002222
44.939,49.9662,0.002222
44.956,49.9915,0.002222
44.972,50.0158,0.002222
44.987,50.0396,0.001958
45.004,50.0647,0.001958
45.019,50.0879,0.001958
45.036,50.1125,0.001958
45.051,50.1347,0.001958
45.082,50.1798,0.001958
45.097,50.2018,0.001958
45.113,50.2242,0.001958
45.129,50.2466,0.001958
45.145,50.2689,0.001958
45.162,50.2924,0.001958
45.178,50.3138,0.001958
45.194,50.3363,0.001958
45.210,50.3575,0.001958
45.225,50.3779,0.001958
45.243,50.4014,0.001779
45.268,50.4344,0.001779
45.293,50.4672,0.001779
45.313,50.4918,0.001779
45.344,50.5306,0.001779
45.374,50.5680,0.001779
45.390,50.5871,0.001779
45.406,50.6060,0.001779
45.436,50.6422,0.001779
45.452,50.6603,0.001779
45.468,50.6788,0.001779
45.499,50.7145,0.001666
45.530,50.7488,0.001666
45.546,50.7659,0.001666
45.561,50.7830,0.001666
45.577,50.7999,0.001666
45.594,50.8171,0.001666
45.609,50.8335,0.001666
45.637,50.8629,0.001666
45.653,50.8791,0.001666
45.670,50.8950,0.001666
45.686,50.9115,0.001666
45.702,50.9268,0.001666
45.718,50.9420,0.001666
45.733,50.9568,0.001459
45.749,50.9718,0.001459
45.766,50.9874,0.001459
45.781,51.0017,0.001459
45.797,51.0160,0.001459
45.813,51.0301,0.001459
45.831,51.0462,0.001459
45.856,51.0675,0.001459
45.877,51.0856,0.001459
45.893,51.0995,0.001459
45.910,51.1123,0.001459
45.925,51.1254,0.001459
45.941,51.1376,0.001459
45.958,51.1506,0.001459
45.973,51.1625,0.001459
45.989,51.1747,0.001299
46.010,51.1909,0.001299
46.025,51.2015,0.001299
46.041,51.2132,0.001299
46.057,51.2244,0.001299
46.088,51.2460,0.001299
46.118,51.2655,0.001299
46.133,51.2759,0.001299
46.149,51.2858,0.001299
46.165,51.2956,0.001299
46.196,51.3144,0.001299
46.212,51.3238,0.001299
46.228,51.3331,0.001299
46.244,51.3421,0.001139
46.260,51.3514,0.001139
46.276,51.3600,0.001139
46.292,51.3684,0.001139
46.308,51.3767,0.001139
46.324,51.3849,0.001139
46.340,51.3925,0.001139
46.356,51.4001,0.001139
46.372,51.4077,0.001139
46.388,51.4153,0.001139
46.404,51.4222,0.001139
46.420,51.4292,0.001139
46.437,51.4362,0.001139
46.456,51.4443,0.001139
46.487,51.4566,0.001139
46.503,51.4622,0.001139
46.534,51.4732,0.000659
46.550,51.4788,0.000659
46.567,51.4839,0.000659
46.597,51.4930,0.000659
46.614,51.4981,0.000659
46.644,51.5059,0.000659
46.660,51.5100,0.000659
46.676,51.5139,0.000659
46.692,51.5176,0.000659
46.708,51.5209,0.000659
46.738,51.5270,0.000659
46.766,51.5320,-0.000433
46.785,51.5348,-0.000433
46.801,51.5372,-0.000433
46.817,51.5393,-0.000433
46.833,51.5413,-0.000433
46.850,51.5431,-0.000433
46.875,51.5455,-0.000433
46.897,51.5471,-0.000433
46.913,51.5481,-0.000433
46.929,51.5490,-0.000433
46.945,51.5495,-0.000433
46.961,51.5498,-0.000433
46.977,51.5501,-0.000433
46.993,51.5501,-0.000433
47.009,51.5501,-0.001591
47.025,51.5501,-0.001591
47.045,51.5501,-0.001591
47.061,51.5501,-0.001591
47.092,51.5501,-0.001591
47.124,51.5501,-0.001591
47.139,51.5501,-0.001591
47.154,51.5501,-0.001591
47.170,51.5501,-0.001591
47.201,51.5501,-0.001591
47.218,51.5501,-0.001591
47.233,51.5501,-0.001591
47.249,51.5501,-0.001591
47.279,51.5501,-0.001167
47.295,51.5501,-0.001167
47.311,51.5501,-0.001167
47.327,51.5501,-0.001167
47.344,51.5501,-0.001167
47.359,51.5501,-0.001167
47.374,51.5501,-0.001167
47.391,51.5501,-0.001167
47.407,51.5501,-0.001167
47.422,51.5501,-0.001167
47.439,51.5501,-0.001167
47.455,51.5501,-0.001167
47.470,51.5501,-0.001167
47.487,51.5501,-0.001167
47.503,51.5501,-0.000132
47.519,51.5501,-0.000132
47.535,51.5501,-0.000132
47.551,51.5501,-0.000132
47.567,51.5501,-0.000132
47.582,51.5501,-0.000132
47.603,51.5501,-0.000132
47.619,51.5501,-0.000132
47.634,51.5501,-0.000132
47.651,51.5501,-0.000132
47.681,51.5501,-0.000132
47.711,51.5501,-0.000132
47.727,51.5501,-0.000132
47.743,51.5501,0.000395
47.759,51.5501,0.000395
47.776,51.5501,0.000395
47.791,51.5501,0.000395
47.806,51.5501,0.000395
47.834,51.5501,0.000395
47.851,51.5501,0.000395
47.867,51.5501,0.000395
47.882,51.5501,0.000395
47.899,51.5501,0.000395
47.914,51.5501,0.000395
47.930,51.5501,0.000395
47.946,51.5501,0.000395
47.962,51.5501,0.000395
47.978,51.5501,0.000395
47.995,51.5501,0.000668
48.010,51.5501,0.000668
48.032,51.5501,0.000668
48.053,51.5501,0.000668
48.074,51.5501,0.000668
48.091,51.5501,0.000668
48.107,51.5501,0.000668
48.122,51.5501,0.000668
48.138,51.5501,0.000668
48.155,51.5501,0.000668
48.170,51.5501,0.000668
48.186,51.5501,0.000668
48.203,51.5501,0.000668
48.218,51.5501,0.000668
48.234,51.5501,0.000838
48.251,51.5501,0.000838
48.266,51.5501,0.000838
48.283,51.5501,0.000838
48.299,51.5501,0.000838
48.314,51.5501,0.000838
48.330,51.5501,0.000838
48.346,51.5501,0.000838
48.362,51.5501,0.000838
48.391,51.5501,0.000838
48.408,51.5501,0.000838
48.424,51.5501,0.000838
48.439,51.5501,0.000838
48.458,51.5501,0.000838
48.483,51.5501,0.000941
48.503,51.5501,0.000941
48.520,51.5501,0.000941
48.536,51.5501,0.000941
48.551,51.5501,0.000941
48.567,51.5501,0.000941
48.583,51.5501,0.000941
48.600,51.5501,0.000941
48.615,51.5501,0.000941
48.631,51.5501,0.000941
48.648,51.5501,0.000941
48.664,51.5501,0.000941
48.679,51.5501,0.000941
48.695,51.5501,0.000941
48.712,51.5501,0.000941
48.727,51.5501,0.000941
48.743,51.5501,0.000979
48.759,51.5501,0.000979
48.775,51.5501,0.000979
48.792,51.5501,0.000979
48.807,51.5501,0.000979
48.823,51.5501,0.000979
48.839,51.5501,0.000979
48.855,51.5501,0.000979
48.871,51.5501,0.000979
48.888,51.5501,0.000979
48.903,51.5501,0.000979
48.919,51.5501,0.000979
48.948,51.5501,0.000979
48.964,51.5501,0.000979
48.980,51.5501,0.000979
48.996,51.5501,0.000988
49.012,51.5501,0.000988
49.028,51.5501,0.000988
49.044,51.5501,0.000988
49.063,51.5501,0.000988
49.090,51.5501,0.000988
49.108,51.5501,0.000988
49.124,51.5501,0.000988
49.140,51.5501,0.000988
49.156,51.5501,0.000988
49.172,51.5501,0.000988
49.188,51.5501,0.000988
49.205,51.5501,0.000988
49.220,51.5501,0.000988
49.237,51.5501,0.000988
49.253,51.5501,0.000988
49.269,51.5501,0.000988
49.284,51.5501,0.001035
49.300,51.5501,0.001035
49.317,51.5501,0.001035
49.336,51.5501,0.001035
49.367,51.5501,0.001035
49.383,51.5501,0.001035
49.414,51.5501,0.001035
49.445,51.5501,0.001035
49.476,51.5501,0.001035
49.492,51.5501,0.001035
49.508,51.5501,0.001035
49.524,51.5501,0.001101
49.540,51.5501,0.001101
49.556,51.5501,0.001101
49.572,51.5501,0.001101
49.588,51.5501,0.001101
49.604,51.5501,0.001101
49.620,51.5501,0.001101
49.636,51.5501,0.001101
49.652,51.5501,0.001101
49.668,51.5501,0.001101
49.684,51.5501,0.001101
49.700,51.5501,0.001101
49.716,51.5501,0.001101
49.732,51.5501,0.001101
49.749,51.5501,0.001101
49.768,51.5501,0.001101
49.785,51.5501,0.001083
49.815,51.5501,0.001083
49.845,51.5501,0.001083
49.860,51.5501,0.001083
49.876,51.5501,0.001083
49.894,51.5501,0.001083
49.924,51.5501,0.001083
49.940,51.5501,0.001083
49.956,51.5501,0.001083
49.972,51.5501,0.001083
49.988,51.5501,0.001083
50.011,51.5501,0.001073
50.026,51.5501,0.001073
50.041,51.5501,0.001073
50.058,51.5501,0.001073
50.074,51.5501,0.001073
50.090,51.5501,0.001073
50.106,51.5501,0.001073
50.121,51.5501,0.001073
50.138,51.5501,0.001073
50.154,51.5501,0.001073
50.170,51.5501,0.001073
50.189,51.5501,0.001073
50.217,51.5501,0.001073
50.234,51.5501,0.001073
50.250,51.5501,0.001073
50.266,51.5501,0.001073
50.281,51.5501,0.001007
50.298,51.5501,0.001007
50.317,51.5501,0.001007
50.343,51.5501,0.001007
50.361,51.5501,0.001007
50.377,51.5501,0.001007
50.393,51.5501,0.001007
50.410,51.5501,0.001007
50.426,51.5501,0.001007
50.442,51.5501,0.001007
50.458,51.5501,0.001007
50.473,51.5501,0.001007
50.491,51.5501,0.001007
50.509,51.5501,0.001007
50.525,51.5501,0.001007
50.540,51.5501,0.001007
50.556,51.5501,0.001045
50.588,51.5501,0.001045
50.603,51.5501,0.001045
50.620,51.5501,0.001045
50.635,51.5501,0.001045
50.665,51.5501,0.001045
50.683,51.5501,0.001045
50.713,51.5501,0.001045
50.729,51.5501,0.001045
50.745,51.5501,0.001045
50.762,51.5501,0.001045
50.777,51.5501,0.001045
50.793,51.5501,0.001045
50.810,51.5501,0.001045
50.825,51.5501,0.001045
50.842,51.5501,0.001045
50.857,51.5501,0.001045
50.874,51.5501,0.001045
50.889,51.5501,0.001045
50.905,51.5501,0.001045
50.921,51.5501,0.001045
50.937,51.5501,0.001045
50.953,51.5501,0.001045
50.969,51.5501,0.001045
50.985,51.5501,0.001045
51.001,51.5501,0.001045
51.017,51.5501,0.001045
51.033,51.5501,0.001233
51.049,51.5501,0.001233
51.078,51.5501,0.001233
51.093,51.5501,0.001233
51.109,51.5501,0.001233
51.126,51.5501,0.001233
51.141,51.5501,0.001233
51.157,51.5501,0.001233
51.174,51.5501,0.001233
51.190,51.5501,0.001233
51.205,51.5501,0.001233
51.221,51.5501,0.001233
51.237,51.5501,0.001233
51.253,51.5501,0.001233
51.269,51.5501,0.000791
51.285,51.5501,0.000791
51.301,51.5500,0.000791
51.317,51.5497,0.000791
51.334,51.5492,0.000791
51.349,51.5486,0.000791
51.368,51.5475,0.000791
51.394,51.5456,0.000791
51.413,51.5440,0.000791
51.430,51.5423,0.000791
51.445,51.5405,0.000791
51.462,51.5384,0.000791
51.477,51.5362,0.000791
51.493,51.5338,0.000791
51.509,51.5312,0.000791
51.525,51.5285,0.000358
51.541,51.5253,0.000358
51.560,51.5214,0.000358
51.579,51.5175,0.000358
51.610,51.5105,0.000358
51.635,51.5040,0.000358
51.652,51.4996,0.000358
51.667,51.4952,0.000358
51.683,51.4904,0.000358
51.699,51.4855,0.000358
51.715,51.4804,0.000358
51.732,51.4751,0.000358
51.748,51.4695,0.005140
51.763,51.4638,0.005140
51.779,51.4579,0.005140
51.795,51.4520,0.005140
51.811,51.4458,0.005140
51.828,51.4388,0.005140
51.843,51.4325,0.005140
51.859,51.4258,0.005140
51.875,51.4188,0.005140
51.892,51.4108,0.005140
51.910,51.4029,0.005140
51.936,51.3905,0.005140
51.956,51.3804,0.005140
51.973,51.3717,0.005140
51.997,51.3591,0.010788
52.027,51.3424,0.010788
52.043,51.3332,0.010788
52.058,51.3245,0.010788
52.089,51.3063,0.010788
52.119,51.2875,0.010788
52.135,51.2776,0.010788
52.158,51.2624,0.010788
52.175,51.2513,0.010788
52.190,51.2408,0.010788
52.206,51.2299,0.010788
52.222,51.2183,0.010788
52.238,51.2072,0.009686
52.254,51.1950,0.009686
52.270,51.1831,0.009686
52.286,51.1710,0.009686
52.302,51.1594,0.009686
52.318,51.1470,0.009686
52.334,51.1339,0.009686
52.350,51.1213,0.009686
52.366,51.1084,0.009686
52.382,51.0953,0.009686
52.398,51.0819,0.009686
52.414,51.0684,0.009686
52.430,51.0542,0.009686
52.447,51.0400,0.009686
52.462,51.0266,0.009686
52.478,51.0126,0.009686
52.495,50.9972,0.009686
52.524,50.9698,0.010063
52.542,50.9529,0.010063
52.558,50.9368,0.010063
52.574,50.9223,0.010063
52.590,50.9063,0.010063
52.607,50.8899,0.010063
52.622,50.8742,0.010063
52.638,50.8579,0.010063
52.654,50.8417,0.010063
52.684,50.8103,0.010063
52.700,50.7929,0.010063
52.716,50.7766,0.010063
52.732,50.7591,0.010063
52.749,50.7398,0.010063
52.764,50.7229,0.010063
52.780,50.7057,0.007154
52.796,50.6875,0.007154
52.812,50.6685,0.007154
52.828,50.6506,0.007154
52.844,50.6318,0.007154
52.861,50.6114,0.007154
52.876,50.5928,0.007154
52.892,50.5744,0.007154
52.907,50.5541,0.007154
52.924,50.5351,0.007154
52.940,50.5149,0.007154
52.956,50.4950,0.007154
52.972,50.4737,0.007154
52.989,50.4529,0.007154
53.005,50.4325,0.007154
53.020,50.4123,0.001713
53.036,50.3916,0.001713
53.057,50.3616,0.001713
53.084,50.3262,0.001713
53.101,50.3039,0.001713
53.117,50.2821,0.001713
53.142,50.2459,0.001713
53.173,50.2018,0.001713
53.190,50.1789,0.001713
53.220,50.1344,0.001713
53.241,50.1040,0.001713
53.257,50.0795,0.001713
53.273,50.0559,0.001760
53.289,50.0312,0.001760
53.305,50.0071,0.001760
53.321,49.9836,0.001760
53.336,49.9591,0.001760
53.353,49.9326,0.001760
53.368,49.9089,0.001760
53.385,49.8830,0.001760
53.401,49.8579,0.001760
53.418,49.8298,0.001760
53.433,49.8057,0.001760
53.448,49.7804,0.001760
53.465,49.7539,0.001760
53.481,49.7251,0.001760
53.500,49.6946,0.001760
53.515,49.6685,0.001873
53.531,49.6419,0.001873
53.547,49.6141,0.001873
53.563,49.5874,0.001873
53.593,49.5356,0.001873
53.611,49.5047,0.001873
53.641,49.4517,0.001873
53.657,49.4230,0.001873
53.672,49.3949,0.001873
53.689,49.3650,0.001873
53.704,49.3368,0.001873
53.721,49.3064,0.001873
53.737,49.2772,0.001873
53.752,49.2476,0.001873
53.769,49.2175,0.001873
53.794,49.1683,0.002071
53.810,49.1382,0.002071
53.827,49.1072,0.002071
53.843,49.0763,0.002071
53.858,49.0454,0.002071
53.874,49.0139,0.002071
53.891,48.9817,0.002071
53.906,48.9516,0.002071
53.923,48.9174,0.002071
53.939,48.8864,0.002071
53.955,48.8542,0.002071
53.970,48.8216,0.002071
53.987,48.7887,0.002071
54.003,48.7560,0.002071
54.018,48.7250,0.002278
54.035,48.6907,0.002278
54.051,48.6568,0.002278
54.066,48.6245,0.002278
54.083,48.5903,0.002278
54.099,48.5560,0.002278
54.114,48.5222,0.002278
54.130,48.4887,0.002278
54.147,48.4538,0.002278
54.163,48.4178,0.002278
54.179,48.3864,0.002278
54.194,48.3536,0.002278
54.210,48.3203,0.002278
54.229,48.2834,0.002278
54.256,48.2266,0.002438
54.274,48.1904,0.002438
54.291,48.1554,0.002438
54.306,48.1256,0.002438
54.322,48.0941,0.002438
54.347,48.0435,0.002438
54.363,48.0122,0.002438
54.379,47.9819,0.002438
54.395,47.9519,0.002438
54.411,47.9197,0.002438
54.427,47.8907,0.002438
54.443,47.8595,0.002438
54.459,47.8301,0.002438
54.481,47.7881,0.002438
54.504,47.7456,0.002438
54.523,47.7113,0.002570
54.539,47.6819,0.002570
54.555,47.6534,0.002570
54.571,47.6244,0.002570
54.588,47.5951,0.002570
54.603,47.5665,0.002570
54.620,47.5384,0.002570
54.636,47.5105,0.002570
54.651,47.4831,0.002570
54.668,47.4551,0.002570
54.683,47.4284,0.002570
54.699,47.4014,0.002570
54.715,47.3735,0.002570
54.731,47.3463,0.002570
54.748,47.3200,0.002899
54.763,47.2944,0.002899
54.780,47.2658,0.002899
54.800,47.2340,0.002899
54.830,47.1838,0.002899
54.861,47.1349,0.002899
54.892,47.0882,0.002899
54.907,47.0638,0.002899
54.923,47.0404,0.002899
54.939,47.0160,0.002899
54.956,46.9904,0.002899
54.971,46.9674,0.002899
54.987,46.9431,0.003153
55.003,46.9202,0.003153
55.019,46.8965,0.003153
55.035,46.8740,0.003153
55.051,46.8505,0.003153
55.067,46.8278,0.003153
55.083,46.8047,0.003153
55.099,46.7828,0.003153
55.115,46.7613,0.003153
55.131,46.7390,0.003153
55.147,46.7165,0.003153
55.163,46.6957,0.003153
55.179,46.6739,0.003153
55.195,46.6527,0.003153
55.211,46.6314,0.003153
55.227,46.6112,0.003153
55.243,46.5901,0.003351
55.260,46.5694,0.003351
55.276,46.5488,0.003351
55.292,46.5286,0.003351
55.308,46.5087,0.003351
55.324,46.4892,0.003351
55.340,46.4697,0.003351
55.368,46.4357,0.003351
55.388,46.4127,0.003351
55.403,46.3946,0.003351
55.419,46.3758,0.003351
55.435,46.3575,0.003351
55.452,46.3378,0.003351
55.476,46.3116,0.003351
55.507,46.2772,0.003643
55.538,46.2445,0.003643
55.554,46.2278,0.003643
55.584,46.1960,0.003643
55.616,46.1643,0.003643
55.646,46.1336,0.003643
55.677,46.1043,0.003643
55.707,46.0755,0.003643
55.723,46.0608,0.003643
55.739,46.0462,0.003643
55.756,46.0309,0.003643
55.784,46.0061,0.003916
55.804,45.9888,0.003916
55.831,45.9661,0.003916
55.851,45.9491,0.003916
55.867,45.9359,0.003916
55.883,45.9230,0.003916
55.899,45.9104,0.003916
55.923,45.8918,0.003916
55.940,45.8792,0.003916
55.969,45.8569,0.003916
55.987,45.8439,0.003916
56.003,45.8324,0.003916
56.019,45.8216,0.004123
56.035,45.8105,0.004123
56.051,45.7995,0.004123
56.067,45.7891,0.004123
56.083,45.7784,0.004123
56.099,45.7682,0.004123
56.116,45.7572,0.004123
56.141,45.7422,0.004123
56.157,45.7322,0.004123
56.180,45.7190,0.004123
56.195,45.7102,0.004123
56.210,45.7018,0.004123
56.227,45.6928,0.004123
56.243,45.6843,0.004123
56.258,45.6761,0.004245
56.275,45.6678,0.004245
56.291,45.6597,0.004245
56.306,45.6522,0.004245
56.323,45.6445,0.004245
56.339,45.6370,0.004245
56.354,45.6297,0.004245
56.371,45.6228,0.004245
56.386,45.6161,0.004245
56.402,45.6096,0.004245
56.420,45.6021,0.004245
56.449,45.5916,0.004245
56.477,45.5815,0.004245
56.492,45.5758,0.004245
56.508,45.5707,0.004377
56.525,45.5655,0.004377
56.540,45.5606,0.004377
56.556,45.5558,0.004377
56.573,45.5511,0.004377
56.590,45.5465,0.004377
56.605,45.5426,0.004377
56.620,45.5388,0.004377
56.636,45.5351,0.004377
56.653,45.5314,0.004377
56.669,45.5280,0.004377
56.684,45.5249,0.004377
56.701,45.5218,0.004377
56.717,45.5191,0.004377
56.732,45.5165,0.004377
56.749,45.5140,0.004518
56.765,45.5116,0.004518
56.784,45.5093,0.004518
56.809,45.5066,0.004518
56.829,45.5048,0.004518
56.844,45.5036,0.004518
56.860,45.5026,0.004518
56.877,45.5016,0.004518
56.899,45.5007,0.004518
56.915,45.5004,0.004518
56.946,45.5001,0.004518
56.976,45.5001,0.004518
57.006,45.5001,0.004518
57.022,45.5001,0.004500
57.052,45.5001,0.004500
57.068,45.5001,0.004500
57.085,45.5001,0.004500
57.100,45.5001,0.004500
57.117,45.5001,0.004500
57.132,45.5001,0.004500
57.148,45.5004,0.004500
57.165,45.5007,0.004500
57.181,45.5013,0.004500
57.196,45.5021,0.004500
57.213,45.5031,0.004500
57.236,45.5049,0.004500
57.268,45.5080,0.004547
57.298,45.5118,0.004547
57.329,45.5162,0.004547
57.360,45.5213,0.004547
57.390,45.5270,0.004547
57.421,45.5337,0.004547
57.436,45.5372,0.004547
57.453,45.5414,0.004547
57.468,45.5451,0.004547
57.484,45.5493,0.004471
57.500,45.5538,0.004471
57.517,45.5586,0.004471
57.532,45.5632,0.004471
57.548,45.5684,0.004471
57.574,45.5769,0.004471
57.589,45.5823,0.004471
57.605,45.5879,0.004471
57.621,45.5937,0.004471
57.638,45.6002,0.004471
57.653,45.6064,0.004471
57.669,45.6127,0.004471
57.685,45.6194,0.004471
57.703,45.6276,0.004471
57.728,45.6389,0.004387
57.749,45.6482,0.004387
57.767,45.6567,0.004387
57.791,45.6688,0.004387
57.807,45.6767,0.004387
57.838,45.6932,0.004387
57.868,45.7101,0.004387
57.899,45.7281,0.004387
57.930,45.7459,0.004387
57.960,45.7653,0.004387
57.975,45.7751,0.004387
57.991,45.7846,0.004387
58.006,45.7953,0.004387
58.022,45.8058,0.004387
58.052,45.8265,0.004387
58.072,45.8406,0.004387
58.097,45.8592,0.004387
58.117,45.8735,0.004387
58.133,45.8857,0.004387
58.149,45.8981,0.004387
58.165,45.9106,0.004387
58.181,45.9233,0.004387
58.198,45.9368,0.004387
58.221,45.9564,0.004387
58.236,45.9685,0.004387
58.252,45.9826,0.004387
58.267,45.9955,0.004387
58.297,46.0216,0.004217
58.313,46.0361,0.004217
58.329,46.0502,0.004217
58.359,46.0778,0.004217
58.391,46.1077,0.004217
58.406,46.1232,0.004217
58.422,46.1385,0.004217
58.438,46.1541,0.004217
58.454,46.1702,0.004217
58.469,46.1852,0.004217
58.485,46.2017,0.004217
58.502,46.2191,0.004217
58.529,46.2480,0.004048
58.549,46.2697,0.004048
58.565,46.2865,0.004048
58.581,46.3045,0.004048
58.597,46.3215,0.004048
58.614,46.3406,0.004048
58.629,46.3579,0.004048
58.645,46.3758,0.004048
58.667,46.4025,0.004048
58.684,46.4216,0.004048
58.700,46.4407,0.004048
58.716,46.4596,0.004048
58.732,46.4793,0.004048
58.748,46.4986,0.004048
58.764,46.5182,0.003916
58.780,46.5382,0.003916
58.796,46.5601,0.003916
58.816,46.5843,0.003916
58.839,46.6142,0.003916
58.860,46.6409,0.003916
58.877,46.6630,0.003916
58.892,46.6832,0.003916
58.908,46.7049,0.003916
58.924,46.7273,0.003916
58.940,46.7494,0.003916
58.956,46.7704,0.003916
58.972,46.7933,0.003916
58.988,46.8160,0.003916
59.003,46.8378,0.003699
59.020,46.8606,0.003699
59.036,46.8838,0.003699
59.052,46.9076,0.003699
59.068,46.9308,0.003699
59.083,46.9539,0.003699
59.100,46.9786,0.003699
59.116,47.0025,0.003699
59.132,47.0272,0.003699
59.147,47.0504,0.003699
59.164,47.0774,0.003699
59.179,47.1000,0.003699
59.195,47.1251,0.003699
59.224,47.1695,0.003699
59.241,47.1963,0.003699
59.271,47.2455,0.003417
59.287,47.2724,0.003417
59.304,47.2994,0.003417
59.320,47.3271,0.003417
59.336,47.3518,0.003417
59.352,47.3798,0.003417
59.368,47.4071,0.003417
59.383,47.4343,0.003417
59.399,47.4607,0.003417
59.415,47.4887,0.003417
59.432,47.5171,0.003417
59.447,47.5440,0.003417
59.463,47.5724,0.003417
59.480,47.6029,0.003417
59.496,47.6301,0.003191
59.511,47.6582,0.003191
59.528,47.6879,0.003191
59.544,47.7175,0.003191
59.559,47.7460,0.003191
59.576,47.7766,0.003191
59.592,47.8066,0.003191
59.607,47.8360,0.003191
59.623,47.8654,0.003191
59.640,47.8964,0.003191
59.656,47.9271,0.003191
59.671,47.9575,0.003191
59.688,47.9893,0.003191
59.703,48.0194,0.003191
59.719,48.0505,0.003191
59.737,48.0840,0.003191
59.752,48.1141,0.003191
59.782,48.1747,0.002928
59.797,48.2069,0.002928
59.813,48.2388,0.002928
59.829,48.2710,0.002928
59.847,48.3095,0.002928
59.865,48.3455,0.002928
59.890,48.3978,0.002928
59.909,48.4371,0.002928
59.925,48.4713,0.002928
59.942,48.5058,0.002928
59.957,48.5395,0.002928
59.973,48.5734,0.002928
59.990,48.6071,0.002928
60.005,48.6398,0.002598
60.021,48.6729,0.002598
60.038,48.7067,0.002598
60.054,48.7397,0.002598
60.069,48.7722,0.002598
60.085,48.8046,0.002598
60.102,48.8381,0.002598
60.118,48.8695,0.002598
60.133,48.9003,0.002598
60.149,48.9316,0.002598
60.165,48.9633,0.002598
60.181,48.9942,0.002598
60.197,49.0253,0.002598
60.213,49.0560,0.002598
60.230,49.0879,0.002598
60.246,49.1179,0.002438
60.261,49.1476,0.002438
60.278,49.1790,0.002438
60.294,49.2088,0.002438
60.310,49.2390,0.002438
60.334,49.2842,0.002438
60.350,49.3132,0.002438
60.366,49.3416,0.002438
60.382,49.3706,0.002438
60.399,49.4009,0.002438
60.420,49.4383,0.002438
60.446,49.4845,0.002438
60.463,49.5121,0.002438
60.479,49.5398,0.002438
60.495,49.5673,0.002325
60.510,49.5937,0.002325
60.531,49.6308,0.002325
60.554,49.6689,0.002325
60.575,49.7023,0.002325
60.591,49.7291,0.002325
60.606,49.7545,0.002325
60.622,49.7805,0.002325
60.638,49.8050,0.002325
60.654,49.8316,0.002325
60.670,49.8559,0.002325
60.686,49.8809,0.002325
60.702,49.9063,0.002325
60.719,49.9321,0.002325
60.734,49.9565,0.002325
60.750,49.9795,0.002118
60.766,50.0039,0.002118
60.782,50.0280,0.002118
60.798,50.0518,0.002118
60.814,50.0758,0.002118
60.830,50.0991,0.002118
60.857,50.1383,0.002118
60.874,50.1614,0.002118
60.889,50.1834,0.002118
60.905,50.2062,0.002118
60.921,50.2289,0.002118
60.937,50.2506,0.002118
60.954,50.2735,0.002118
60.969,50.2947,0.002118
60.986,50.3161,0.002118
61.001,50.3364,0.001901
61.018,50.3596,0.001901
61.035,50.3817,0.001901
61.066,50.4220,0.001901
61.081,50.4402,0.001901
61.097,50.4603,0.001901
61.113,50.4806,0.001901
61.129,50.5002,0.001901
61.145,50.5202,0.001901
61.161,50.5397,0.001901
61.177,50.5588,0.001901
61.193,50.5773,0.001901
61.214,50.6038,0.001901
61.236,50.6286,0.001901
61.257,50.6514,0.001676
61.273,50.6700,0.001676
61.290,50.6881,0.001676
61.313,50.7139,0.001676
61.345,50.7483,0.001676
61.374,50.7790,0.001676
61.395,50.8007,0.001676
61.411,50.8176,0.001676
61.427,50.8331,0.001676
61.444,50.8501,0.001676
61.459,50.8660,0.001676
61.475,50.8804,0.001676
61.491,50.8970,0.001478
61.507,50.9110,0.001478
61.523,50.9271,0.001478
61.539,50.9409,0.001478
61.555,50.9559,0.001478
61.571,50.9703,0.001478
61.586,50.9842,0.001478
61.603,50.9981,0.001478
61.619,51.0120,0.001478
61.638,51.0293,0.001478
61.657,51.0453,0.001478
61.682,51.0648,0.001478
61.699,51.0786,0.001478
61.715,51.0911,0.001478
61.731,51.1035,0.001478
61.747,51.1156,0.001374
61.763,51.1280,0.001374
61.779,51.1402,0.001374
61.795,51.1519,0.001374
61.811,51.1636,0.001374
61.827,51.1746,0.001374
61.842,51.1856,0.001374
61.859,51.1965,0.001374
61.875,51.2077,0.001374
61.891,51.2177,0.001374
61.907,51.2285,0.001374
61.929,51.2423,0.001374
61.946,51.2527,0.001374
61.973,51.2693,0.001374
61.993,51.2806,0.001374
62.009,51.2899,0.001374
62.025,51.2987,0.001214
62.040,51.3073,0.001214
62.057,51.3161,0.001214
62.073,51.3242,0.001214
62.088,51.3323,0.001214
62.105,51.3405,0.001214
62.121,51.3488,0.001214
62.144,51.3593,0.001214
62.160,51.3664,0.001214
62.176,51.3734,0.001214
62.192,51.3804,0.001214
62.223,51.3933,0.001214
62.254,51.4056,0.001214
62.285,51.4165,0.000744
62.301,51.4222,0.000744
62.332,51.4326,0.000744
62.363,51.4422,0.000744
62.380,51.4469,0.000744
62.410,51.4552,0.000744
62.441,51.4630,0.000744
62.456,51.4666,0.000744
62.483,51.4722,0.000744
62.499,51.4756,0.000744
62.515,51.4784,-0.000273
62.531,51.4813,-0.000273
62.546,51.4837,-0.000273
62.562,51.4861,-0.000273
62.578,51.4885,-0.000273
62.595,51.4906,-0.000273
62.611,51.4923,-0.000273
62.626,51.4939,-0.000273
62.642,51.4954,-0.000273
62.659,51.4966,-0.000273
62.674,51.4976,-0.000273
62.690,51.4986,-0.000273
62.706,51.4992,-0.000273
62.722,51.4997,-0.000273
62.739,51.5000,-0.000273
62.755,51.5001,-0.001478
62.772,51.5001,-0.001478
62.798,51.5001,-0.001478
62.819,51.5001,-0.001478
62.835,51.5001,-0.001478
62.850,51.5001,-0.001478
62.866,51.5001,-0.001478
62.882,51.5001,-0.001478
62.899,51.5001,-0.001478
62.915,51.5001,-0.001478
62.930,51.5001,-0.001478
62.947,51.5001,-0.001478
62.962,51.5001,-0.001478
62.979,51.5001,-0.001478
62.994,51.5001,-0.001478
63.010,51.5001,-0.001478
63.032,51.5001,-0.001186
63.048,51.5001,-0.001186
63.063,51.5001,-0.001186
63.079,51.5001,-0.001186
63.095,51.5001,-0.001186
63.111,51.5001,-0.001186
63.127,51.5001,-0.001186
63.143,51.5001,-0.001186
63.160,51.5001,-0.001186
63.176,51.5001,-0.001186
63.191,51.5001,-0.001186
63.207,51.5001,-0.001186
63.226,51.5001,-0.001186
63.249,51.5001,-0.001186
63.280,51.5001,-0.000104
63.311,51.5001,-0.000104
63.341,51.5001,-0.000104
63.372,51.5001,-0.000104
63.387,51.5001,-0.000104
63.419,51.5001,-0.000104
63.450,51.5001,-0.000104
63.466,51.5001,-0.000104
63.497,51.5001,0.000414
63.513,51.5001,0.000414
63.528,51.5001,0.000414
63.544,51.5001,0.000414
63.560,51.5001,0.000414
63.589,51.5001,0.000414
63.605,51.5001,0.000414
63.621,51.5001,0.000414
63.637,51.5001,0.000414
63.654,51.5001,0.000414
63.670,51.5001,0.000414
63.685,51.5001,0.000414
63.701,51.5001,0.000414
63.718,51.5001,0.000414
63.745,51.5001,0.000697
63.765,51.5001,0.000697
63.781,51.5001,0.000697
63.797,51.5001,0.000697
63.813,51.5001,0.000697
63.829,51.5001,0.000697
63.845,51.5001,0.000697
63.862,51.5001,0.000697
63.886,51.5001,0.000697
63.917,51.5001,0.000697
63.947,51.5001,0.000697
63.977,51.5001,0.000697
64.008,51.5001,0.000866
64.024,51.5001,0.000866
64.055,51.5001,0.000866
64.086,51.5001,0.000866
64.101,51.5001,0.000866
64.117,51.5001,0.000866
64.146,51.5001,0.000866
64.162,51.5001,0.000866
64.178,51.5001,0.000866
64.194,51.5001,0.000866
64.211,51.5001,0.000866
64.240,51.5001,0.000913
64.258,51.5001,0.000913
64.274,51.5001,0.000913
64.290,51.5001,0.000913
64.306,51.5001,0.000913
64.323,51.5001,0.000913
64.339,51.5001,0.000913
64.355,51.5001,0.000913
64.379,51.5001,0.000913
64.410,51.5001,0.000913
64.425,51.5001,0.000913
64.441,51.5001,0.000913
64.456,51.5001,0.000913
64.472,51.5001,0.000913
64.503,51.5001,0.000960
64.519,51.5001,0.000960
64.550,51.5001,0.000960
64.580,51.5001,0.000960
64.595,51.5001,0.000960
64.626,51.5001,0.000960
64.644,51.5001,0.000960
64.673,51.5001,0.000960
64.702,51.5001,0.000960
64.718,51.5001,0.000960
64.734,51.5001,0.001045
64.750,51.5001,0.001045
64.766,51.5001,0.001045
64.782,51.5001,0.001045
64.798,51.5001,0.001045
64.814,51.5001,0.001045
64.830,51.5001,0.001045
64.846,51.5001,0.001045
64.862,51.5001,0.001045
64.878,51.5001,0.001045
64.894,51.5001,0.001045
64.910,51.5001,0.001045
64.926,51.5001,0.001045
64.942,51.5001,0.001045
64.958,51.5001,0.001045
64.974,51.5001,0.001045
64.990,51.5001,0.001073
65.006,51.5001,0.001073
65.023,51.5001,0.001073
65.038,51.5001,0.001073
65.053,51.5001,0.001073
65.070,51.5001,0.001073
65.086,51.5001,0.001073
65.102,51.5001,0.001073
65.117,51.5001,0.001073
65.134,51.5001,0.001073
65.149,51.5001,0.001073
65.165,51.5001,0.001073
65.182,51.5001,0.001073
65.198,51.5001,0.001073
65.225,51.5001,0.001073
65.240,51.5001,0.001073
65.257,51.5001,0.001111
65.272,51.5001,0.001111
65.289,51.5001,0.001111
65.304,51.5001,0.001111
65.321,51.5001,0.001111
65.337,51.5001,0.001111
65.352,51.5001,0.001111
65.369,51.5001,0.001111
65.384,51.5001,0.001111
65.401,51.5001,0.001111
65.416,51.5001,0.001111
65.433,51.5001,0.001111
65.448,51.5001,0.001111
65.464,51.5001,0.001111
65.481,51.5001,0.001111
65.496,51.5001,0.001111
65.514,51.5001,0.001111
65.543,51.5001,0.001111
65.560,51.5001,0.001111
65.577,51.5001,0.001111
65.593,51.5001,0.001111
65.608,51.5001,0.001111
65.624,51.5001,0.001111
65.641,51.5001,0.001111
65.656,51.5001,0.001111
65.673,51.5001,0.001111
65.689,51.5001,0.001111
65.705,51.5001,0.001111
65.721,51.5001,0.001111
65.737,51.5001,0.001111
65.760,51.5001,0.001083
65.777,51.5001,0.001083
65.793,51.5001,0.001083
65.808,51.5001,0.001083
65.825,51.5001,0.001083
65.841,51.5001,0.001083
65.856,51.5001,0.001083
65.872,51.5001,0.001083
65.889,51.5001,0.001083
65.905,51.5001,0.001083
65.921,51.5001,0.001083
65.936,51.5001,0.001083
65.954,51.5001,0.001083
65.979,51.5001,0.001130
66.002,51.5001,0.001130
66.025,51.5001,0.001130
66.041,51.5001,0.001130
66.072,51.5001,0.001130
66.102,51.5001,0.001130
66.133,51.5001,0.001130
66.164,51.5001,0.001130
66.195,51.5001,0.001130
66.226,51.5001,0.001130
66.242,51.5001,0.001130
66.257,51.5001,0.001130
66.274,51.5001,0.001130
66.303,51.5001,0.001195
66.320,51.5001,0.001195
66.336,51.5001,0.001195
66.353,51.5001,0.001195
66.369,51.5001,0.001195
66.384,51.5001,0.001195
66.400,51.5001,0.001195
66.416,51.5001,0.001195
66.432,51.5001,0.001195
66.448,51.5001,0.001195
66.464,51.5001,0.001195
66.480,51.5001,0.001195
66.497,51.5001,0.001195
66.512,51.5001,0.001195
66.528,51.5001,0.001064
66.544,51.5001,0.001064
66.561,51.5001,0.001064
66.583,51.5001,0.001064
66.613,51.5001,0.001064
66.629,51.5001,0.001064
66.660,51.5001,0.001064
66.691,51.5001,0.001064
66.722,51.5001,0.001064
66.738,51.5001,0.001064
66.753,51.5001,0.001064
66.768,51.5001,0.000885
66.784,51.5001,0.000885
66.801,51.5001,0.000885
66.831,51.5001,0.000885
66.860,51.5001,0.000885
66.876,51.5001,0.000885
66.892,51.5001,0.000885
66.908,51.5001,0.000885
66.924,51.5001,0.000885
66.940,51.5001,0.000885
66.956,51.5001,0.000885
66.972,51.5001,0.000885
66.988,51.5001,0.000885
67.004,51.5001,0.000885
67.022,51.5001,0.000640
67.048,51.5000,0.000640
67.068,51.4996,0.000640
67.084,51.4991,0.000640
67.100,51.4984,0.000640
67.116,51.4974,0.000640
67.132,51.4963,0.000640
67.148,51.4950,0.000640
67.164,51.4934,0.000640
67.180,51.4918,0.000640
67.196,51.4899,0.000640
67.212,51.4878,0.000640
67.228,51.4855,0.000640
67.244,51.4831,0.000640
67.260,51.4804,0.000527
67.276,51.4775,0.000527
67.292,51.4746,0.000527
67.309,51.4711,0.000527
67.324,51.4677,0.000527
67.340,51.4641,0.000527
67.356,51.4603,0.000527
67.384,51.4531,0.000527
67.406,51.4472,0.000527
67.437,51.4377,0.000527
67.468,51.4281,0.000527
67.484,51.4227,0.000527
67.515,51.4117,0.005262
67.546,51.4003,0.005262
67.561,51.3939,0.005262
67.592,51.3815,0.005262
67.608,51.3744,0.005262
67.637,51.3610,0.005262
67.655,51.3529,0.005262
67.671,51.3452,0.005262
67.690,51.3357,0.005262
67.715,51.3234,0.005262
67.735,51.3128,0.005262
67.751,51.3045,0.010948
67.767,51.2956,0.010948
67.784,51.2858,0.010948
67.809,51.2717,0.010948
67.839,51.2528,0.010948
67.870,51.2338,0.010948
67.901,51.2139,0.010948
67.931,51.1938,0.010948
67.963,51.1718,0.010948
67.978,51.1609,0.010948
67.994,51.1497,0.009818
68.011,51.1372,0.009818
68.041,51.1145,0.009818
68.072,51.0905,0.009818
68.103,51.0653,0.009818
68.129,51.0437,0.009818
68.151,51.0261,0.009818
68.166,51.0128,0.009818
68.183,50.9982,0.009818
68.211,50.9740,0.009818
68.231,50.9560,0.009818
68.247,50.9406,0.009818
68.262,50.9269,0.009818
68.279,50.9109,0.010213
68.294,50.8966,0.010213
68.312,50.8784,0.010213
68.334,50.8572,0.010213
68.350,50.8430,0.010213
68.367,50.8252,0.010213
68.396,50.7954,0.010213
68.412,50.7795,0.010213
68.433,50.7572,0.010213
68.448,50.7405,0.010213
68.464,50.7231,0.010213
68.480,50.7060,0.010213
68.497,50.6875,0.010213
68.513,50.6699,0.008622
68.528,50.6525,0.008622
68.544,50.6341,0.008622
68.561,50.6148,0.008622
68.577,50.5967,0.008622
68.592,50.5781,0.008622
68.609,50.5589,0.008622
68.624,50.5394,0.008622
68.640,50.5209,0.008622
68.657,50.5007,0.008622
68.672,50.4811,0.008622
68.689,50.4610,0.008622
68.706,50.4396,0.008622
68.722,50.4190,0.008622
68.753,50.3784,0.008622
68.769,50.3584,0.003097
68.784,50.3378,0.003097
68.801,50.3159,0.003097
68.816,50.2947,0.003097
68.833,50.2728,0.003097
68.848,50.2508,0.003097
68.865,50.2275,0.003097
68.881,50.2056,0.003097
68.897,50.1837,0.003097
68.913,50.1602,0.003097
68.928,50.1386,0.003097
68.945,50.1148,0.003097
68.970,50.0784,0.003097
68.990,50.0483,0.003097
69.007,50.0231,0.003097
69.022,50.0007,0.001798
69.039,49.9759,0.001798
69.055,49.9508,0.001798
69.071,49.9256,0.001798
69.094,49.8898,0.001798
69.126,49.8409,0.001798
69.156,49.7919,0.001798
69.172,49.7655,0.001798
69.188,49.7398,0.001798
69.218,49.6907,0.001798
69.249,49.6400,0.001798
69.279,49.5880,0.001958
69.310,49.5342,0.001958
69.326,49.5076,0.001958
69.342,49.4799,0.001958
69.358,49.4516,0.001958
69.374,49.4227,0.001958
69.390,49.3939,0.001958
69.406,49.3658,0.001958
69.423,49.3359,0.001958
69.438,49.3082,0.001958
69.454,49.2780,0.001958
69.470,49.2500,0.001958
69.486,49.2206,0.001958
69.502,49.1903,0.001958
69.518,49.1605,0.001958
69.542,49.1149,0.002137
69.558,49.0826,0.002137
69.574,49.0541,0.002137
69.590,49.0230,0.002137
69.606,48.9914,0.002137
69.622,48.9602,0.002137
69.638,48.9294,0.002137
69.654,48.8980,0.002137
69.670,48.8649,0.002137
69.686,48.8339,0.002137
69.702,48.8007,0.002137
69.718,48.7691,0.002137
69.734,48.7353,0.002137
69.751,48.7020,0.002137
69.766,48.6709,0.002363
69.782,48.6369,0.002363
69.798,48.6024,0.002363
69.814,48.5694,0.002363
69.830,48.5369,0.002363
69.846,48.5018,0.002363
69.862,48.4675,0.002363
69.878,48.4344,0.002363
69.894,48.3999,0.002363
69.910,48.3665,0.002363
69.926,48.3327,0.002363
69.942,48.2999,0.002363
69.958,48.2672,0.002363
69.974,48.2328,0.002363
69.990,48.1997,0.002363
70.007,48.1671,0.002523
70.022,48.1350,0.002523
70.038,48.1034,0.002523
70.055,48.0696,0.002523
70.083,48.0148,0.002523
70.102,47.9772,0.002523
70.118,47.9457,0.002523
70.134,47.9155,0.002523
70.150,47.8837,0.002523
70.166,47.8537,0.002523
70.182,47.8223,0.002523
70.198,47.7935,0.002523
70.214,47.7632,0.002523
70.230,47.7335,0.002523
70.246,47.7040,0.002523
70.262,47.6744,0.002673
70.278,47.6451,0.002673
70.294,47.6142,0.002673
70.310,47.5863,0.002673
70.326,47.5586,0.002673
70.342,47.5301,0.002673
70.358,47.5012,0.002673
70.374,47.4734,0.002673
70.390,47.4450,0.002673
70.407,47.4158,0.002673
70.422,47.3892,0.002673
70.438,47.3621,0.002673
70.454,47.3358,0.002673
70.474,47.3022,0.002673
70.491,47.2728,0.002673
70.516,47.2313,0.002909
70.535,47.2010,0.002909
70.563,47.1567,0.002909
70.582,47.1254,0.002909
70.598,47.1000,0.002909
70.614,47.0752,0.002909
70.630,47.0506,0.002909
70.646,47.0258,0.002909
70.663,46.9989,0.002909
70.687,46.9618,0.002909
70.717,46.9160,0.002909
70.733,46.8931,0.002909
70.763,46.8495,0.003219
70.779,46.8250,0.003219
70.809,46.7829,0.003219
70.840,46.7387,0.003219
70.871,46.6969,0.003219
70.887,46.6747,0.003219
70.919,46.6319,0.003219
70.949,46.5923,0.003219
70.972,46.5610,0.003219
70.988,46.5419,0.003219
71.010,46.5129,0.003473
71.029,46.4884,0.003473
71.046,46.4681,0.003473
71.061,46.4490,0.003473
71.078,46.4282,0.003473
71.094,46.4090,0.003473
71.110,46.3903,0.003473
71.126,46.3708,0.003473
71.150,46.3436,0.003473
71.165,46.3250,0.003473
71.181,46.3070,0.003473
71.198,46.2888,0.003473
71.214,46.2699,0.003473
71.230,46.2524,0.003473
71.246,46.2343,0.003643
71.262,46.2167,0.003643
71.278,46.1998,0.003643
71.293,46.1841,0.003643
71.309,46.1674,0.003643
71.325,46.1507,0.003643
71.341,46.1344,0.003643
71.357,46.1180,0.003643
71.373,46.1022,0.003643
71.389,46.0864,0.003643
71.406,46.0697,0.003643
71.428,46.0485,0.003643
71.444,46.0332,0.003643
71.476,46.0043,0.003643
71.506,45.9765,0.003841
71.522,45.9631,0.003841
71.538,45.9487,0.003841
71.569,45.9219,0.003841
71.599,45.8965,0.003841
71.630,45.8719,0.003841
71.647,45.8585,0.003841
71.677,45.8360,0.003841
71.706,45.8139,0.003841
71.721,45.8019,0.003841
71.737,45.7908,0.004095
71.753,45.7792,0.004095
71.770,45.7670,0.004095
71.800,45.7467,0.004095
71.817,45.7356,0.004095
71.834,45.7247,0.004095
71.849,45.7152,0.004095
71.865,45.7051,0.004095
71.881,45.6952,0.004095
71.898,45.6851,0.004095
71.926,45.6689,0.004095
71.946,45.6576,0.004095
71.962,45.6484,0.004095
71.978,45.6401,0.004095
71.994,45.6314,0.004311
72.009,45.6235,0.004311
72.026,45.6148,0.004311
72.042,45.6071,0.004311
72.058,45.5996,0.004311
72.073,45.5923,0.004311
72.090,45.5844,0.004311
72.106,45.5775,0.004311
72.122,45.5707,0.004311
72.137,45.5642,0.004311
72.153,45.5575,0.004311
72.169,45.5512,0.004311
72.185,45.5451,0.004311
72.202,45.5387,0.004311
72.232,45.5279,0.004311
72.251,45.5218,0.004311
72.281,45.5120,0.004443
72.311,45.5033,0.004443
72.327,45.4989,0.004443
72.344,45.4944,0.004443
72.359,45.4904,0.004443
72.375,45.4867,0.004443
72.391,45.4830,0.004443
72.407,45.4795,0.004443
72.423,45.4763,0.004443
72.439,45.4732,0.004443
72.455,45.4703,0.004443
72.472,45.4675,0.004443
72.488,45.4650,0.004443
72.504,45.4627,0.004481
72.519,45.4607,0.004481
72.535,45.4587,0.004481
72.551,45.4569,0.004481
72.567,45.4555,0.004481
72.583,45.4541,0.004481
72.599,45.4530,0.004481
72.615,45.4520,0.004481
72.631,45.4512,0.004481
72.647,45.4507,0.004481
72.663,45.4502,0.004481
72.679,45.4501,0.004481
72.695,45.4501,0.004481
72.711,45.4501,0.004481
72.727,45.4501,0.004481
72.743,45.4501,0.004481
72.772,45.4501,0.004528
72.788,45.4501,0.004528
72.804,45.4501,0.004528
72.820,45.4501,0.004528
72.837,45.4501,0.004528
72.854,45.4501,0.004528
72.870,45.4504,0.004528
72.886,45.4509,0.004528
72.901,45.4514,0.004528
72.916,45.4522,0.004528
72.932,45.4531,0.004528
72.948,45.4543,0.004528
72.966,45.4558,0.004528
72.994,45.4587,0.004660
73.012,45.4609,0.004660
73.028,45.4631,0.004660
73.044,45.4655,0.004660
73.060,45.4680,0.004660
73.076,45.4706,0.004660
73.092,45.4736,0.004660
73.108,45.4767,0.004660
73.124,45.4799,0.004660
73.140,45.4835,0.004660
73.156,45.4873,0.004660
73.172,45.4911,0.004660
73.188,45.4950,0.004660
73.204,45.4995,0.004660
73.220,45.5040,0.004660
73.236,45.5085,0.004594
73.252,45.5134,0.004594
73.269,45.5188,0.004594
73.286,45.5243,0.004594
73.316,45.5348,0.004594
73.333,45.5415,0.004594
73.363,45.5526,0.004594
73.381,45.5595,0.004594
73.396,45.5657,0.004594
73.412,45.5728,0.004594
73.428,45.5796,0.004594
73.444,45.5867,0.004594
73.460,45.5942,0.004594
73.476,45.6018,0.004594
73.492,45.6096,0.004471
73.508,45.6176,0.004471
73.524,45.6256,0.004471
73.540,45.6342,0.004471
73.555,45.6422,0.004471
73.572,45.6513,0.004471
73.588,45.6603,0.004471
73.604,45.6692,0.004471
73.620,45.6786,0.004471
73.636,45.6879,0.004471
73.652,45.6977,0.004471
73.667,45.7073,0.004471
73.684,45.7178,0.004471
73.700,45.7279,0.004471
73.716,45.7387,0.004471
73.732,45.7493,0.004471
73.748,45.7603,0.004396
73.764,45.7716,0.004396
73.780,45.7823,0.004396
73.796,45.7934,0.004396
73.812,45.8055,0.004396
73.828,45.8170,0.004396
73.849,45.8329,0.004396
73.865,45.8451,0.004396
73.880,45.8574,0.004396
73.897,45.8702,0.004396
73.913,45.8837,0.004396
73.929,45.8960,0.004396
73.945,45.9104,0.004396
73.961,45.9228,0.004396
73.977,45.9369,0.004396
73.992,45.9501,0.004311
74.010,45.9657,0.004311
74.025,45.9788,0.004311
74.040,45.9927,0.004311
74.057,46.0077,0.004311
74.072,46.0222,0.004311
74.088,46.0373,0.004311
74.105,46.0524,0.004311
74.122,46.0690,0.004311
74.137,46.0840,0.004311
74.152,46.0990,0.004311
74.169,46.1154,0.004311
74.185,46.1319,0.004311
74.201,46.1480,0.004311
74.217,46.1645,0.004311
74.233,46.1810,0.004311
74.249,46.1985,0.004311
74.264,46.2146,0.004311
74.280,46.2320,0.004151
74.297,46.2501,0.004151
74.313,46.2682,0.004151
74.328,46.2853,0.004151
74.344,46.3033,0.004151
74.361,46.3219,0.004151
74.384,46.3502,0.004151
74.401,46.3694,0.004151
74.424,46.3962,0.004151
74.440,46.4149,0.004151
74.470,46.4526,0.004151
74.486,46.4725,0.004151
74.518,46.5125,0.003888
74.534,46.5322,0.003888
74.549,46.5522,0.003888
74.580,46.5930,0.003888
74.596,46.6128,0.003888
74.611,46.6331,0.003888
74.627,46.6540,0.003888
74.643,46.6778,0.003888
74.672,46.7160,0.003888
74.689,46.7401,0.003888
74.719,46.7826,0.003888
74.736,46.8067,0.003633
74.753,46.8306,0.003633
74.768,46.8532,0.003633
74.785,46.8769,0.003633
74.800,46.9001,0.003633
74.817,46.9249,0.003633
74.833,46.9486,0.003633
74.849,46.9735,0.003633
74.865,46.9969,0.003633
74.881,47.0219,0.003633
74.896,47.0456,0.003633
74.912,47.0707,0.003633
74.937,47.1110,0.003633
74.955,47.1390,0.003633
74.972,47.1656,0.003633
74.998,47.2074,0.003361
75.017,47.2387,0.003361
75.032,47.2638,0.003361
75.048,47.2911,0.003361
75.065,47.3185,0.003361
75.081,47.3456,0.003361
75.097,47.3734,0.003361
75.112,47.3987,0.003361
75.130,47.4297,0.003361
75.145,47.4556,0.003361
75.160,47.4818,0.003361
75.176,47.5107,0.003361
75.192,47.5388,0.003361
75.209,47.5679,0.003361
75.224,47.5957,0.003361
75.240,47.6256,0.003361
75.257,47.6549,0.003361
75.272,47.6839,0.003106
75.288,47.7136,0.003106
75.304,47.7429,0.003106
75.320,47.7722,0.003106
75.336,47.8031,0.003106
75.353,47.8346,0.003106
75.369,47.8656,0.003106
75.385,47.8950,0.003106
75.400,47.9246,0.003106
75.416,47.9564,0.003106
75.433,47.9888,0.003106
75.449,48.0199,0.003106
75.464,48.0499,0.003106
75.492,48.1063,0.003106
75.507,48.1371,0.003106
75.523,48.1701,0.002918
75.539,48.2012,0.002918
75.556,48.2357,0.002918
75.587,48.2986,0.002918
75.603,48.3338,0.002918
75.619,48.3669,0.002918
75.635,48.4011,0.002918
75.651,48.4341,0.002918
75.667,48.4682,0.002918
75.684,48.5057,0.002918
75.704,48.5469,0.002918
75.726,48.5933,0.002918
75.747,48.6368,0.002918
75.765,48.6750,0.002918
75.788,48.7199,0.002645
75.819,48.7826,0.002645
75.850,48.8443,0.002645
75.881,48.9058,0.002645
75.912,48.9662,0.002645
75.947,49.0344,0.002645
75.974,49.0854,0.002645
76.006,49.1448,0.002645
76.035,49.2000,0.002645
76.051,49.2286,0.002391
76.067,49.2573,0.002391
76.083,49.2869,0.002391
76.099,49.3154,0.002391
76.115,49.3442,0.002391
76.131,49.3727,0.002391
76.147,49.4005,0.002391
76.163,49.4287,0.002391
76.179,49.4574,0.002391
76.195,49.4846,0.002391
76.211,49.5129,0.002391
76.227,49.5392,0.002391
76.243,49.5665,0.002391
76.259,49.5944,0.002391
76.276,49.6218,0.002250
76.300,49.6615,0.002250
76.331,49.7122,0.002250
76.347,49.7380,0.002250
76.363,49.7650,0.002250
76.394,49.8135,0.002250
76.410,49.8375,0.002250
76.441,49.8861,0.002250
76.456,49.9096,0.002250
76.487,49.9575,0.002250
76.517,50.0014,0.002250
76.534,50.0262,0.002071
76.564,50.0704,0.002071
76.595,50.1135,0.002071
76.611,50.1375,0.002071
76.627,50.1583,0.002071
76.643,50.1811,0.002071
76.659,50.2041,0.002071
76.675,50.2250,0.002071
76.691,50.2464,0.002071
76.707,50.2681,0.002071
76.723,50.2893,0.002071
76.742,50.3148,0.002071
76.764,50.3432,0.002071
76.780,50.3642,0.002071
76.810,50.4029,0.001911
76.841,50.4422,0.001911
76.857,50.4605,0.001911
76.887,50.4971,0.001911
76.903,50.5169,0.001911
76.919,50.5363,0.001911
76.950,50.5707,0.001911
76.981,50.6065,0.001911
76.998,50.6257,0.001911
77.028,50.6585,0.001741
77.058,50.6915,0.001741
77.075,50.7093,0.001741
77.090,50.7256,0.001741
77.106,50.7431,0.001741
77.131,50.7685,0.001741
77.152,50.7890,0.001741
77.185,50.8213,0.001741
77.215,50.8501,0.001741
77.245,50.8796,0.001741
77.276,50.9074,0.001563
77.306,50.9337,0.001563
77.321,50.9478,0.001563
77.337,50.9612,0.001563
77.355,50.9761,0.001563
77.371,50.9893,0.001563
77.399,51.0132,0.001563
77.417,51.0275,0.001563
77.438,51.0446,0.001563
77.464,51.0639,0.001563
77.482,51.0777,0.001563
77.497,51.0891,0.001563
77.514,51.1014,0.001563
77.529,51.1124,0.001403
77.545,51.1238,0.001403
77.561,51.1349,0.001403
77.578,51.1461,0.001403
77.593,51.1564,0.001403
77.610,51.1676,0.001403
77.626,51.1781,0.001403
77.642,51.1882,0.001403
77.657,51.1979,0.001403
77.680,51.2119,0.001403
77.709,51.2289,0.001403
77.728,51.2393,0.001403
77.745,51.2487,0.001403
77.772,51.2635,0.001195
77.791,51.2736,0.001195
77.810,51.2829,0.001195
77.833,51.2949,0.001195
77.849,51.3019,0.001195
77.881,51.3173,0.001195
77.911,51.3303,0.001195
77.942,51.3433,0.001195
77.973,51.3550,0.001195
77.988,51.3608,0.001195
78.004,51.3667,0.001195
78.020,51.3719,0.000697
78.050,51.3823,0.000697
78.066,51.3871,0.000697
78.081,51.3916,0.000697
78.097,51.3963,0.000697
78.113,51.4006,0.000697
78.129,51.4049,0.000697
78.159,51.4126,0.000697
78.175,51.4163,0.000697
78.191,51.4197,0.000697
78.219,51.4257,0.000697
78.235,51.4284,0.000697
78.251,51.4312,-0.000480
78.267,51.4338,-0.000480
78.284,51.4364,-0.000480
78.300,51.4385,-0.000480
78.315,51.4405,-0.000480
78.331,51.4423,-0.000480
78.347,51.4441,-0.000480
78.363,51.4454,-0.000480
78.379,51.4467,-0.000480
78.395,51.4477,-0.000480
78.411,51.4485,-0.000480
78.427,51.4491,-0.000480
78.443,51.4496,-0.000480
78.460,51.4499,-0.000480
78.477,51.4500,-0.000480
78.499,51.4500,-0.000480
78.515,51.4500,-0.001591
78.545,51.4500,-0.001591
78.576,51.4500,-0.001591
78.608,51.4500,-0.001591
78.637,51.4500,-0.001591
78.668,51.4500,-0.001591
78.699,51.4500,-0.001591
78.715,51.4500,-0.001591
78.731,51.4500,-0.001591
78.747,51.4500,-0.001591
78.774,51.4500,-0.001073
78.790,51.4500,-0.001073
78.806,51.4500,-0.001073
78.822,51.4500,-0.001073
78.844,51.4500,-0.001073
78.868,51.4500,-0.001073
78.887,51.4500,-0.001073
78.902,51.4500,-0.001073
78.918,51.4500,-0.001073
78.934,51.4500,-0.001073
78.950,51.4500,-0.001073
78.966,51.4500,-0.001073
78.982,51.4500,-0.001073
78.998,51.4500,0.000056
79.014,51.4500,0.000056
79.032,51.4500,0.000056
79.056,51.4500,0.000056
79.088,51.4500,0.000056
79.118,51.4500,0.000056
79.133,51.4500,0.000056
79.149,51.4500,0.000056
79.165,51.4500,0.000056
79.195,51.4500,0.000056
79.230,51.4500,0.000056
79.258,51.4500,0.000527
79.288,51.4500,0.000527
79.318,51.4500,0.000527
79.334,51.4500,0.000527
79.350,51.4500,0.000527
79.366,51.4500,0.000527
79.382,51.4500,0.000527
79.398,51.4500,0.000527
79.414,51.4500,0.000527
79.429,51.4500,0.000527
79.446,51.4500,0.000527
79.465,51.4500,0.000527
79.490,51.4500,0.000725
79.510,51.4500,0.000725
79.525,51.4500,0.000725
79.542,51.4500,0.000725
79.557,51.4500,0.000725
79.574,51.4500,0.000725
79.590,51.4500,0.000725
79.605,51.4500,0.000725
79.621,51.4500,0.000725
79.638,51.4500,0.000725
79.654,51.4500,0.000725
79.670,51.4500,0.000725
79.686,51.4500,0.000725
79.702,51.4500,0.000725
79.719,51.4500,0.000725
79.735,51.4500,0.000725
79.753,51.4500,0.000866
79.784,51.4500,0.000866
79.815,51.4500,0.000866
79.831,51.4500,0.000866
79.856,51.4500,0.000866
79.877,51.4500,0.000866
79.909,51.4500,0.000866
79.939,51.4500,0.000866
79.955,51.4500,0.000866
79.971,51.4500,0.000866
80.002,51.4500,0.000988
80.033,51.4500,0.000988
80.049,51.4500,0.000988
80.065,51.4500,0.000988
80.096,51.4500,0.000988
80.111,51.4500,0.000988
80.127,51.4500,0.000988
80.142,51.4500,0.000988
80.159,51.4500,0.000988
80.175,51.4500,0.000988
80.204,51.4500,0.000988
80.225,51.4500,0.000988
80.250,51.4500,0.001101
80.270,51.4500,0.001101
80.287,51.4500,0.001101
80.303,51.4500,0.001101
80.318,51.4500,0.001101
80.334,51.4500,0.001101
80.351,51.4500,0.001101
80.367,51.4500,0.001101
80.382,51.4500,0.001101
80.406,51.4500,0.001101
80.421,51.4500,0.001101
80.437,51.4500,0.001101
80.453,51.4500,0.001101
80.469,51.4500,0.001101
80.486,51.4500,0.001101
80.501,51.4500,0.001073
80.518,51.4500,0.001073
80.545,51.4500,0.001073
80.566,51.4500,0.001073
80.581,51.4500,0.001073
80.598,51.4500,0.001073
80.621,51.4500,0.001073
80.652,51.4500,0.001073
80.682,51.4500,0.001073
80.698,51.4500,0.001073
80.715,51.4500,0.001073
80.745,51.4500,0.001035
80.776,51.4500,0.001035
80.791,51.4500,0.001035
80.822,51.4500,0.001035
80.839,51.4500,0.001035
80.854,51.4500,0.001035
80.869,51.4500,0.001035
80.885,51.4500,0.001035
80.908,51.4500,0.001035
80.932,51.4500,0.001035
80.948,51.4500,0.001035
80.964,51.4500,0.001035
80.979,51.4500,0.001035
80.996,51.4500,0.001035
81.011,51.4500,0.001111
81.027,51.4500,0.001111
81.044,51.4500,0.001111
81.061,51.4500,0.001111
81.084,51.4500,0.001111
81.101,51.4500,0.001111
81.132,51.4500,0.001111
81.162,51.4500,0.001111
81.193,51.4500,0.001111
81.209,51.4500,0.001111
81.225,51.4500,0.001111
81.255,51.4500,0.001111
81.285,51.4500,0.001111
81.316,51.4500,0.001111
81.348,51.4500,0.001111
81.363,51.4500,0.001111
81.379,51.4500,0.001111
81.396,51.4500,0.001111
81.424,51.4500,0.001111
81.443,51.4500,0.001111
81.461,51.4500,0.001111
81.485,51.4500,0.001111
81.516,51.4500,0.001130
81.532,51.4500,0.001130
81.547,51.4500,0.001130
81.563,51.4500,0.001130
81.593,51.4500,0.001130
81.608,51.4500,0.001130
81.639,51.4500,0.001130
81.656,51.4500,0.001130
81.686,51.4500,0.001130
81.717,51.4500,0.001130
81.732,51.4500,0.001130
81.748,51.4500,0.001148
81.763,51.4500,0.001148
81.779,51.4500,0.001148
81.795,51.4500,0.001148
81.811,51.4500,0.001148
81.830,51.4500,0.001148
81.847,51.4500,0.001148
81.872,51.4500,0.001148
81.891,51.4500,0.001148
81.907,51.4500,0.001148
81.923,51.4500,0.001148
81.939,51.4500,0.001148
81.969,51.4500,0.001148
81.992,51.4500,0.001148
82.009,51.4500,0.001148
82.041,51.4500,0.001158
82.071,51.4500,0.001158
82.086,51.4500,0.001158
82.103,51.4500,0.001158
82.132,51.4500,0.001158
82.148,51.4500,0.001158
82.178,51.4500,0.001158
82.208,51.4500,0.001158
82.225,51.4500,0.001158
82.241,51.4500,0.001139
82.257,51.4500,0.001139
82.273,51.4500,0.001139
82.289,51.4500,0.001139
82.305,51.4500,0.001139
82.321,51.4500,0.001139
82.337,51.4500,0.001139
82.353,51.4500,0.001139
82.369,51.4500,0.001139
82.385,51.4500,0.001139
82.401,51.4500,0.001139
82.417,51.4500,0.001139
82.433,51.4500,0.001139
82.449,51.4500,0.001139
82.465,51.4500,0.001139
82.481,51.4500,0.001139
82.497,51.4500,0.001139
82.518,51.4500,0.000922
82.534,51.4500,0.000922
82.550,51.4500,0.000922
82.566,51.4500,0.000922
82.582,51.4500,0.000922
82.598,51.4500,0.000922
82.615,51.4500,0.000922
82.643,51.4500,0.000922
82.661,51.4500,0.000922
82.677,51.4500,0.000922
82.694,51.4500,0.000922
82.711,51.4500,0.000922
82.726,51.4500,0.000922
82.742,51.4500,0.000621
82.757,51.4500,0.000621
82.774,51.4498,0.000621
82.790,51.4494,0.000621
82.805,51.4489,0.000621
82.821,51.4481,0.000621
82.838,51.4472,0.000621
82.854,51.4460,0.000621
82.870,51.4447,0.000621
82.886,51.4432,0.000621
82.902,51.4413,0.000621
82.918,51.4395,0.000621
82.933,51.4375,0.000621
82.950,51.4349,0.000621
82.965,51.4326,0.000621
82.981,51.4299,0.000621
82.997,51.4271,0.000828
83.014,51.4237,0.000828
83.029,51.4206,0.000828
83.046,51.4170,0.000828
83.077,51.4098,0.000828
83.093,51.4057,0.000828
83.108,51.4018,0.000828
83.125,51.3972,0.000828
83.140,51.3927,0.000828
83.157,51.3877,0.000828
83.172,51.3829,0.000828
83.189,51.3776,0.000828
83.205,51.3720,0.000828
83.220,51.3667,0.000828
83.237,51.3608,0.006203
83.253,51.3549,0.006203
83.268,51.3487,0.006203
83.285,51.3422,0.006203
83.301,51.3357,0.006203
83.317,51.3290,0.006203
83.332,51.3221,0.006203
83.350,51.3143,0.006203
83.372,51.3040,0.006203
83.388,51.2962,0.006203
83.418,51.2816,0.006203
83.434,51.2736,0.006203
83.465,51.2570,0.006203
83.496,51.2399,0.011211
83.513,51.2304,0.011211
83.543,51.2126,0.011211
83.574,51.1940,0.011211
83.590,51.1839,0.011211
83.620,51.1643,0.011211
83.637,51.1528,0.011211
83.653,51.1421,0.011211
83.668,51.1316,0.011211
83.684,51.1202,0.011211
83.701,51.1086,0.011211
83.716,51.0974,0.011211
83.733,51.0856,0.011211
83.748,51.0735,0.009705
83.764,51.0616,0.009705
83.780,51.0492,0.009705
83.796,51.0368,0.009705
83.813,51.0232,0.009705
83.832,51.0076,0.009705
83.851,50.9916,0.009705
83.882,50.9658,0.009705
83.912,50.9398,0.009705
83.943,50.9122,0.009705
83.959,50.8982,0.009705
83.974,50.8841,0.009705
84.004,50.8553,0.009705
84.020,50.8406,0.010985
84.036,50.8249,0.010985
84.053,50.8092,0.010985
84.069,50.7924,0.010985
84.098,50.7633,0.010985
84.116,50.7448,0.010985
84.132,50.7284,0.010985
84.148,50.7107,0.010985
84.174,50.6829,0.010985
84.195,50.6600,0.010985
84.223,50.6305,0.010985
84.238,50.6128,0.010985
84.255,50.5949,0.010985
84.270,50.5765,0.007832
84.286,50.5585,0.007832
84.302,50.5398,0.007832
84.318,50.5208,0.007832
84.334,50.5012,0.007832
84.350,50.4826,0.007832
84.367,50.4622,0.007832
84.382,50.4432,0.007832
84.399,50.4221,0.007832
84.414,50.4036,0.007832
84.431,50.3827,0.007832
84.446,50.3631,0.007832
84.462,50.3425,0.007832
84.478,50.3215,0.007832
84.494,50.2994,0.007832
84.510,50.2791,0.001854
84.526,50.2580,0.001854
84.542,50.2364,0.001854
84.558,50.2141,0.001854
84.574,50.1910,0.001854
84.590,50.1696,0.001854
84.606,50.1469,0.001854
84.622,50.1247,0.001854
84.639,50.1004,0.001854
84.669,50.0578,0.001854
84.686,50.0327,0.001854
84.702,50.0097,0.001854
84.730,49.9658,0.001854
84.747,49.9424,0.001854
84.763,49.9186,0.001817
84.779,49.8939,0.001817
84.801,49.8589,0.001817
84.823,49.8244,0.001817
84.843,49.7932,0.001817
84.859,49.7676,0.001817
84.875,49.7432,0.001817
84.891,49.7175,0.001817
84.907,49.6914,0.001817
84.923,49.6643,0.001817
84.939,49.6377,0.001817
84.955,49.6124,0.001817
84.971,49.5847,0.001817
84.987,49.5574,0.001817
85.003,49.5309,0.001967
85.019,49.5040,0.001967
85.035,49.4758,0.001967
85.051,49.4475,0.001967
85.067,49.4201,0.001967
85.083,49.3921,0.001967
85.099,49.3634,0.001967
85.115,49.3357,0.001967
85.131,49.3069,0.001967
85.147,49.2780,0.001967
85.163,49.2485,0.001967
85.179,49.2180,0.001967
85.195,49.1889,0.001967
85.210,49.1608,0.001967
85.227,49.1288,0.001967
85.243,49.0991,0.001967
85.259,49.0704,0.001967
85.287,49.0152,0.002146
85.304,48.9839,0.002146
85.320,48.9532,0.002146
85.350,48.8915,0.002146
85.366,48.8613,0.002146
85.382,48.8311,0.002146
85.398,48.7986,0.002146
85.414,48.7669,0.002146
85.430,48.7335,0.002146
85.445,48.7025,0.002146
85.462,48.6694,0.002146
85.477,48.6360,0.002146
85.493,48.6034,0.002146
85.510,48.5694,0.002363
85.526,48.5368,0.002363
85.542,48.5025,0.002363
85.557,48.4692,0.002363
85.573,48.4352,0.002363
85.590,48.4006,0.002363
85.605,48.3654,0.002363
85.621,48.3333,0.002363
85.638,48.2994,0.002363
85.653,48.2661,0.002363
85.669,48.2326,0.002363
85.685,48.2000,0.002363
85.702,48.1661,0.002363
85.717,48.1341,0.002363
85.734,48.1008,0.002363
85.750,48.0685,0.002485
85.766,48.0359,0.002485
85.782,48.0049,0.002485
85.797,47.9738,0.002485
85.814,47.9419,0.002485
85.843,47.8827,0.002485
85.860,47.8518,0.002485
85.876,47.8218,0.002485
85.892,47.7909,0.002485
85.908,47.7604,0.002485
85.923,47.7310,0.002485
85.939,47.7014,0.002485
85.955,47.6716,0.002485
85.972,47.6398,0.002485
85.988,47.6122,0.002485
86.004,47.5822,0.002720
86.019,47.5549,0.002720
86.035,47.5254,0.002720
86.051,47.4970,0.002720
86.068,47.4675,0.002720
86.093,47.4235,0.002720
86.124,47.3705,0.002720
86.139,47.3424,0.002720
86.155,47.3161,0.002720
86.171,47.2893,0.002720
86.201,47.2371,0.002720
86.233,47.1842,0.002720
86.264,47.1345,0.003012
86.295,47.0844,0.003012
86.326,47.0354,0.003012
86.356,46.9893,0.003012
86.371,46.9658,0.003012
86.400,46.9208,0.003012
86.416,46.8976,0.003012
86.433,46.8730,0.003012
86.448,46.8497,0.003012
86.465,46.8242,0.003012
86.480,46.8028,0.003012
86.496,46.7797,0.003229
86.512,46.7566,0.003229
86.530,46.7308,0.003229
86.557,46.6918,0.003229
86.576,46.6663,0.003229
86.593,46.6435,0.003229
86.608,46.6225,0.003229
86.624,46.6006,0.003229
86.641,46.5777,0.003229
86.656,46.5579,0.003229
86.673,46.5362,0.003229
86.688,46.5159,0.003229
86.704,46.4955,0.003229
86.721,46.4743,0.003229
86.736,46.4545,0.003229
86.753,46.4335,0.003473
86.768,46.4142,0.003473
86.785,46.3931,0.003473
86.800,46.3750,0.003473
86.816,46.3561,0.003473
86.832,46.3370,0.003473
86.848,46.3178,0.003473
86.864,46.2989,0.003473
86.880,46.2805,0.003473
86.896,46.2615,0.003473
86.921,46.2333,0.003473
86.937,46.2158,0.003473
86.954,46.1975,0.003473
86.970,46.1801,0.003473
86.986,46.1624,0.003473
87.001,46.1465,0.003737
87.017,46.1292,0.003737
87.034,46.1119,0.003737
87.049,46.0959,0.003737
87.065,46.0799,0.003737
87.082,46.0627,0.003737
87.097,46.0474,0.003737
87.114,46.0315,0.003737
87.129,46.0165,0.003737
87.146,45.9998,0.003737
87.175,45.9723,0.003737
87.193,45.9563,0.003737
87.212,45.9391,0.003737
87.237,45.9162,0.004001
87.257,45.8988,0.004001
87.273,45.8847,0.004001
87.289,45.8718,0.004001
87.305,45.8583,0.004001
87.321,45.8451,0.004001
87.338,45.8316,0.004001
87.354,45.8186,0.004001
87.369,45.8066,0.004001
87.385,45.7938,0.004001
87.401,45.7814,0.004001
87.417,45.7694,0.004001
87.433,45.7571,0.004001
87.457,45.7400,0.004001
87.487,45.7184,0.004170
87.504,45.7075,0.004170
87.521,45.6962,0.004170
87.536,45.6856,0.004170
87.552,45.6755,0.004170
87.568,45.6652,0.004170
87.584,45.6553,0.004170
87.600,45.6455,0.004170
87.616,45.6357,0.004170
87.633,45.6256,0.004170
87.658,45.6116,0.004170
87.689,45.5945,0.004170
87.705,45.5853,0.004170
87.735,45.5699,0.004170
87.766,45.5543,0.004311
87.797,45.5399,0.004311
87.813,45.5328,0.004311
87.844,45.5193,0.004311
87.874,45.5068,0.004311
87.890,45.5002,0.004311
87.907,45.4942,0.004311
87.937,45.4831,0.004311
87.953,45.4773,0.004311
87.982,45.4676,0.004311
88.012,45.4587,0.004452
88.028,45.4538,0.004452
88.045,45.4491,0.004452
88.060,45.4452,0.004452
88.076,45.4411,0.004452
88.092,45.4371,0.004452
88.108,45.4335,0.004452
88.124,45.4300,0.004452
88.145,45.4256,0.004452
88.168,45.4212,0.004452
88.188,45.4179,0.004452
88.204,45.4154,0.004452
88.220,45.4130,0.004452
88.236,45.4109,0.004528
88.252,45.4089,0.004528
88.268,45.4071,0.004528
88.284,45.4056,0.004528
88.300,45.4042,0.004528
88.316,45.4030,0.004528
88.332,45.4020,0.004528
88.348,45.4013,0.004528
88.364,45.4006,0.004528
88.380,45.4003,0.004528
88.396,45.4000,0.004528
88.412,45.4000,0.004528
88.427,45.4000,0.004528
88.444,45.4000,0.004528
88.465,45.4000,0.004528
88.494,45.4000,0.004594
88.510,45.4000,0.004594
88.526,45.4000,0.004594
88.541,45.4000,0.004594
88.570,45.4000,0.004594
88.587,45.4000,0.004594
88.602,45.4000,0.004594
88.619,45.4000,0.004594
88.635,45.4003,0.004594
88.651,45.4005,0.004594
88.666,45.4011,0.004594
88.683,45.4019,0.004594
88.700,45.4029,0.004594
88.715,45.4040,0.004594
88.730,45.4052,0.004594
88.747,45.4068,0.004669
88.763,45.4086,0.004669
88.779,45.4104,0.004669
88.794,45.4125,0.004669
88.810,45.4148,0.004669
88.829,45.4178,0.004669
88.844,45.4204,0.004669
88.867,45.4245,0.004669
88.898,45.4309,0.004669
88.914,45.4342,0.004669
88.944,45.4414,0.004669
88.960,45.4458,0.004669
88.991,45.4540,0.004584
89.007,45.4588,0.004584
89.037,45.4680,0.004584
89.053,45.4736,0.004584
89.084,45.4840,0.004584
89.112,45.4942,0.004584
89.128,45.5006,0.004584
89.144,45.5066,0.004584
89.159,45.5130,0.004584
89.175,45.5200,0.004584
89.191,45.5265,0.004584
89.207,45.5337,0.004584
89.224,45.5415,0.004584
89.240,45.5495,0.004584
89.255,45.5562,0.004584
89.271,45.5641,0.004462
89.287,45.5720,0.004462
89.304,45.5806,0.004462
89.319,45.5888,0.004462
89.335,45.5975,0.004462
89.352,45.6065,0.004462
89.368,45.6158,0.004462
89.383,45.6247,0.004462
89.399,45.6341,0.004462
89.415,45.6436,0.004462
89.432,45.6539,0.004462
89.448,45.6641,0.004462
89.463,45.6735,0.004462
89.480,45.6845,0.004462
89.497,45.6956,0.004462
89.516,45.7092,0.004462
89.532,45.7194,0.004415
89.547,45.7309,0.004415
89.578,45.7529,0.004415
89.608,45.7748,0.004415
89.624,45.7871,0.004415
89.639,45.7985,0.004415
89.668,45.8218,0.004415
89.684,45.8342,0.004415
89.700,45.8475,0.004415
89.716,45.8609,0.004415
89.733,45.8752,0.004415
89.748,45.8877,0.004415
89.764,45.9017,0.004255
89.780,45.9156,0.004255
89.798,45.9326,0.004255
89.824,45.9551,0.004255
89.844,45.9740,0.004255
89.860,45.9894,0.004255
89.877,46.0048,0.004255
89.893,46.0201,0.004255
89.908,46.0356,0.004255
89.926,46.0531,0.004255
89.942,46.0686,0.004255
89.964,46.0903,0.004255
89.995,46.1232,0.004255
90.026,46.1551,0.004151
90.056,46.1891,0.004151
90.087,46.2223,0.004151
90.103,46.2400,0.004151
90.133,46.2757,0.004151
90.148,46.2925,0.004151
90.164,46.3112,0.004151
90.180,46.3295,0.004151
90.209,46.3654,0.004151
90.226,46.3846,0.004151
90.241,46.4035,0.004019
90.257,46.4230,0.004019
90.275,46.4468,0.004019
90.304,46.4826,0.004019
90.321,46.5042,0.004019
90.337,46.5257,0.004019
90.353,46.5457,0.004019
90.369,46.5675,0.004019
90.385,46.5883,0.004019
90.401,46.6109,0.004019
90.417,46.6316,0.004019
90.433,46.6548,0.004019
90.449,46.6761,0.004019
90.465,46.6985,0.004019
90.481,46.7214,0.004019
90.497,46.7442,0.003746
90.513,46.7668,0.003746
90.529,46.7907,0.003746
90.545,46.8131,0.003746
90.561,46.8360,0.003746
90.577,46.8597,0.003746
90.593,46.8843,0.003746
90.609,46.9081,0.003746
90.625,46.9325,0.003746
90.641,46.9570,0.003746
90.657,46.9812,0.003746
90.673,47.0061,0.003746
90.689,47.0309,0.003746
90.705,47.0561,0.003746
90.721,47.0821,0.003746
90.737,47.1082,0.003746
90.767,47.1566,0.003370
90.783,47.1827,0.003370
90.799,47.2084,0.003370
90.815,47.2348,0.003370
90.833,47.2648,0.003370
90.863,47.3156,0.003370
90.879,47.3432,0.003370
90.902,47.3840,0.003370
90.929,47.4320,0.003370
90.956,47.4784,0.003370
90.975,47.5115,0.003370
90.991,47.5399,0.003163
91.007,47.5692,0.003163
91.023,47.5993,0.003163
91.039,47.6275,0.003163
91.056,47.6581,0.003163
91.071,47.6863,0.003163
91.088,47.7188,0.003163
91.111,47.7635,0.003163
91.142,47.8200,0.003163
91.157,47.8515,0.003163
91.173,47.8814,0.003163
91.203,47.9390,0.003163
91.235,48.0025,0.003163
91.266,48.0631,0.003022
91.281,48.0957,0.003022
91.297,48.1289,0.003022
91.324,48.1812,0.003022
91.340,48.2137,0.003022
91.356,48.2475,0.003022
91.372,48.2802,0.003022
91.388,48.3140,0.003022
91.404,48.3482,0.003022
91.420,48.3823,0.003022
91.435,48.4152,0.003022
91.453,48.4537,0.003022
91.483,48.5159,0.002683
91.499,48.5498,0.002683
91.516,48.5838,0.002683
91.532,48.6167,0.002683
91.548,48.6491,0.002683
91.563,48.6806,0.002683
91.582,48.7188,0.002683
91.608,48.7713,0.002683
91.628,48.8093,0.002683
91.644,48.8425,0.002683
91.660,48.8737,0.002683
91.676,48.9049,0.002683
91.691,48.9346,0.002683
91.709,48.9689,0.002683
91.731,49.0117,0.002683
91.747,49.0415,0.002447
91.777,49.0969,0.002447
91.793,49.1269,0.002447
91.809,49.1572,0.002447
91.840,49.2144,0.002447
91.856,49.2415,0.002447
91.887,49.2981,0.002447
91.903,49.3260,0.002447
91.933,49.3793,0.002447
91.948,49.4076,0.002447
91.979,49.4597,0.002447
91.996,49.4878,0.002447
92.012,49.5145,0.002447
92.028,49.5418,0.002334
92.043,49.5673,0.002334
92.065,49.6043,0.002334
92.088,49.6425,0.002334
92.107,49.6725,0.002334
92.124,49.6993,0.002334
92.140,49.7248,0.002334
92.156,49.7503,0.002334
92.172,49.7749,0.002334
92.188,49.8005,0.002334
92.204,49.8253,0.002334
92.219,49.8485,0.002334
92.235,49.8730,0.002334
92.251,49.8972,0.002334
92.267,49.9214,0.002334
92.284,49.9471,0.002137
92.299,49.9689,0.002137
92.316,49.9936,0.002137
92.331,50.0157,0.002137
92.347,50.0391,0.002137
92.370,50.0706,0.002137
92.386,50.0941,0.002137
92.401,50.1153,0.002137
92.417,50.1378,0.002137
92.434,50.1604,0.002137
92.450,50.1822,0.002137
92.466,50.2038,0.002137
92.481,50.2247,0.002137
92.498,50.2462,0.002137
92.514,50.2669,0.002137
92.530,50.2878,0.001920
92.546,50.3091,0.001920
92.561,50.3285,0.001920
92.577,50.3486,0.001920
92.593,50.3689,0.001920
92.609,50.3890,0.001920
92.626,50.4099,0.001920
92.641,50.4281,0.001920
92.657,50.4476,0.001920
92.673,50.4667,0.001920
92.689,50.4854,0.001920
92.705,50.5047,0.001920
92.721,50.5226,0.001920
92.739,50.5430,0.001920
92.754,50.5596,0.001920
92.769,50.5769,0.001723
92.785,50.5947,0.001723
92.807,50.6203,0.001723
92.832,50.6461,0.001723
92.850,50.6641,0.001723
92.865,50.6804,0.001723
92.882,50.6979,0.001723
92.908,50.7243,0.001723
92.929,50.7463,0.001723
92.945,50.7620,0.001723
92.961,50.7774,0.001723
92.977,50.7927,0.001723
92.994,50.8089,0.001723
93.010,50.8238,0.001723
93.031,50.8442,0.001544
93.047,50.8580,0.001544
93.078,50.8859,0.001544
93.108,50.9124,0.001544
93.124,50.9259,0.001544
93.155,50.9512,0.001544
93.170,50.9640,0.001544
93.202,50.9894,0.001544
93.217,51.0009,0.001544
93.233,51.0139,0.001544
93.249,51.0255,0.001544
93.265,51.0374,0.001384
93.281,51.0492,0.001384
93.297,51.0612,0.001384
93.313,51.0720,0.001384
93.329,51.0835,0.001384
93.345,51.0943,0.001384
93.361,51.1050,0.001384
93.378,51.1166,0.001384
93.393,51.1262,0.001384
93.410,51.1370,0.001384
93.439,51.1551,0.001384
93.455,51.1641,0.001384
93.470,51.1736,0.001384
93.486,51.1830,0.001384
93.503,51.1922,0.001384
93.518,51.2005,0.001177
93.534,51.2094,0.001177
93.550,51.2183,0.001177
93.567,51.2266,0.001177
93.590,51.2382,0.001177
93.605,51.2457,0.001177
93.621,51.2534,0.001177
93.652,51.2673,0.001177
93.667,51.2743,0.001177
93.684,51.2816,0.001177
93.714,51.2937,0.001177
93.729,51.2998,0.001177
93.760,51.3116,0.000697
93.791,51.3225,0.000697
93.822,51.3328,0.000697
93.838,51.3375,0.000697
93.861,51.3448,0.000697
93.884,51.3510,0.000697
93.902,51.3557,0.000697
93.919,51.3601,0.000697
93.946,51.3664,0.000697
93.966,51.3709,0.000697
93.982,51.3741,0.000697
93.998,51.3772,-0.000424
94.014,51.3799,-0.000424
94.034,51.3837,-0.000424
94.056,51.3866,-0.000424
94.087,51.3908,-0.000424
94.117,51.3939,-0.000424
94.133,51.3953,-0.000424
94.150,51.3967,-0.000424
94.179,51.3984,-0.000424
94.210,51.3997,-0.000424
94.241,51.4000,-0.001600
94.257,51.4000,-0.001600
94.288,51.4000,-0.001600
94.319,51.4000,-0.001600
94.335,51.4000,-0.001600
94.350,51.4000,-0.001600
94.365,51.4000,-0.001600
