Elapsed Time (s),Position (mm),Force (N)
-0.016,57.4500,-0.000113
0.000,57.4500,-0.000113
0.016,57.4500,-0.000113
0.032,57.4500,-0.000113
0.049,57.4500,-0.000113
0.064,57.4500,-0.000113
0.080,57.4500,-0.000113
0.096,57.4500,-0.000113
0.112,57.4500,-0.000113
0.128,57.4500,-0.000113
0.144,57.4500,-0.000113
0.160,57.4500,-0.000113
0.176,57.4500,-0.000113
0.202,57.4500,-0.000113
0.218,57.4500,-0.000113
0.234,57.4500,-0.000028
0.250,57.4500,-0.000028
0.266,57.4500,-0.000028
0.283,57.4500,-0.000028
0.299,57.4500,-0.000028
0.314,57.4500,-0.000028
0.332,57.4500,-0.000028
0.347,57.4500,-0.000028
0.362,57.4500,-0.000028
0.378,57.4500,-0.000028
0.394,57.4500,-0.000028
0.410,57.4500,-0.000028
0.426,57.4500,-0.000028
0.443,57.4500,-0.000028
0.459,57.4500,-0.000028
0.474,57.4500,-0.000028
0.491,57.4500,0.000000
0.506,57.4500,0.000000
0.522,57.4500,0.000000
0.538,57.4500,0.000000
0.554,57.4500,0.000000
0.570,57.4500,0.000000
0.586,57.4500,0.000000
0.602,57.4500,0.000000
0.618,57.4500,0.000000
0.634,57.4500,0.000000
0.650,57.4500,0.000000
0.666,57.4500,0.000000
0.682,57.4500,0.000000
0.698,57.4500,0.000000
0.723,57.4500,0.000000
0.739,57.4500,0.000000
0.755,57.4500,-0.000038
0.771,57.4500,-0.000038
0.787,57.4500,-0.000038
0.807,57.4500,-0.000038
0.839,57.4500,-0.000038
0.869,57.4500,-0.000038
0.884,57.4500,-0.000038
0.900,57.4500,-0.000038
0.915,57.4500,-0.000038
0.931,57.4500,-0.000038
0.954,57.4500,-0.000038
0.978,57.4500,-0.000038
0.995,57.4500,-0.000038
1.011,57.4500,-0.000075
1.027,57.4500,-0.000075
1.043,57.4500,-0.000075
1.059,57.4500,-0.000075
1.075,57.4500,-0.000075
1.091,57.4500,-0.000075
1.107,57.4500,-0.000075
1.123,57.4500,-0.000075
1.139,57.4500,-0.000075
1.155,57.4500,-0.000075
1.170,57.4500,-0.000075
1.187,57.4500,-0.000075
1.203,57.4500,-0.000075
1.218,57.4500,-0.000075
1.235,57.4500,-0.000075
1.257,57.4500,0.000019
1.273,57.4500,0.000019
1.289,57.4500,0.000019
1.305,57.4500,0.000019
1.321,57.4500,0.000019
1.336,57.4500,0.000019
1.352,57.4500,0.000019
1.368,57.4500,0.000019
1.384,57.4500,0.000019
1.401,57.4500,0.000019
1.417,57.4500,0.000019
1.434,57.4500,0.000019
1.457,57.4500,0.000019
1.473,57.4500,0.000038
1.491,57.4500,0.000038
1.512,57.4500,0.000038
1.529,57.4500,0.000038
1.545,57.4500,0.000038
1.561,57.4500,0.000038
1.577,57.4500,0.000038
1.593,57.4500,0.000038
1.609,57.4500,0.000038
1.624,57.4500,0.000038
1.640,57.4500,0.000038
1.657,57.4500,0.000038
1.672,57.4500,0.000038
1.689,57.4500,0.000038
1.705,57.4500,0.000038
1.720,57.4500,0.000009
1.737,57.4500,0.000009
1.753,57.4500,0.000009
1.782,57.4500,0.000009
1.800,57.4500,0.000009
1.816,57.4500,0.000009
1.834,57.4500,0.000009
1.859,57.4500,0.000009
1.883,57.4500,0.000009
1.905,57.4500,0.000009
1.936,57.4500,0.000009
1.968,57.4500,0.000009
1.998,57.4500,0.000028
2.013,57.4500,0.000028
2.045,57.4500,0.000028
2.075,57.4500,0.000028
2.106,57.4500,0.000028
2.136,57.4500,0.000028
2.155,57.4500,0.000028
2.170,57.4500,0.000028
2.200,57.4500,0.000028
2.216,57.4500,0.000028
2.233,57.4500,0.000028
2.248,57.4500,0.000038
2.264,57.4500,0.000038
2.281,57.4500,0.000038
2.296,57.4500,0.000038
2.313,57.4500,0.000038
2.336,57.4500,0.000038
2.352,57.4500,0.000038
2.368,57.4500,0.000038
2.384,57.4500,0.000038
2.402,57.4500,0.000038
2.431,57.4500,0.000038
2.448,57.4500,0.000038
2.464,57.4500,0.000038
2.481,57.4500,0.000038
2.496,57.4500,0.000028
2.513,57.4500,0.000028
2.529,57.4500,0.000028
2.545,57.4500,0.000028
2.561,57.4500,0.000028
2.576,57.4500,0.000028
2.593,57.4500,0.000028
2.609,57.4500,0.000028
2.624,57.4500,0.000028
2.640,57.4500,0.000028
2.657,57.4500,0.000028
2.672,57.4500,0.000028
2.688,57.4500,0.000028
2.704,57.4500,0.000028
2.720,57.4500,0.000028
2.736,57.4500,-0.000009
2.752,57.4500,-0.000009
2.770,57.4500,-0.000009
2.787,57.4500,-0.000009
2.817,57.4500,-0.000009
2.848,57.4500,-0.000009
2.878,57.4500,-0.000009
2.893,57.4500,-0.000009
2.909,57.4500,-0.000009
2.925,57.4500,-0.000009
2.942,57.4500,-0.000009
2.972,57.4500,0.000019
2.990,57.4500,0.000019
3.006,57.4500,0.000019
3.026,57.4500,0.000019
3.049,57.4500,0.000019
3.069,57.4500,0.000019
3.085,57.4500,0.000019
3.101,57.4500,0.000019
3.117,57.4500,0.000019
3.133,57.4500,0.000019
3.149,57.4500,0.000019
3.165,57.4500,0.000019
3.181,57.4500,0.000019
3.197,57.4500,0.000019
3.213,57.4500,0.000056
3.229,57.4500,0.000056
3.245,57.4500,0.000056
3.261,57.4500,0.000056
3.277,57.4500,0.000056
3.293,57.4500,0.000056
3.309,57.4500,0.000056
3.325,57.4500,0.000056
3.341,57.4500,0.000056
3.357,57.4500,0.000056
3.374,57.4500,0.000056
3.389,57.4500,0.000056
3.405,57.4500,0.000056
3.433,57.4500,0.000056
3.449,57.4500,0.000056
3.465,57.4500,0.000047
3.481,57.4500,0.000047
3.504,57.4500,0.000047
3.525,57.4500,0.000047
3.545,57.4500,0.000047
3.561,57.4500,0.000047
3.577,57.4500,0.000047
3.593,57.4500,0.000047
3.609,57.4500,0.000047
3.625,57.4500,0.000047
3.641,57.4500,0.000047
3.657,57.4500,0.000047
3.673,57.4500,0.000047
3.689,57.4500,0.000047
3.705,57.4500,0.000047
3.721,57.4500,-0.000038
3.738,57.4500,-0.000038
3.756,57.4500,-0.000038
3.773,57.4500,-0.000038
3.803,57.4500,-0.000038
3.818,57.4500,-0.000038
3.834,57.4500,-0.000038
3.850,57.4500,-0.000038
3.866,57.4500,-0.000038
3.881,57.4500,-0.000038
3.896,57.4500,-0.000038
3.915,57.4500,-0.000038
3.932,57.4500,-0.000038
3.959,57.4500,-0.000038
3.990,57.4500,-0.000198
4.006,57.4500,-0.000198
4.022,57.4500,-0.000198
4.038,57.4500,-0.000198
4.055,57.4500,-0.000198
4.081,57.4500,-0.000198
4.102,57.4500,-0.000198
4.118,57.4500,-0.000198
4.133,57.4500,-0.000198
4.149,57.4500,-0.000198
4.166,57.4499,-0.000198
4.181,57.4496,-0.000198
4.198,57.4491,-0.000198
4.213,57.4485,-0.000198
4.229,57.4477,-0.000198
4.245,57.4465,-0.000311
4.261,57.4453,-0.000311
4.277,57.4439,-0.000311
4.293,57.4422,-0.000311
4.310,57.4403,-0.000311
4.326,57.4384,-0.000311
4.342,57.4361,-0.000311
4.357,57.4338,-0.000311
4.374,57.4310,-0.000311
4.389,57.4283,-0.000311
4.406,57.4252,-0.000311
4.422,57.4220,-0.000311
4.437,57.4188,-0.000311
4.454,57.4152,-0.000311
4.470,57.4112,-0.000311
4.485,57.4075,-0.000311
4.502,57.4033,-0.000311
4.530,57.3952,0.000650
4.562,57.3859,0.000650
4.578,57.3808,0.000650
4.594,57.3755,0.000650
4.610,57.3700,0.000650
4.626,57.3644,0.000650
4.641,57.3587,0.000650
4.660,57.3510,0.000650
4.686,57.3415,0.000650
4.705,57.3333,0.000650
4.723,57.3254,0.000650
4.747,57.3150,0.000650
4.778,57.3007,0.004001
4.808,57.2859,0.004001
4.823,57.2785,0.004001
4.855,57.2620,0.004001
4.886,57.2452,0.004001
4.916,57.2273,0.004001
4.932,57.2186,0.004001
4.962,57.2001,0.004001
4.983,57.1867,0.004001
5.009,57.1707,0.005855
5.025,57.1602,0.005855
5.042,57.1493,0.005855
5.058,57.1380,0.005855
5.081,57.1220,0.005855
5.097,57.1106,0.005855
5.113,57.0990,0.005855
5.129,57.0872,0.005855
5.145,57.0751,0.005855
5.161,57.0632,0.005855
5.177,57.0509,0.005855
5.194,57.0379,0.005855
5.210,57.0247,0.005855
5.240,57.0001,0.007361
5.258,56.9858,0.007361
5.273,56.9726,0.007361
5.289,56.9591,0.007361
5.305,56.9451,0.007361
5.322,56.9302,0.007361
5.337,56.9167,0.007361
5.353,56.9022,0.007361
5.369,56.8874,0.007361
5.386,56.8723,0.007361
5.402,56.8574,0.007361
5.417,56.8424,0.007361
5.433,56.8270,0.007361
5.449,56.8113,0.007361
5.465,56.7952,0.007361
5.481,56.7797,0.012416
5.497,56.7634,0.012416
5.513,56.7466,0.012416
5.529,56.7304,0.012416
5.545,56.7136,0.012416
5.561,56.6962,0.012416
5.577,56.6781,0.012416
5.593,56.6621,0.012416
5.609,56.6445,0.012416
5.632,56.6186,0.012416
5.647,56.6017,0.012416
5.663,56.5831,0.012416
5.679,56.5654,0.012416
5.700,56.5409,0.012416
5.715,56.5227,0.012416
5.737,56.4966,0.012416
5.753,56.4779,0.007982
5.783,56.4406,0.007982
5.814,56.4018,0.007982
5.845,56.3626,0.007982
5.875,56.3225,0.007982
5.890,56.3038,0.007982
5.906,56.2827,0.007982
5.937,56.2398,0.007982
5.953,56.2186,0.007982
5.969,56.1981,0.000527
5.984,56.1765,0.000527
6.000,56.1548,0.000527
6.016,56.1325,0.000527
6.045,56.0897,0.000527
6.063,56.0643,0.000527
6.080,56.0401,0.000527
6.109,55.9982,0.000527
6.127,55.9700,0.000527
6.143,55.9472,0.000527
6.159,55.9220,0.000527
6.185,55.8817,0.000527
6.202,55.8549,0.000527
6.220,55.8280,0.000527
6.249,55.7812,0.000602
6.266,55.7546,0.000602
6.297,55.7064,0.000602
6.314,55.6768,0.000602
6.342,55.6313,0.000602
6.360,55.6018,0.000602
6.378,55.5701,0.000602
6.405,55.5249,0.000602
6.424,55.4935,0.000602
6.440,55.4649,0.000602
6.456,55.4375,0.000602
6.472,55.4095,0.000734
6.488,55.3819,0.000734
6.504,55.3527,0.000734
6.520,55.3240,0.000734
6.536,55.2956,0.000734
6.552,55.2650,0.000734
6.568,55.2376,0.000734
6.584,55.2074,0.000734
6.601,55.1764,0.000734
6.623,55.1356,0.000734
6.654,55.0761,0.000734
6.685,55.0174,0.000734
6.709,54.9715,0.000734
6.725,54.9402,0.000734
6.740,54.9104,0.000810
6.757,54.8773,0.000810
6.772,54.8466,0.000810
6.789,54.8150,0.000810
6.805,54.7828,0.000810
6.821,54.7500,0.000810
6.836,54.7183,0.000810
6.852,54.6860,0.000810
6.869,54.6519,0.000810
6.885,54.6198,0.000810
6.901,54.5859,0.000810
6.916,54.5521,0.000810
6.940,54.5050,0.000810
6.963,54.4545,0.000979
6.981,54.4171,0.000979
6.997,54.3818,0.000979
7.013,54.3489,0.000979
7.028,54.3158,0.000979
7.044,54.2827,0.000979
7.061,54.2462,0.000979
7.081,54.2066,0.000979
7.104,54.1605,0.000979
7.125,54.1173,0.000979
7.141,54.0843,0.000979
7.156,54.0538,0.000979
7.173,54.0211,0.000979
7.189,53.9884,0.000979
7.204,53.9584,0.000979
7.221,53.9261,0.000979
7.243,53.8830,0.001111
7.258,53.8521,0.001111
7.275,53.8223,0.001111
7.291,53.7913,0.001111
7.307,53.7608,0.001111
7.323,53.7307,0.001111
7.339,53.6995,0.001111
7.354,53.6715,0.001111
7.372,53.6379,0.001111
7.391,53.6055,0.001111
7.415,53.5605,0.001111
7.435,53.5245,0.001111
7.450,53.4970,0.001111
7.467,53.4670,0.001101
7.492,53.4225,0.001101
7.514,53.3843,0.001101
7.530,53.3574,0.001101
7.546,53.3292,0.001101
7.563,53.3008,0.001101
7.579,53.2749,0.001101
7.594,53.2487,0.001101
7.610,53.2219,0.001101
7.627,53.1943,0.001101
7.643,53.1685,0.001101
7.659,53.1426,0.001101
7.674,53.1170,0.001101
7.691,53.0903,0.001101
7.706,53.0662,0.001101
7.722,53.0409,0.001243
7.738,53.0156,0.001243
7.754,52.9906,0.001243
7.771,52.9646,0.001243
7.801,52.9187,0.001243
7.818,52.8934,0.001243
7.833,52.8703,0.001243
7.850,52.8454,0.001243
7.866,52.8210,0.001243
7.885,52.7919,0.001243
7.911,52.7573,0.001243
7.930,52.7299,0.001243
7.945,52.7080,0.001243
7.961,52.6859,0.001243
7.979,52.6610,0.001243
8.003,52.6275,0.001243
8.033,52.5872,0.001468
8.050,52.5649,0.001468
8.080,52.5243,0.001468
8.115,52.4795,0.001468
8.142,52.4455,0.001468
8.157,52.4263,0.001468
8.174,52.4060,0.001468
8.204,52.3684,0.001468
8.234,52.3333,0.001468
8.249,52.3152,0.001713
8.265,52.2968,0.001713
8.281,52.2781,0.001713
8.298,52.2590,0.001713
8.313,52.2416,0.001713
8.340,52.2111,0.001713
8.356,52.1938,0.001713
8.371,52.1775,0.001713
8.388,52.1593,0.001713
8.404,52.1424,0.001713
8.419,52.1262,0.001713
8.435,52.1093,0.001713
8.451,52.0928,0.001713
8.468,52.0758,0.001713
8.483,52.0605,0.001713
8.499,52.0449,0.001826
8.515,52.0289,0.001826
8.532,52.0132,0.001826
8.547,51.9983,0.001826
8.563,51.9832,0.001826
8.579,51.9683,0.001826
8.596,51.9517,0.001826
8.620,51.9308,0.001826
8.650,51.9034,0.001826
8.666,51.8907,0.001826
8.682,51.8766,0.001826
8.712,51.8505,0.001826
8.728,51.8377,0.001826
8.744,51.8252,0.001920
8.760,51.8129,0.001920
8.777,51.7998,0.001920
8.806,51.7772,0.001920
8.821,51.7658,0.001920
8.852,51.7433,0.001920
8.867,51.7322,0.001920
8.897,51.7117,0.001920
8.913,51.7004,0.001920
8.929,51.6899,0.001920
8.945,51.6797,0.001920
8.961,51.6689,0.001920
8.977,51.6587,0.001920
8.993,51.6491,0.002024
9.009,51.6393,0.002024
9.026,51.6293,0.002024
9.041,51.6205,0.002024
9.057,51.6115,0.002024
9.073,51.6026,0.002024
9.089,51.5936,0.002024
9.105,51.5848,0.002024
9.121,51.5768,0.002024
9.137,51.5684,0.002024
9.153,51.5606,0.002024
9.169,51.5526,0.002024
9.185,51.5454,0.002024
9.201,51.5378,0.002024
9.218,51.5300,0.002024
9.240,51.5205,0.002024
9.271,51.5076,0.002024
9.287,51.5014,0.002024
9.317,51.4899,0.002024
9.348,51.4785,0.002024
9.364,51.4732,0.002024
9.395,51.4632,0.002024
9.426,51.4542,0.002024
9.455,51.4462,0.002024
9.471,51.4421,0.002024
9.487,51.4381,0.002033
9.504,51.4341,0.002033
9.519,51.4308,0.002033
9.535,51.4276,0.002033
9.551,51.4242,0.002033
9.567,51.4214,0.002033
9.583,51.4186,0.002033
9.599,51.4160,0.002033
9.615,51.4135,0.002033
9.631,51.4114,0.002033
9.648,51.4093,0.002033
9.673,51.4066,0.002033
9.704,51.4039,0.002033
9.719,51.4028,0.002033
9.736,51.4018,0.002033
9.766,51.4006,0.002014
9.796,51.4000,0.002014
9.827,51.4000,0.002014
9.844,51.4000,0.002014
9.875,51.4000,0.002014
9.890,51.4000,0.002014
9.906,51.4000,0.002014
9.922,51.4000,0.002014
9.938,51.4000,0.002014
9.954,51.4000,0.002014
9.984,51.4003,0.002014
10.013,51.4013,0.002005
10.028,51.4020,0.002005
10.045,51.4030,0.002005
10.061,51.4041,0.002005
10.085,51.4064,0.002005
10.112,51.4092,0.002005
10.138,51.4124,0.002005
10.157,51.4152,0.002005
10.172,51.4176,0.002005
10.188,51.4202,0.002005
10.208,51.4240,0.002005
10.232,51.4287,0.002014
10.253,51.4331,0.002014
10.269,51.4370,0.002014
10.293,51.4428,0.002014
10.309,51.4470,0.002014
10.340,51.4555,0.002014
10.371,51.4651,0.002014
10.404,51.4757,0.002014
10.434,51.4863,0.002014
10.464,51.4975,0.002014
10.495,51.5099,0.001958
10.511,51.5162,0.001958
10.528,51.5234,0.001958
10.558,51.5367,0.001958
10.574,51.5441,0.001958
10.605,51.5589,0.001958
10.620,51.5667,0.001958
10.638,51.5754,0.001958
10.667,51.5906,0.001958
10.684,51.6002,0.001958
10.700,51.6091,0.001958
10.717,51.6183,0.001958
10.732,51.6275,0.002005
10.748,51.6372,0.002005
10.765,51.6473,0.002005
10.792,51.6646,0.002005
10.812,51.6770,0.002005
10.828,51.6875,0.002005
10.845,51.6983,0.002005
10.860,51.7087,0.002005
10.877,51.7207,0.002005
10.893,51.7312,0.002005
10.909,51.7427,0.002005
10.924,51.7539,0.002005
10.940,51.7661,0.002005
10.958,51.7789,0.002005
10.978,51.7947,0.002061
11.009,51.8186,0.002061
11.025,51.8318,0.002061
11.056,51.8572,0.002061
11.086,51.8827,0.002061
11.101,51.8959,0.002061
11.116,51.9086,0.002061
11.132,51.9228,0.002061
11.148,51.9370,0.002061
11.164,51.9514,0.002061
11.187,51.9730,0.002061
11.210,51.9937,0.002061
11.228,52.0113,0.002005
11.245,52.0276,0.002005
11.260,52.0427,0.002005
11.276,52.0593,0.002005
11.292,52.0746,0.002005
11.308,52.0916,0.002005
11.324,52.1077,0.002005
11.340,52.1240,0.002005
11.356,52.1408,0.002005
11.372,52.1582,0.002005
11.388,52.1750,0.002005
11.404,52.1925,0.002005
11.420,52.2103,0.002005
11.436,52.2285,0.002005
11.452,52.2460,0.002005
11.468,52.2641,0.001939
11.484,52.2828,0.001939
11.500,52.3011,0.001939
11.516,52.3198,0.001939
11.532,52.3389,0.001939
11.549,52.3595,0.001939
11.564,52.3776,0.001939
11.580,52.3969,0.001939
11.612,52.4374,0.001939
11.630,52.4584,0.001939
11.660,52.4971,0.001939
11.677,52.5195,0.001939
11.706,52.5583,0.001939
11.723,52.5802,0.001854
11.740,52.6028,0.001854
11.755,52.6238,0.001854
11.771,52.6463,0.001854
11.787,52.6672,0.001854
11.803,52.6897,0.001854
11.819,52.7119,0.001854
11.835,52.7355,0.001854
11.852,52.7591,0.001854
11.868,52.7831,0.001854
11.892,52.8166,0.001854
11.922,52.8606,0.001854
11.938,52.8862,0.001854
11.968,52.9306,0.001666
11.999,52.9790,0.001666
12.029,53.0252,0.001666
12.045,53.0505,0.001666
12.076,53.0993,0.001666
12.097,53.1346,0.001666
12.121,53.1727,0.001666
12.139,53.2025,0.001666
12.163,53.2415,0.001666
12.178,53.2672,0.001666
12.194,53.2936,0.001666
12.210,53.3211,0.001666
12.226,53.3489,0.001666
12.242,53.3757,0.001506
12.258,53.4039,0.001506
12.273,53.4310,0.001506
12.290,53.4606,0.001506
12.306,53.4883,0.001506
12.322,53.5167,0.001506
12.339,53.5471,0.001506
12.367,53.5998,0.001506
12.386,53.6324,0.001506
12.402,53.6627,0.001506
12.418,53.6914,0.001506
12.434,53.7214,0.001506
12.450,53.7521,0.001506
12.466,53.7833,0.001506
12.482,53.8127,0.001506
12.498,53.8447,0.001337
12.514,53.8738,0.001337
12.531,53.9082,0.001337
12.553,53.9508,0.001337
12.569,53.9836,0.001337
12.585,54.0137,0.001337
12.601,54.0454,0.001337
12.616,54.0766,0.001337
12.632,54.1087,0.001337
12.663,54.1713,0.001337
12.693,54.2354,0.001337
12.725,54.2994,0.001337
12.741,54.3326,0.001120
12.772,54.3985,0.001120
12.803,54.4638,0.001120
12.818,54.4961,0.001120
12.833,54.5290,0.001120
12.850,54.5634,0.001120
12.865,54.5950,0.001120
12.882,54.6286,0.001120
12.898,54.6626,0.001120
12.913,54.6932,0.001120
12.930,54.7263,0.001120
12.945,54.7573,0.001120
12.963,54.7937,0.001120
12.988,54.8423,0.001017
13.010,54.8860,0.001017
13.026,54.9160,0.001017
13.042,54.9472,0.001017
13.058,54.9772,0.001017
13.073,55.0070,0.001017
13.090,55.0389,0.001017
13.105,55.0678,0.001017
13.121,55.0975,0.001017
13.137,55.1271,0.001017
13.153,55.1568,0.001017
13.169,55.1865,0.001017
13.185,55.2152,0.001017
13.202,55.2450,0.001017
13.218,55.2743,0.001017
13.234,55.3024,0.001017
13.262,55.3535,0.000941
13.279,55.3835,0.000941
13.294,55.4095,0.000941
13.311,55.4386,0.000941
13.327,55.4650,0.000941
13.343,55.4927,0.000941
13.358,55.5187,0.000941
13.374,55.5455,0.000941
13.391,55.5740,0.000941
13.406,55.5991,0.000941
13.422,55.6251,0.000941
13.439,55.6518,0.000941
13.455,55.6787,0.000941
13.471,55.7038,0.000941
13.487,55.7298,0.000744
13.502,55.7539,0.000744
13.519,55.7814,0.000744
13.535,55.8050,0.000744
13.550,55.8289,0.000744
13.566,55.8537,0.000744
13.582,55.8776,0.000744
13.598,55.9018,0.000744
13.615,55.9264,0.000744
13.630,55.9498,0.000744
13.647,55.9740,0.000744
13.662,55.9968,0.000744
13.679,56.0206,0.000744
13.694,56.0435,0.000744
13.710,56.0659,0.000744
13.727,56.0892,0.000612
13.742,56.1120,0.000612
13.759,56.1345,0.000612
13.790,56.1774,0.000612
13.806,56.1981,0.000612
13.821,56.2190,0.000612
13.838,56.2408,0.000612
13.854,56.2615,0.000612
13.869,56.2821,0.000612
13.885,56.3028,0.000612
13.902,56.3241,0.000612
13.918,56.3443,0.000612
13.934,56.3652,0.000612
13.950,56.3840,0.000612
13.965,56.4038,0.000612
13.981,56.4229,0.000555
13.997,56.4424,0.000555
14.014,56.4622,0.000555
14.030,56.4811,0.000555
14.045,56.4991,0.000555
14.061,56.5182,0.000555
14.078,56.5372,0.000555
14.098,56.5598,0.000555
14.129,56.5943,0.000555
14.145,56.6122,0.000555
14.175,56.6450,0.000555
14.206,56.6777,0.000555
14.222,56.6942,0.000537
14.237,56.7098,0.000537
14.254,56.7277,0.000537
14.284,56.7570,0.000537
14.314,56.7862,0.000537
14.330,56.8015,0.000537
14.346,56.8163,0.000537
14.362,56.8311,0.000537
14.381,56.8495,0.000537
14.398,56.8651,0.000537
14.424,56.8871,0.000537
14.442,56.9033,0.000537
14.458,56.9170,0.000537
14.474,56.9305,0.000414
14.490,56.9437,0.000414
14.507,56.9583,0.000414
14.522,56.9705,0.000414
14.538,56.9831,0.000414
14.554,56.9955,0.000414
14.570,57.0084,0.000414
14.586,57.0205,0.000414
14.602,57.0319,0.000414
14.618,57.0441,0.000414
14.634,57.0561,0.000414
14.650,57.0675,0.000414
14.666,57.0783,0.000414
14.682,57.0894,0.000414
14.698,57.1004,0.000414
14.714,57.1113,0.000226
14.730,57.1214,0.000226
14.746,57.1319,0.000226
14.762,57.1424,0.000226
14.778,57.1517,0.000226
14.794,57.1617,0.000226
14.810,57.1717,0.000226
14.827,57.1810,0.000226
14.857,57.1976,0.000226
14.874,57.2071,0.000226
14.890,57.2159,0.000226
14.906,57.2244,0.000226
14.922,57.2322,0.000226
14.939,57.2407,0.000226
14.965,57.2533,0.000094
14.986,57.2630,0.000094
15.002,57.2703,0.000094
15.018,57.2772,0.000094
15.034,57.2837,0.000094
15.050,57.2904,0.000094
15.066,57.2972,0.000094
15.082,57.3030,0.000094
15.098,57.3091,0.000094
15.114,57.3150,0.000094
15.130,57.3208,0.000094
15.146,57.3261,0.000094
15.162,57.3313,0.000094
15.179,57.3368,0.000094
15.194,57.3412,0.000094
15.210,57.3461,-0.000122
15.225,57.3503,-0.000122
15.247,57.3561,-0.000122
15.273,57.3627,-0.000122
15.290,57.3664,-0.000122
15.309,57.3705,-0.000122
15.335,57.3758,-0.000122
15.354,57.3794,-0.000122
15.370,57.3822,-0.000122
15.386,57.3845,-0.000122
15.402,57.3869,-0.000122
15.418,57.3890,-0.000122
15.434,57.3911,-0.000122
15.450,57.3928,-0.000122
15.466,57.3945,-0.000122
15.482,57.3958,-0.000555
15.498,57.3969,-0.000555
15.513,57.3979,-0.000555
15.530,57.3988,-0.000555
15.545,57.3994,-0.000555
15.562,57.3998,-0.000555
15.578,57.4000,-0.000555
15.593,57.4000,-0.000555
15.610,57.4000,-0.000555
15.627,57.4000,-0.000555
15.645,57.4000,-0.000555
15.677,57.4000,-0.000555
15.692,57.4000,-0.000555
15.707,57.4000,-0.000555
15.723,57.4000,-0.000678
15.738,57.4000,-0.000678
15.753,57.4000,-0.000678
15.770,57.4000,-0.000678
15.785,57.4000,-0.000678
15.801,57.4000,-0.000678
15.818,57.4000,-0.000678
15.834,57.4000,-0.000678
15.863,57.4000,-0.000678
15.882,57.4000,-0.000678
15.898,57.4000,-0.000678
15.914,57.4000,-0.000678
15.940,57.4000,-0.000678
15.971,57.4000,-0.000367
15.987,57.4000,-0.000367
16.004,57.4000,-0.000367
16.034,57.4000,-0.000367
16.051,57.4000,-0.000367
16.068,57.4000,-0.000367
16.084,57.4000,-0.000367
16.100,57.4000,-0.000367
16.115,57.4000,-0.000367
16.132,57.4000,-0.000367
16.147,57.4000,-0.000367
16.163,57.4000,-0.000367
16.179,57.4000,-0.000367
16.195,57.4000,-0.000367
16.211,57.4000,-0.000367
16.227,57.4000,-0.000104
16.243,57.4000,-0.000104
16.260,57.4000,-0.000104
16.276,57.4000,-0.000104
16.291,57.4000,-0.000104
16.308,57.4000,-0.000104
16.324,57.4000,-0.000104
16.340,57.4000,-0.000104
16.355,57.4000,-0.000104
16.371,57.4000,-0.000104
16.388,57.4000,-0.000104
16.403,57.4000,-0.000104
16.419,57.4000,-0.000104
16.435,57.4000,-0.000104
16.451,57.4000,-0.000104
16.467,57.4000,-0.000104
16.496,57.4000,0.000009
16.513,57.4000,0.000009
16.528,57.4000,0.000009
16.544,57.4000,0.000009
16.562,57.4000,0.000009
16.590,57.4000,0.000009
16.609,57.4000,0.000009
16.625,57.4000,0.000009
16.640,57.4000,0.000009
16.657,57.4000,0.000009
16.672,57.4000,0.000009
16.692,57.4000,0.000009
16.714,57.4000,0.000009
16.745,57.4000,0.000038
16.777,57.4000,0.000038
16.807,57.4000,0.000038
16.838,57.4000,0.000038
16.869,57.4000,0.000038
16.900,57.4000,0.000038
16.931,57.4000,0.000038
16.948,57.4000,0.000038
16.978,57.4000,0.000009
16.993,57.4000,0.000009
17.008,57.4000,0.000009
17.024,57.4000,0.000009
17.053,57.4000,0.000009
17.070,57.4000,0.000009
17.100,57.4000,0.000009
17.117,57.4000,0.000009
17.133,57.4000,0.000009
17.150,57.4000,0.000009
17.177,57.4000,0.000009
17.197,57.4000,0.000009
17.213,57.4000,0.000028
17.229,57.4000,0.000028
17.245,57.4000,0.000028
17.261,57.4000,0.000028
17.277,57.4000,0.000028
17.293,57.4000,0.000028
17.309,57.4000,0.000028
17.325,57.4000,0.000028
17.341,57.4000,0.000028
17.357,57.4000,0.000028
17.373,57.4000,0.000028
17.389,57.4000,0.000028
17.405,57.4000,0.000028
17.421,57.4000,0.000028
17.437,57.4000,0.000028
17.453,57.4000,0.000028
17.469,57.4000,0.000000
17.485,57.4000,0.000000
17.501,57.4000,0.000000
17.517,57.4000,0.000000
17.533,57.4000,0.000000
17.549,57.4000,0.000000
17.565,57.4000,0.000000
17.581,57.4000,0.000000
17.608,57.4000,0.000000
17.624,57.4000,0.000000
17.640,57.4000,0.000000
17.656,57.4000,0.000000
17.672,57.4000,0.000000
17.688,57.4000,0.000000
17.704,57.4000,0.000000
17.721,57.4000,0.000009
17.736,57.4000,0.000009
17.752,57.4000,0.000009
17.768,57.4000,0.000009
17.785,57.4000,0.000009
17.812,57.4000,0.000009
17.832,57.4000,0.000009
17.848,57.4000,0.000009
17.864,57.4000,0.000009
17.880,57.4000,0.000009
17.896,57.4000,0.000009
17.912,57.4000,0.000009
17.928,57.4000,0.000009
17.944,57.4000,0.000009
17.960,57.4000,0.000009
17.976,57.4000,0.000009
17.992,57.4000,0.000056
18.008,57.4000,0.000056
18.024,57.4000,0.000056
18.040,57.4000,0.000056
18.056,57.4000,0.000056
18.072,57.4000,0.000056
18.089,57.4000,0.000056
18.108,57.4000,0.000056
18.138,57.4000,0.000056
18.154,57.4000,0.000056
18.170,57.4000,0.000056
18.185,57.4000,0.000056
18.201,57.4000,0.000056
18.217,57.4000,0.000056
18.233,57.4000,0.000056
18.248,57.4000,0.000028
18.279,57.4000,0.000028
18.296,57.4000,0.000028
18.311,57.4000,0.000028
18.328,57.4000,0.000028
18.344,57.4000,0.000028
18.360,57.4000,0.000028
18.376,57.4000,0.000028
18.392,57.4000,0.000028
18.407,57.4000,0.000028
18.424,57.4000,0.000028
18.440,57.4000,0.000028
18.456,57.4000,0.000028
18.471,57.4000,0.000028
18.487,57.4000,0.000028
18.503,57.4000,0.000019
18.520,57.4000,0.000019
18.536,57.4000,0.000019
18.551,57.4000,0.000019
18.568,57.4000,0.000019
18.584,57.4000,0.000019
18.600,57.4000,0.000019
18.616,57.4000,0.000019
18.632,57.4000,0.000019
18.648,57.4000,0.000019
18.675,57.4000,0.000019
18.690,57.4000,0.000019
18.706,57.4000,0.000019
18.723,57.4000,0.000019
18.738,57.4000,0.000019
18.754,57.4000,0.000066
18.770,57.4000,0.000066
18.787,57.4000,0.000066
18.803,57.4000,0.000066
18.818,57.4000,0.000066
18.834,57.4000,0.000066
18.850,57.4000,0.000066
18.866,57.4000,0.000066
18.882,57.4000,0.000066
18.906,57.4000,0.000066
18.929,57.4000,0.000066
18.946,57.4000,0.000066
18.963,57.4000,0.000066
18.978,57.4000,0.000066
18.994,57.4000,0.000066
19.011,57.4000,0.000066
19.027,57.4000,0.000066
19.043,57.4000,0.000066
19.058,57.4000,0.000066
19.074,57.4000,0.000066
19.091,57.4000,0.000066
19.107,57.4000,0.000066
19.122,57.4000,0.000066
19.139,57.4000,0.000066
19.155,57.4000,0.000066
19.170,57.4000,0.000066
19.186,57.4000,0.000066
19.202,57.4000,0.000066
19.219,57.4000,0.000066
19.234,57.4000,0.000009
19.250,57.4000,0.000009
19.266,57.4000,0.000009
19.282,57.4000,0.000009
19.298,57.4000,0.000009
19.314,57.4000,0.000009
19.331,57.4000,0.000009
19.346,57.4000,0.000009
19.362,57.4000,0.000009
19.378,57.4000,0.000009
19.394,57.4000,0.000009
19.410,57.4000,0.000009
19.426,57.4000,0.000009
19.442,57.4000,0.000009
19.458,57.4000,0.000009
19.474,57.4000,0.000009
19.490,57.4000,0.000009
19.507,57.4000,0.000009
19.523,57.4000,0.000009
19.538,57.4000,0.000009
19.554,57.4000,0.000009
19.571,57.4000,0.000009
19.586,57.4000,0.000009
19.602,57.4000,0.000009
19.618,57.4000,0.000009
19.635,57.4000,0.000009
19.652,57.4000,0.000009
19.668,57.4000,0.000009
19.684,57.4000,0.000009
19.714,57.4000,0.000009
19.741,57.4000,0.000038
19.757,57.4000,0.000038
19.773,57.4000,0.000038
19.789,57.4000,0.000038
19.806,57.4000,0.000038
19.837,57.4000,0.000038
19.853,57.4000,0.000038
19.871,57.4000,0.000038
19.899,57.4000,0.000038
19.917,57.4000,0.000038
19.934,57.4000,0.000038
19.961,57.4000,-0.000019
19.981,57.4000,-0.000019
20.001,57.4000,-0.000019
20.024,57.4000,-0.000019
20.045,57.4000,-0.000019
20.061,57.4000,-0.000019
20.077,57.4000,-0.000019
20.093,57.4000,-0.000019
20.109,57.4000,-0.000019
20.131,57.4000,-0.000019
20.162,57.4000,-0.000019
20.178,57.4000,-0.000019
20.209,57.4000,-0.000019
20.224,57.4000,-0.000179
20.256,57.4000,-0.000179
20.286,57.4000,-0.000179
20.304,57.4000,-0.000179
20.332,57.4000,-0.000179
20.349,57.4000,-0.000179
20.365,57.4000,-0.000179
20.381,57.4000,-0.000179
20.397,57.4000,-0.000179
20.413,57.4000,-0.000179
20.429,57.3999,-0.000179
20.445,57.3995,-0.000179
20.461,57.3990,-0.000339
20.477,57.3983,-0.000339
20.493,57.3973,-0.000339
20.509,57.3962,-0.000339
20.525,57.3949,-0.000339
20.541,57.3935,-0.000339
20.557,57.3917,-0.000339
20.573,57.3899,-0.000339
20.589,57.3878,-0.000339
20.605,57.3855,-0.000339
20.621,57.3829,-0.000339
20.637,57.3803,-0.000339
20.653,57.3775,-0.000339
20.669,57.3745,-0.000339
20.685,57.3711,-0.000339
20.701,57.3678,-0.000339
20.717,57.3641,0.000508
20.734,57.3600,0.000508
20.750,57.3561,0.000508
20.765,57.3520,0.000508
20.781,57.3477,0.000508
20.807,57.3401,0.000508
20.823,57.3350,0.000508
20.839,57.3300,0.000508
20.855,57.3247,0.000508
20.871,57.3193,0.000508
20.887,57.3136,0.000508
20.903,57.3076,0.000508
20.919,57.3016,0.000508
20.935,57.2954,0.000508
20.951,57.2890,0.000508
20.968,57.2818,0.000508
20.999,57.2684,0.003831
21.015,57.2611,0.003831
21.031,57.2532,0.003831
21.047,57.2459,0.003831
21.062,57.2383,0.003831
21.079,57.2301,0.003831
21.095,57.2221,0.003831
21.111,57.2135,0.003831
21.127,57.2051,0.003831
21.143,57.1958,0.003831
21.165,57.1831,0.003831
21.187,57.1706,0.003831
21.206,57.1593,0.003831
21.223,57.1489,0.003831
21.239,57.1392,0.003831
21.254,57.1293,0.005864
21.271,57.1191,0.005864
21.287,57.1082,0.005864
21.302,57.0979,0.005864
21.318,57.0860,0.005864
21.344,57.0691,0.005864
21.360,57.0574,0.005864
21.390,57.0361,0.005864
21.407,57.0230,0.005864
21.422,57.0112,0.005864
21.439,56.9984,0.005864
21.456,56.9853,0.005864
21.472,56.9728,0.005864
21.498,56.9513,0.007596
21.519,56.9340,0.007596
21.535,56.9202,0.007596
21.551,56.9063,0.007596
21.566,56.8931,0.007596
21.583,56.8786,0.007596
21.599,56.8641,0.007596
21.614,56.8501,0.007596
21.631,56.8351,0.007596
21.646,56.8203,0.007596
21.662,56.8047,0.007596
21.678,56.7902,0.007596
21.695,56.7745,0.007596
21.710,56.7591,0.007596
21.726,56.7431,0.007596
21.742,56.7272,0.012567
21.759,56.7105,0.012567
21.774,56.6945,0.012567
21.791,56.6771,0.012567
21.806,56.6611,0.012567
21.822,56.6434,0.012567
21.846,56.6173,0.012567
21.870,56.5921,0.012567
21.893,56.5655,0.012567
21.916,56.5412,0.012567
21.935,56.5190,0.012567
21.950,56.5011,0.012567
21.966,56.4821,0.007935
21.982,56.4628,0.007935
21.999,56.4431,0.007935
22.024,56.4116,0.007935
22.049,56.3818,0.007935
22.071,56.3540,0.007935
22.102,56.3159,0.007935
22.117,56.2950,0.007935
22.148,56.2548,0.007935
22.179,56.2146,0.007935
22.209,56.1724,0.007935
22.225,56.1522,0.000499
22.240,56.1308,0.000499
22.270,56.0885,0.000499
22.294,56.0546,0.000499
22.317,56.0228,0.000499
22.334,55.9975,0.000499
22.351,55.9731,0.000499
22.367,55.9492,0.000499
22.383,55.9255,0.000499
22.408,55.8864,0.000499
22.425,55.8618,0.000499
22.441,55.8378,0.000499
22.456,55.8139,0.000499
22.475,55.7847,0.000499
22.503,55.7410,0.000584
22.520,55.7131,0.000584
22.537,55.6862,0.000584
22.552,55.6612,0.000584
22.568,55.6352,0.000584
22.585,55.6088,0.000584
22.601,55.5820,0.000584
22.616,55.5562,0.000584
22.632,55.5284,0.000584
22.648,55.5025,0.000584
22.666,55.4721,0.000584
22.689,55.4320,0.000584
22.720,55.3771,0.000584
22.752,55.3220,0.000584
22.782,55.2683,0.000631
22.798,55.2386,0.000631
22.829,55.1837,0.000631
22.845,55.1547,0.000631
22.875,55.0978,0.000631
22.906,55.0396,0.000631
22.937,54.9803,0.000631
22.963,54.9311,0.000631
22.979,54.8991,0.000631
22.995,54.8688,0.000800
23.011,54.8370,0.000800
23.027,54.8060,0.000800
23.044,54.7723,0.000800
23.061,54.7386,0.000800
23.092,54.6750,0.000800
23.107,54.6446,0.000800
23.124,54.6100,0.000800
23.139,54.5776,0.000800
23.155,54.5451,0.000800
23.171,54.5124,0.000800
23.187,54.4797,0.000800
23.204,54.4423,0.000800
23.232,54.3834,0.000941
23.251,54.3437,0.000941
23.267,54.3092,0.000941
23.283,54.2761,0.000941
23.299,54.2421,0.000941
23.315,54.2090,0.000941
23.333,54.1711,0.000941
23.358,54.1192,0.000941
23.379,54.0768,0.000941
23.395,54.0440,0.000941
23.412,54.0103,0.000941
23.437,53.9614,0.000941
23.452,53.9297,0.000941
23.483,53.8690,0.000941
23.499,53.8392,0.000941
23.520,53.7974,0.001026
23.537,53.7660,0.001026
23.560,53.7210,0.001026
23.577,53.6890,0.001026
23.607,53.6328,0.001026
23.639,53.5750,0.001026
23.668,53.5207,0.001026
23.684,53.4928,0.001026
23.715,53.4362,0.001026
23.730,53.4101,0.001139
23.746,53.3824,0.001139
23.763,53.3524,0.001139
23.792,53.3008,0.001139
23.808,53.2750,0.001139
23.824,53.2469,0.001139
23.840,53.2202,0.001139
23.855,53.1943,0.001139
23.872,53.1656,0.001139
23.889,53.1391,0.001139
23.916,53.0944,0.001139
23.936,53.0633,0.001139
23.952,53.0371,0.001139
23.967,53.0118,0.001139
23.983,52.9870,0.001271
24.000,52.9620,0.001271
24.017,52.9347,0.001271
24.032,52.9120,0.001271
24.047,52.8879,0.001271
24.070,52.8521,0.001271
24.087,52.8277,0.001271
24.102,52.8051,0.001271
24.119,52.7814,0.001271
24.141,52.7465,0.001271
24.163,52.7159,0.001271
24.182,52.6889,0.001271
24.198,52.6648,0.001271
24.215,52.6431,0.001271
24.230,52.6213,0.001478
24.247,52.5990,0.001478
24.263,52.5758,0.001478
24.278,52.5553,0.001478
24.294,52.5342,0.001478
24.311,52.5125,0.001478
24.327,52.4894,0.001478
24.348,52.4632,0.001478
24.364,52.4431,0.001478
24.395,52.4031,0.001478
24.425,52.3657,0.001478
24.456,52.3262,0.001478
24.486,52.2911,0.001657
24.504,52.2704,0.001657
24.533,52.2356,0.001657
24.550,52.2163,0.001657
24.568,52.1956,0.001657
24.597,52.1636,0.001657
24.615,52.1437,0.001657
24.632,52.1253,0.001657
24.658,52.0970,0.001657
24.675,52.0791,0.001657
24.692,52.0619,0.001657
24.707,52.0459,0.001657
24.724,52.0292,0.001657
24.739,52.0134,0.001657
24.756,51.9967,0.001807
24.771,51.9818,0.001807
24.788,51.9656,0.001807
24.804,51.9501,0.001807
24.819,51.9358,0.001807
24.836,51.9203,0.001807
24.852,51.9052,0.001807
24.867,51.8914,0.001807
24.883,51.8766,0.001807
24.899,51.8625,0.001807
24.916,51.8481,0.001807
24.931,51.8350,0.001807
24.947,51.8211,0.001807
24.963,51.8079,0.001807
24.980,51.7944,0.001807
24.995,51.7819,0.001901
25.011,51.7689,0.001901
25.028,51.7558,0.001901
25.044,51.7433,0.001901
25.059,51.7315,0.001901
25.075,51.7194,0.001901
25.092,51.7071,0.001901
25.108,51.6957,0.001901
25.123,51.6845,0.001901
25.149,51.6663,0.001901
25.167,51.6543,0.001901
25.184,51.6426,0.001901
25.215,51.6224,0.001901
25.246,51.6026,0.001901
25.262,51.5935,0.001949
25.279,51.5827,0.001949
25.309,51.5651,0.001949
25.325,51.5563,0.001949
25.342,51.5470,0.001949
25.357,51.5388,0.001949
25.374,51.5300,0.001949
25.401,51.5157,0.001949
25.421,51.5062,0.001949
25.437,51.4985,0.001949
25.453,51.4911,0.001949
25.470,51.4835,0.001949
25.485,51.4763,0.001949
25.501,51.4697,0.002005
25.517,51.4629,0.002005
25.535,51.4555,0.002005
25.555,51.4477,0.002005
25.571,51.4419,0.002005
25.587,51.4357,0.002005
25.618,51.4251,0.002005
25.634,51.4197,0.002005
25.649,51.4147,0.002005
25.672,51.4078,0.002005
25.689,51.4031,0.002005
25.704,51.3988,0.002005
25.720,51.3946,0.002005
25.736,51.3905,0.001986
25.752,51.3866,0.001986
25.768,51.3829,0.001986
25.785,51.3793,0.001986
25.800,51.3762,0.001986
25.816,51.3731,0.001986
25.832,51.3703,0.001986
25.848,51.3675,0.001986
25.864,51.3649,0.001986
25.880,51.3627,0.001986
25.896,51.3606,0.001986
25.912,51.3587,0.001986
25.928,51.3569,0.001986
25.944,51.3554,0.001986
25.960,51.3540,0.001986
25.976,51.3529,0.001986
25.992,51.3519,0.001986
26.009,51.3512,0.001986
26.025,51.3505,0.001986
26.054,51.3500,0.001986
26.072,51.3500,0.001986
26.088,51.3500,0.001986
26.104,51.3500,0.001986
26.120,51.3500,0.001986
26.136,51.3500,0.001986
26.152,51.3500,0.001986
26.168,51.3500,0.001986
26.184,51.3500,0.001986
26.207,51.3500,0.001986
26.223,51.3500,0.001986
26.239,51.3503,0.002033
26.255,51.3508,0.002033
26.272,51.3515,0.002033
26.301,51.3531,0.002033
26.319,51.3545,0.002033
26.336,51.3560,0.002033
26.363,51.3588,0.002033
26.383,51.3613,0.002033
26.399,51.3634,0.002033
26.415,51.3658,0.002033
26.431,51.3683,0.002033
26.447,51.3711,0.002033
26.464,51.3742,0.002033
26.488,51.3791,0.002033
26.519,51.3859,0.002024
26.549,51.3935,0.002024
26.580,51.4016,0.002024
26.613,51.4113,0.002024
26.643,51.4207,0.002024
26.674,51.4310,0.002024
26.704,51.4422,0.002024
26.736,51.4542,0.002024
26.764,51.4661,0.002024
26.780,51.4727,0.002024
26.796,51.4795,0.002024
26.812,51.4866,0.002024
26.829,51.4945,0.002024
26.844,51.5018,0.002024
26.860,51.5094,0.002024
26.876,51.5172,0.002024
26.892,51.5259,0.002024
26.907,51.5338,0.002024
26.923,51.5423,0.002024
26.940,51.5511,0.002024
26.956,51.5606,0.002024
26.971,51.5691,0.002024
26.988,51.5790,0.002014
27.004,51.5882,0.002014
27.020,51.5978,0.002014
27.036,51.6081,0.002014
27.060,51.6234,0.002014
27.091,51.6431,0.002014
27.121,51.6641,0.002014
27.152,51.6857,0.002014
27.168,51.6968,0.002014
27.183,51.7087,0.002014
27.214,51.7313,0.002014
27.246,51.7557,0.001996
27.276,51.7798,0.001996
27.292,51.7926,0.001996
27.320,51.8166,0.001996
27.336,51.8296,0.001996
27.352,51.8434,0.001996
27.369,51.8573,0.001996
27.387,51.8749,0.001996
27.416,51.9002,0.001996
27.432,51.9147,0.001996
27.449,51.9313,0.001996
27.464,51.9449,0.001996
27.481,51.9604,0.002005
27.497,51.9759,0.002005
27.513,51.9919,0.002005
27.528,52.0071,0.002005
27.545,52.0240,0.002005
27.560,52.0391,0.002005
27.576,52.0564,0.002005
27.592,52.0724,0.002005
27.608,52.0900,0.002005
27.624,52.1062,0.002005
27.641,52.1242,0.002005
27.656,52.1409,0.002005
27.672,52.1583,0.002005
27.689,52.1768,0.002005
27.705,52.1953,0.002005
27.720,52.2124,0.002005
27.736,52.2307,0.002005
27.753,52.2498,0.002005
27.769,52.2691,0.002005
27.785,52.2873,0.002005
27.800,52.3065,0.002005
27.817,52.3261,0.002005
27.844,52.3592,0.002005
27.860,52.3791,0.002005
27.875,52.3989,0.002005
27.892,52.4194,0.002005
27.907,52.4392,0.002005
27.923,52.4598,0.002005
27.940,52.4819,0.002005
27.964,52.5138,0.002005
27.990,52.5489,0.001864
28.021,52.5911,0.001864
28.052,52.6329,0.001864
28.067,52.6553,0.001864
28.083,52.6770,0.001864
28.099,52.6998,0.001864
28.115,52.7230,0.001864
28.132,52.7477,0.001864
28.160,52.7877,0.001864
28.179,52.8167,0.001864
28.195,52.8412,0.001864
28.211,52.8642,0.001864
28.227,52.8886,0.001685
28.243,52.9131,0.001685
28.259,52.9379,0.001685
28.275,52.9631,0.001685
28.291,52.9878,0.001685
28.308,53.0147,0.001685
28.324,53.0406,0.001685
28.347,53.0777,0.001685
28.376,53.1243,0.001685
28.406,53.1754,0.001685
28.422,53.2017,0.001685
28.453,53.2533,0.001685
28.484,53.3061,0.001685
28.500,53.3338,0.001534
28.515,53.3595,0.001534
28.534,53.3938,0.001534
28.562,53.4433,0.001534
28.579,53.4727,0.001534
28.595,53.5032,0.001534
28.611,53.5303,0.001534
28.627,53.5598,0.001534
28.643,53.5893,0.001534
28.659,53.6186,0.001534
28.675,53.6492,0.001534
28.691,53.6786,0.001534
28.707,53.7087,0.001534
28.724,53.7407,0.001534
28.751,53.7922,0.001337
28.771,53.8311,0.001337
28.787,53.8626,0.001337
28.804,53.8948,0.001337
28.828,53.9449,0.001337
28.851,53.9895,0.001337
28.867,54.0214,0.001337
28.883,54.0520,0.001337
28.899,54.0849,0.001337
28.929,54.1469,0.001337
28.945,54.1786,0.001337
28.960,54.2108,0.001337
28.976,54.2450,0.001337
28.992,54.2771,0.001130
29.008,54.3111,0.001130
29.024,54.3450,0.001130
29.040,54.3793,0.001130
29.056,54.4140,0.001130
29.072,54.4470,0.001130
29.088,54.4806,0.001130
29.104,54.5135,0.001130
29.120,54.5476,0.001130
29.136,54.5807,0.001130
29.151,54.6130,0.001130
29.168,54.6452,0.001130
29.184,54.6768,0.001130
29.200,54.7093,0.001130
29.217,54.7461,0.001130
29.247,54.8021,0.001045
29.264,54.8352,0.001045
29.280,54.8675,0.001045
29.296,54.8976,0.001045
29.312,54.9290,0.001045
29.328,54.9581,0.001045
29.346,54.9925,0.001045
29.371,55.0407,0.001045
29.392,55.0786,0.001045
29.408,55.1091,0.001045
29.424,55.1373,0.001045
29.440,55.1661,0.001045
29.464,55.2121,0.001045
29.479,55.2378,0.001045
29.495,55.2653,0.000960
29.511,55.2941,0.000960
29.527,55.3224,0.000960
29.543,55.3502,0.000960
29.559,55.3777,0.000960
29.575,55.4057,0.000960
29.592,55.4345,0.000960
29.607,55.4599,0.000960
29.623,55.4865,0.000960
29.639,55.5133,0.000960
29.656,55.5422,0.000960
29.671,55.5668,0.000960
29.687,55.5928,0.000960
29.703,55.6182,0.000960
29.719,55.6449,0.000960
29.735,55.6704,0.000734
29.751,55.6952,0.000734
29.767,55.7209,0.000734
29.783,55.7461,0.000734
29.799,55.7700,0.000734
29.814,55.7945,0.000734
29.831,55.8192,0.000734
29.847,55.8435,0.000734
29.863,55.8678,0.000734
29.879,55.8919,0.000734
29.895,55.9161,0.000734
29.910,55.9387,0.000734
29.926,55.9622,0.000734
29.942,55.9849,0.000734
29.962,56.0142,0.000734
29.989,56.0515,0.000734
30.019,56.0932,0.000602
30.036,56.1164,0.000602
30.051,56.1370,0.000602
30.068,56.1591,0.000602
30.084,56.1811,0.000602
30.100,56.2021,0.000602
30.115,56.2224,0.000602
30.132,56.2435,0.000602
30.148,56.2647,0.000602
30.164,56.2846,0.000602
30.179,56.3044,0.000602
30.196,56.3256,0.000602
30.212,56.3451,0.000602
30.228,56.3644,0.000602
30.243,56.3830,0.000499
30.259,56.4026,0.000499
30.276,56.4227,0.000499
30.291,56.4403,0.000499
30.308,56.4596,0.000499
30.323,56.4774,0.000499
30.339,56.4961,0.000499
30.355,56.5140,0.000499
30.372,56.5329,0.000499
30.388,56.5500,0.000499
30.403,56.5675,0.000499
30.419,56.5846,0.000499
30.436,56.6017,0.000499
30.452,56.6192,0.000499
30.467,56.6354,0.000499
30.483,56.6518,0.000452
30.499,56.6679,0.000452
30.517,56.6855,0.000452
30.532,56.7008,0.000452
30.547,56.7158,0.000452
30.575,56.7433,0.000452
30.592,56.7590,0.000452
30.608,56.7736,0.000452
30.623,56.7881,0.000452
30.640,56.8037,0.000452
30.655,56.8172,0.000452
30.671,56.8316,0.000452
30.688,56.8460,0.000452
30.704,56.8600,0.000452
30.720,56.8737,0.000452
30.736,56.8869,0.000395
30.751,56.9000,0.000395
30.768,56.9137,0.000395
30.783,56.9261,0.000395
30.799,56.9387,0.000395
30.816,56.9514,0.000395
30.832,56.9640,0.000395
30.847,56.9759,0.000395
30.863,56.9877,0.000395
30.879,56.9993,0.000395
30.895,57.0111,0.000395
30.912,57.0230,0.000395
30.927,57.0334,0.000395
30.944,57.0453,0.000395
30.960,57.0564,0.000395
30.976,57.0665,0.000320
30.991,57.0766,0.000320
31.008,57.0872,0.000320
31.023,57.0964,0.000320
31.039,57.1063,0.000320
31.055,57.1159,0.000320
31.072,57.1261,0.000320
31.088,57.1347,0.000320
31.103,57.1437,0.000320
31.131,57.1592,0.000320
31.148,57.1680,0.000320
31.177,57.1827,0.000320
31.198,57.1933,0.000320
31.224,57.2054,0.000188
31.244,57.2146,0.000188
31.259,57.2217,0.000188
31.275,57.2286,0.000188
31.291,57.2355,0.000188
31.307,57.2419,0.000188
31.323,57.2485,0.000188
31.339,57.2544,0.000188
31.355,57.2604,0.000188
31.371,57.2662,0.000188
31.387,57.2719,0.000188
31.403,57.2772,0.000188
31.419,57.2826,0.000188
31.435,57.2874,0.000188
31.451,57.2923,0.000188
31.467,57.2970,-0.000122
31.483,57.3016,-0.000122
31.499,57.3058,-0.000122
31.515,57.3096,-0.000122
31.531,57.3135,-0.000122
31.547,57.3172,-0.000122
31.563,57.3207,-0.000122
31.579,57.3240,-0.000122
31.595,57.3271,-0.000122
31.611,57.3301,-0.000122
31.629,57.3331,-0.000122
31.656,57.3370,-0.000122
31.687,57.3411,-0.000122
31.710,57.3435,-0.000122
31.732,57.3456,-0.000593
31.750,57.3468,-0.000593
31.766,57.3479,-0.000593
31.782,57.3487,-0.000593
31.798,57.3493,-0.000593
31.816,57.3498,-0.000593
31.841,57.3500,-0.000593
31.862,57.3500,-0.000593
31.878,57.3500,-0.000593
31.894,57.3500,-0.000593
31.910,57.3500,-0.000593
31.926,57.3500,-0.000593
31.942,57.3500,-0.000593
31.958,57.3500,-0.000593
31.974,57.3500,-0.000706
31.990,57.3500,-0.000706
32.007,57.3500,-0.000706
32.027,57.3500,-0.000706
32.042,57.3500,-0.000706
32.058,57.3500,-0.000706
32.073,57.3500,-0.000706
32.104,57.3500,-0.000706
32.122,57.3500,-0.000706
32.150,57.3500,-0.000706
32.166,57.3500,-0.000706
32.182,57.3500,-0.000706
32.198,57.3500,-0.000706
32.214,57.3500,-0.000706
32.242,57.3500,-0.000339
32.257,57.3500,-0.000339
32.273,57.3500,-0.000339
32.289,57.3500,-0.000339
32.306,57.3500,-0.000339
32.336,57.3500,-0.000339
32.353,57.3500,-0.000339
32.369,57.3500,-0.000339
32.385,57.3500,-0.000339
32.401,57.3500,-0.000339
32.417,57.3500,-0.000339
32.434,57.3500,-0.000339
32.462,57.3500,-0.000104
32.481,57.3500,-0.000104
32.497,57.3500,-0.000104
32.513,57.3500,-0.000104
32.529,57.3500,-0.000104
32.545,57.3500,-0.000104
32.561,57.3500,-0.000104
32.579,57.3500,-0.000104
32.602,57.3500,-0.000104
32.617,57.3500,-0.000104
32.648,57.3500,-0.000104
32.663,57.3500,-0.000104
32.694,57.3500,-0.000104
32.724,57.3500,0.000028
32.740,57.3500,0.000028
32.770,57.3500,0.000028
32.785,57.3500,0.000028
32.801,57.3500,0.000028
32.817,57.3500,0.000028
32.833,57.3500,0.000028
32.849,57.3500,0.000028
32.865,57.3500,0.000028
32.881,57.3500,0.000028
32.897,57.3500,0.000028
32.913,57.3500,0.000028
32.929,57.3500,0.000028
32.945,57.3500,0.000028
32.960,57.3500,0.000028
32.978,57.3500,0.000028
33.005,57.3500,0.000056
33.025,57.3500,0.000056
33.040,57.3500,0.000056
33.057,57.3500,0.000056
33.073,57.3500,0.000056
33.088,57.3500,0.000056
33.106,57.3500,0.000056
33.129,57.3500,0.000056
33.144,57.3500,0.000056
33.160,57.3500,0.000056
33.191,57.3500,0.000056
33.223,57.3500,0.000056
33.239,57.3500,0.000056
33.255,57.3500,0.000009
33.286,57.3500,0.000009
33.310,57.3500,0.000009
33.327,57.3500,0.000009
33.343,57.3500,0.000009
33.359,57.3500,0.000009
33.374,57.3500,0.000009
33.390,57.3500,0.000009
33.406,57.3500,0.000009
33.422,57.3500,0.000009
33.439,57.3500,0.000009
33.454,57.3500,0.000009
33.470,57.3500,0.000009
33.487,57.3500,0.000009
33.502,57.3500,0.000056
33.518,57.3500,0.000056
33.540,57.3500,0.000056
33.565,57.3500,0.000056
33.582,57.3500,0.000056
33.599,57.3500,0.000056
33.614,57.3500,0.000056
33.630,57.3500,0.000056
33.647,57.3500,0.000056
33.664,57.3500,0.000056
33.689,57.3500,0.000056
33.710,57.3500,0.000056
33.727,57.3500,0.000056
33.743,57.3500,0.000056
33.767,57.3500,0.000056
33.798,57.3500,0.000056
33.815,57.3500,0.000056
33.847,57.3500,0.000056
33.876,57.3500,0.000056
33.892,57.3500,0.000056
33.922,57.3500,0.000056
33.953,57.3500,0.000056
33.969,57.3500,0.000056
33.985,57.3500,0.000056
34.000,57.3500,0.000047
34.031,57.3500,0.000047
34.063,57.3500,0.000047
34.078,57.3500,0.000047
34.095,57.3500,0.000047
34.110,57.3500,0.000047
34.126,57.3500,0.000047
34.142,57.3500,0.000047
34.159,57.3500,0.000047
34.187,57.3500,0.000047
34.206,57.3500,0.000047
34.228,57.3500,0.000047
34.249,57.3500,0.000047
34.270,57.3500,0.000038
34.287,57.3500,0.000038
34.302,57.3500,0.000038
34.318,57.3500,0.000038
34.334,57.3500,0.000038
34.365,57.3500,0.000038
34.381,57.3500,0.000038
34.397,57.3500,0.000038
34.413,57.3500,0.000038
34.429,57.3500,0.000038
34.445,57.3500,0.000038
34.461,57.3500,0.000038
34.480,57.3500,0.000038
34.497,57.3500,0.000038
34.512,57.3500,0.000047
34.528,57.3500,0.000047
34.559,57.3500,0.000047
34.590,57.3500,0.000047
34.606,57.3500,0.000047
34.621,57.3500,0.000047
34.637,57.3500,0.000047
34.653,57.3500,0.000047
34.669,57.3500,0.000047
34.685,57.3500,0.000047
34.701,57.3500,0.000047
34.717,57.3500,0.000047
34.733,57.3500,0.000047
34.749,57.3500,0.000113
34.765,57.3500,0.000113
34.781,57.3500,0.000113
34.797,57.3500,0.000113
34.813,57.3500,0.000113
34.829,57.3500,0.000113
34.845,57.3500,0.000113
34.861,57.3500,0.000113
34.877,57.3500,0.000113
34.900,57.3500,0.000113
34.916,57.3500,0.000113
34.932,57.3500,0.000113
34.948,57.3500,0.000113
34.964,57.3500,0.000113
34.980,57.3500,0.000113
34.996,57.3500,0.000056
35.012,57.3500,0.000056
35.029,57.3500,0.000056
35.058,57.3500,0.000056
35.076,57.3500,0.000056
35.094,57.3500,0.000056
35.120,57.3500,0.000056
35.140,57.3500,0.000056
35.156,57.3500,0.000056
35.172,57.3500,0.000056
35.187,57.3500,0.000056
35.204,57.3500,0.000056
35.220,57.3500,0.000056
35.236,57.3500,0.000056
35.252,57.3500,0.000009
35.268,57.3500,0.000009
35.284,57.3500,0.000009
35.299,57.3500,0.000009
35.316,57.3500,0.000009
35.332,57.3500,0.000009
35.348,57.3500,0.000009
35.363,57.3500,0.000009
35.380,57.3500,0.000009
35.396,57.3500,0.000009
35.422,57.3500,0.000009
35.438,57.3500,0.000009
35.453,57.3500,0.000009
35.470,57.3500,0.000009
35.485,57.3500,0.000028
35.502,57.3500,0.000028
35.517,57.3500,0.000028
35.533,57.3500,0.000028
35.549,57.3500,0.000028
35.566,57.3500,0.000028
35.582,57.3500,0.000028
35.597,57.3500,0.000028
35.614,57.3500,0.000028
35.629,57.3500,0.000028
35.646,57.3500,0.000028
35.661,57.3500,0.000028
35.677,57.3500,0.000028
35.694,57.3500,0.000028
35.710,57.3500,0.000028
35.725,57.3500,0.000028
35.741,57.3500,0.000066
35.758,57.3500,0.000066
35.774,57.3500,0.000066
35.789,57.3500,0.000066
35.805,57.3500,0.000066
35.821,57.3500,0.000066
35.838,57.3500,0.000066
35.854,57.3500,0.000066
35.869,57.3500,0.000066
35.885,57.3500,0.000066
35.901,57.3500,0.000066
35.918,57.3500,0.000066
35.933,57.3500,0.000066
35.955,57.3500,0.000066
35.972,57.3500,0.000066
35.987,57.3500,0.000104
36.003,57.3500,0.000104
36.021,57.3500,0.000104
36.048,57.3500,0.000104
36.068,57.3500,0.000104
36.083,57.3500,0.000104
36.099,57.3500,0.000104
36.116,57.3500,0.000104
36.131,57.3500,0.000104
36.148,57.3500,0.000104
36.163,57.3500,0.000104
36.179,57.3500,0.000104
36.196,57.3500,0.000104
36.212,57.3500,0.000104
36.227,57.3500,0.000056
36.243,57.3500,0.000056
36.259,57.3500,0.000056
36.275,57.3500,0.000056
36.291,57.3500,0.000056
36.307,57.3500,0.000056
36.324,57.3500,0.000056
36.340,57.3500,0.000056
36.355,57.3500,0.000056
36.371,57.3500,0.000056
36.395,57.3500,0.000056
36.417,57.3500,0.000056
36.435,57.3500,0.000056
36.453,57.3500,0.000056
36.480,57.3500,0.000056
36.499,57.3500,-0.000066
36.515,57.3500,-0.000066
36.531,57.3500,-0.000066
36.547,57.3500,-0.000066
36.564,57.3500,-0.000066
36.580,57.3500,-0.000066
36.595,57.3500,-0.000066
36.611,57.3500,-0.000066
36.627,57.3500,-0.000066
36.643,57.3500,-0.000066
36.659,57.3500,-0.000066
36.675,57.3500,-0.000066
36.691,57.3500,-0.000066
36.707,57.3500,-0.000066
36.723,57.3500,-0.000254
36.739,57.3500,-0.000254
36.755,57.3500,-0.000254
36.772,57.3500,-0.000254
36.790,57.3500,-0.000254
36.821,57.3497,-0.000254
36.852,57.3487,-0.000254
36.870,57.3477,-0.000254
36.885,57.3467,-0.000254
36.914,57.3443,-0.000254
36.933,57.3424,-0.000254
36.961,57.3391,-0.000169
36.979,57.3367,-0.000169
36.996,57.3342,-0.000169
37.023,57.3297,-0.000169
37.044,57.3260,-0.000169
37.059,57.3229,-0.000169
37.075,57.3195,-0.000169
37.091,57.3161,-0.000169
37.107,57.3121,-0.000169
37.123,57.3083,-0.000169
37.139,57.3042,-0.000169
37.155,57.2999,-0.000169
37.171,57.2954,-0.000169
37.187,57.2908,-0.000169
37.203,57.2859,-0.000169
37.219,57.2807,-0.000169
37.236,57.2753,-0.000169
37.251,57.2701,0.002033
37.267,57.2645,0.002033
37.283,57.2580,0.002033
37.299,57.2526,0.002033
37.315,57.2459,0.002033
37.331,57.2399,0.002033
37.347,57.2330,0.002033
37.363,57.2264,0.002033
37.380,57.2188,0.002033
37.399,57.2104,0.002033
37.425,57.1977,0.002033
37.443,57.1892,0.002033
37.460,57.1809,0.002033
37.488,57.1664,0.005281
37.507,57.1562,0.005281
37.526,57.1454,0.005281
37.549,57.1326,0.005281
37.565,57.1228,0.005281
37.587,57.1103,0.005281
37.603,57.1006,0.005281
37.619,57.0908,0.005281
37.634,57.0808,0.005281
37.651,57.0703,0.005281
37.667,57.0597,0.005281
37.683,57.0493,0.005281
37.700,57.0374,0.005281
37.715,57.0270,0.005281
37.730,57.0161,0.006862
37.747,57.0045,0.006862
37.762,56.9929,0.006862
37.779,56.9807,0.006862
37.795,56.9690,0.006862
37.811,56.9566,0.006862
37.827,56.9442,0.006862
37.843,56.9316,0.006862
37.859,56.9183,0.006862
37.875,56.9059,0.006862
37.891,56.8917,0.006862
37.908,56.8781,0.006862
37.923,56.8651,0.006862
37.939,56.8510,0.006862
37.955,56.8378,0.006862
37.971,56.8234,0.006862
37.986,56.8093,0.009752
38.003,56.7944,0.009752
38.020,56.7785,0.009752
38.046,56.7536,0.009752
38.067,56.7344,0.009752
38.083,56.7186,0.009752
38.099,56.7031,0.009752
38.114,56.6874,0.009752
38.137,56.6642,0.009752
38.153,56.6476,0.009752
38.169,56.6311,0.009752
38.186,56.6141,0.009752
38.201,56.5972,0.009752
38.217,56.5802,0.009752
38.234,56.5624,0.011908
38.249,56.5453,0.011908
38.266,56.5259,0.011908
38.284,56.5059,0.011908
38.309,56.4780,0.011908
38.330,56.4539,0.011908
38.346,56.4350,0.011908
38.361,56.4170,0.011908
38.378,56.3972,0.011908
38.394,56.3772,0.011908
38.417,56.3496,0.011908
38.448,56.3106,0.011908
38.468,56.2851,0.011908
38.489,56.2588,0.011908
38.506,56.2373,0.006043
38.522,56.2162,0.006043
38.538,56.1956,0.006043
38.553,56.1749,0.006043
38.569,56.1533,0.006043
38.586,56.1313,0.006043
38.602,56.1092,0.006043
38.617,56.0880,0.006043
38.634,56.0645,0.006043
38.662,56.0240,0.006043
38.689,55.9864,0.006043
38.706,55.9624,0.006043
38.721,55.9402,0.000593
38.738,55.9149,0.000593
38.753,55.8929,0.000593
38.770,55.8686,0.000593
38.785,55.8448,0.000593
38.802,55.8194,0.000593
38.820,55.7908,0.000593
38.848,55.7489,0.000593
38.866,55.7215,0.000593
38.882,55.6955,0.000593
38.910,55.6507,0.000593
38.929,55.6199,0.000593
38.946,55.5930,0.000593
38.961,55.5681,0.000593
38.977,55.5415,0.000659
38.993,55.5149,0.000659
39.011,55.4847,0.000659
39.034,55.4448,0.000659
39.064,55.3935,0.000659
39.095,55.3404,0.000659
39.126,55.2875,0.000659
39.143,55.2573,0.000659
39.172,55.2049,0.000659
39.203,55.1493,0.000659
39.218,55.1205,0.000659
39.245,55.0712,0.000753
39.261,55.0414,0.000753
39.277,55.0110,0.000753
39.294,54.9785,0.000753
39.310,54.9483,0.000753
39.326,54.9183,0.000753
39.342,54.8878,0.000753
39.357,54.8587,0.000753
39.375,54.8223,0.000753
39.402,54.7705,0.000753
39.421,54.7319,0.000753
39.437,54.6994,0.000753
39.453,54.6683,0.000753
39.470,54.6349,0.000904
39.485,54.6028,0.000904
39.501,54.5688,0.000904
39.517,54.5378,0.000904
39.533,54.5051,0.000904
39.549,54.4710,0.000904
39.566,54.4370,0.000904
39.581,54.4034,0.000904
39.597,54.3700,0.000904
39.613,54.3343,0.000904
39.633,54.2929,0.000904
39.652,54.2511,0.000904
39.683,54.1876,0.000904
39.699,54.1542,0.000904
39.730,54.0913,0.001035
39.746,54.0590,0.001035
39.769,54.0094,0.001035
39.785,53.9785,0.001035
39.801,53.9465,0.001035
39.819,53.9114,0.001035
39.838,53.8722,0.001035
39.853,53.8429,0.001035
39.869,53.8125,0.001035
39.901,53.7500,0.001035
39.917,53.7204,0.001035
39.947,53.6633,0.001035
39.978,53.6028,0.001111
39.997,53.5676,0.001111
40.025,53.5182,0.001111
40.041,53.4883,0.001111
40.057,53.4593,0.001111
40.074,53.4288,0.001111
40.103,53.3771,0.001111
40.121,53.3437,0.001111
40.137,53.3174,0.001111
40.155,53.2854,0.001111
40.181,53.2399,0.001111
40.204,53.2008,0.001111
40.227,53.1622,0.001111
40.258,53.1112,0.001205
40.289,53.0606,0.001205
40.321,53.0080,0.001205
40.351,52.9600,0.001205
40.367,52.9342,0.001205
40.398,52.8857,0.001205
40.414,52.8626,0.001205
40.444,52.8160,0.001205
40.460,52.7902,0.001205
40.491,52.7461,0.001412
40.521,52.7010,0.001412
40.553,52.6560,0.001412
40.569,52.6331,0.001412
40.585,52.6101,0.001412
40.601,52.5864,0.001412
40.617,52.5655,0.001412
40.633,52.5433,0.001412
40.649,52.5219,0.001412
40.666,52.4990,0.001412
40.691,52.4648,0.001412
40.712,52.4367,0.001412
40.730,52.4134,0.001412
40.752,52.3845,0.001412
40.768,52.3654,0.001412
40.798,52.3272,0.001619
40.828,52.2900,0.001619
40.844,52.2703,0.001619
40.876,52.2322,0.001619
40.891,52.2144,0.001619
40.908,52.1946,0.001619
40.937,52.1608,0.001619
40.954,52.1416,0.001619
40.984,52.1086,0.001798
41.001,52.0900,0.001798
41.017,52.0720,0.001798
41.032,52.0559,0.001798
41.049,52.0375,0.001798
41.064,52.0219,0.001798
41.084,52.0013,0.001798
41.100,51.9849,0.001798
41.123,51.9619,0.001798
41.154,51.9308,0.001798
41.185,51.9012,0.001798
41.216,51.8722,0.001798
41.231,51.8574,0.001798
41.263,51.8293,0.001949
41.294,51.8015,0.001949
41.325,51.7756,0.001949
41.356,51.7489,0.001949
41.381,51.7292,0.001949
41.397,51.7160,0.001949
41.417,51.7007,0.001949
41.433,51.6876,0.001949
41.448,51.6759,0.001949
41.479,51.6533,0.002033
41.496,51.6410,0.002033
41.511,51.6302,0.002033
41.527,51.6195,0.002033
41.557,51.5985,0.002033
41.588,51.5784,0.002033
41.604,51.5680,0.002033
41.620,51.5579,0.002033
41.636,51.5477,0.002033
41.652,51.5382,0.002033
41.668,51.5286,0.002033
41.685,51.5190,0.002033
41.700,51.5102,0.002033
41.716,51.5012,0.002052
41.732,51.4925,0.002052
41.751,51.4824,0.002052
41.774,51.4705,0.002052
41.804,51.4557,0.002052
41.820,51.4483,0.002052
41.835,51.4412,0.002052
41.865,51.4274,0.002052
41.886,51.4183,0.002052
41.912,51.4078,0.002052
41.939,51.3970,0.002052
41.955,51.3910,0.002052
41.971,51.3851,0.002090
41.987,51.3796,0.002090
42.004,51.3737,0.002090
42.019,51.3686,0.002090
42.035,51.3638,0.002090
42.051,51.3588,0.002090
42.069,51.3535,0.002090
42.098,51.3458,0.002090
42.115,51.3414,0.002090
42.133,51.3370,0.002090
42.160,51.3308,0.002090
42.179,51.3269,0.002090
42.196,51.3236,0.002090
42.211,51.3209,0.002090
42.228,51.3180,0.002052
42.243,51.3154,0.002052
42.259,51.3132,0.002052
42.275,51.3111,0.002052
42.291,51.3091,0.002052
42.307,51.3073,0.002052
42.324,51.3056,0.002052
42.339,51.3043,0.002052
42.355,51.3032,0.002052
42.372,51.3020,0.002052
42.387,51.3013,0.002052
42.403,51.3007,0.002052
42.419,51.3003,0.002052
42.435,51.3001,0.002052
42.461,51.3001,0.002052
42.485,51.3001,0.002052
42.516,51.3001,0.002043
42.546,51.3001,0.002043
42.577,51.3002,0.002043
42.593,51.3004,0.002043
42.623,51.3016,0.002043
42.639,51.3024,0.002043
42.669,51.3045,0.002043
42.686,51.3060,0.002043
42.715,51.3091,0.002137
42.732,51.3113,0.002137
42.748,51.3133,0.002137
42.764,51.3157,0.002137
42.781,51.3185,0.002137
42.798,51.3215,0.002137
42.823,51.3262,0.002137
42.844,51.3304,0.002137
42.860,51.3342,0.002137
42.876,51.3379,0.002137
42.892,51.3416,0.002137
42.908,51.3458,0.002137
42.925,51.3503,0.002137
42.940,51.3546,0.002137
42.956,51.3592,0.002137
42.983,51.3677,0.002146
42.999,51.3729,0.002146
43.015,51.3782,0.002146
43.031,51.3839,0.002146
43.047,51.3897,0.002146
43.064,51.3961,0.002146
43.087,51.4051,0.002146
43.118,51.4180,0.002146
43.149,51.4310,0.002146
43.184,51.4474,0.002146
43.211,51.4604,0.002146
43.242,51.4762,0.002099
43.273,51.4922,0.002099
43.288,51.5005,0.002099
43.303,51.5089,0.002099
43.319,51.5180,0.002099
43.334,51.5269,0.002099
43.352,51.5372,0.002099
43.367,51.5461,0.002099
43.383,51.5560,0.002099
43.399,51.5668,0.002099
43.416,51.5771,0.002099
43.444,51.5954,0.002099
43.463,51.6083,0.002099
43.479,51.6193,0.002099
43.495,51.6307,0.002099
43.511,51.6422,0.002109
43.536,51.6608,0.002109
43.552,51.6720,0.002109
43.568,51.6842,0.002109
43.584,51.6963,0.002109
43.601,51.7098,0.002109
43.616,51.7219,0.002109
43.632,51.7343,0.002109
43.648,51.7475,0.002109
43.666,51.7627,0.002109
43.691,51.7841,0.002109
43.712,51.8020,0.002109
43.728,51.8164,0.002109
43.744,51.8304,0.002109
43.759,51.8443,0.002118
43.776,51.8593,0.002118
43.792,51.8743,0.002118
43.808,51.8893,0.002118
43.824,51.9038,0.002118
43.840,51.9196,0.002118
43.857,51.9364,0.002118
43.876,51.9561,0.002118
43.892,51.9713,0.002118
43.923,52.0025,0.002118
43.938,52.0192,0.002118
43.955,52.0363,0.002118
43.985,52.0689,0.002118
44.016,52.1034,0.002080
44.033,52.1216,0.002080
44.064,52.1551,0.002080
44.091,52.1882,0.002080
44.107,52.2062,0.002080
44.123,52.2248,0.002080
44.140,52.2440,0.002080
44.157,52.2648,0.002080
44.172,52.2833,0.002080
44.188,52.3024,0.002080
44.204,52.3226,0.002080
44.221,52.3435,0.002080
44.236,52.3624,0.002080
44.251,52.3824,0.001930
44.268,52.4044,0.001930
44.284,52.4250,0.001930
44.299,52.4447,0.001930
44.316,52.4665,0.001930
44.331,52.4871,0.001930
44.351,52.5134,0.001930
44.374,52.5455,0.001930
44.395,52.5743,0.001930
44.412,52.5976,0.001930
44.428,52.6198,0.001930
44.443,52.6419,0.001930
44.459,52.6649,0.001930
44.476,52.6895,0.001930
44.492,52.7116,0.001930
44.508,52.7350,0.001779
44.523,52.7582,0.001779
44.540,52.7829,0.001779
44.555,52.8063,0.001779
44.571,52.8306,0.001779
44.588,52.8556,0.001779
44.615,52.8972,0.001779
44.630,52.9224,0.001779
44.646,52.9477,0.001779
44.664,52.9743,0.001779
44.685,53.0082,0.001779
44.700,53.0330,0.001779
44.730,53.0828,0.001779
44.761,53.1335,0.001657
44.777,53.1618,0.001657
44.808,53.2120,0.001657
44.823,53.2384,0.001657
44.839,53.2646,0.001657
44.854,53.2923,0.001657
44.870,53.3193,0.001657
44.886,53.3476,0.001657
44.903,53.3775,0.001657
44.918,53.4041,0.001657
44.934,53.4329,0.001657
44.950,53.4614,0.001657
44.969,53.4964,0.001657
44.994,53.5415,0.001440
45.014,53.5795,0.001440
45.031,53.6106,0.001440
45.046,53.6388,0.001440
45.063,53.6695,0.001440
45.078,53.6999,0.001440
45.094,53.7303,0.001440
45.111,53.7611,0.001440
45.126,53.7913,0.001440
45.150,53.8376,0.001440
45.166,53.8698,0.001440
45.195,53.9273,0.001440
45.214,53.9650,0.001440
45.241,54.0200,0.001205
45.261,54.0606,0.001205
45.278,54.0952,0.001205
45.293,54.1264,0.001205
45.310,54.1614,0.001205
45.326,54.1956,0.001205
45.342,54.2285,0.001205
45.357,54.2601,0.001205
45.373,54.2941,0.001205
45.389,54.3290,0.001205
45.405,54.3622,0.001205
45.421,54.3958,0.001205
45.437,54.4297,0.001205
45.453,54.4625,0.001205
45.469,54.4968,0.001205
45.485,54.5283,0.001092
45.501,54.5609,0.001092
45.518,54.5965,0.001092
45.542,54.6444,0.001092
45.566,54.6925,0.001092
45.582,54.7256,0.001092
45.598,54.7549,0.001092
45.614,54.7855,0.001092
45.629,54.8154,0.001092
45.648,54.8523,0.001092
45.675,54.9055,0.001092
45.705,54.9610,0.001092
45.722,54.9917,0.001092
45.737,55.0206,0.000998
45.753,55.0499,0.000998
45.769,55.0796,0.000998
45.785,55.1093,0.000998
45.801,55.1375,0.000998
45.817,55.1672,0.000998
45.833,55.1961,0.000998
45.849,55.2239,0.000998
45.865,55.2526,0.000998
45.881,55.2805,0.000998
45.898,55.3097,0.000998
45.913,55.3357,0.000998
45.929,55.3649,0.000998
45.945,55.3905,0.000998
45.961,55.4176,0.000998
45.977,55.4442,0.000998
45.993,55.4707,0.000875
46.010,55.4991,0.000875
46.025,55.5245,0.000875
46.041,55.5502,0.000875
46.057,55.5759,0.000875
46.073,55.6022,0.000875
46.089,55.6276,0.000875
46.105,55.6528,0.000875
46.121,55.6778,0.000875
46.138,55.7046,0.000875
46.153,55.7277,0.000875
46.169,55.7532,0.000875
46.185,55.7764,0.000875
46.201,55.8024,0.000875
46.226,55.8391,0.000875
46.242,55.8628,0.000875
46.258,55.8851,0.000725
46.274,55.9100,0.000725
46.290,55.9317,0.000725
46.306,55.9547,0.000725
46.322,55.9779,0.000725
46.338,56.0012,0.000725
46.354,56.0220,0.000725
46.370,56.0443,0.000725
46.386,56.0667,0.000725
46.402,56.0884,0.000725
46.418,56.1094,0.000725
46.433,56.1309,0.000725
46.451,56.1541,0.000725
46.466,56.1738,0.000725
46.482,56.1949,0.000593
46.497,56.2154,0.000593
46.522,56.2461,0.000593
46.544,56.2732,0.000593
46.562,56.2951,0.000593
46.578,56.3156,0.000593
46.594,56.3342,0.000593
46.610,56.3533,0.000593
46.626,56.3724,0.000593
46.642,56.3921,0.000593
46.659,56.4109,0.000593
46.674,56.4289,0.000593
46.690,56.4470,0.000593
46.706,56.4651,0.000593
46.722,56.4828,0.000593
46.738,56.5004,0.000593
46.761,56.5270,0.000480
46.777,56.5430,0.000480
46.793,56.5601,0.000480
46.809,56.5765,0.000480
46.825,56.5944,0.000480
46.840,56.6099,0.000480
46.857,56.6265,0.000480
46.873,56.6419,0.000480
46.889,56.6585,0.000480
46.905,56.6740,0.000480
46.921,56.6894,0.000480
46.937,56.7046,0.000480
46.953,56.7201,0.000480
46.975,56.7412,0.000480
46.991,56.7552,0.000339
47.007,56.7697,0.000339
47.037,56.7968,0.000339
47.054,56.8105,0.000339
47.085,56.8367,0.000339
47.100,56.8500,0.000339
47.131,56.8752,0.000339
47.152,56.8914,0.000339
47.178,56.9116,0.000339
47.208,56.9340,0.000339
47.225,56.9468,0.000292
47.240,56.9580,0.000292
47.257,56.9699,0.000292
47.273,56.9808,0.000292
47.288,56.9916,0.000292
47.316,57.0100,0.000292
47.332,57.0206,0.000292
47.347,57.0308,0.000292
47.363,57.0406,0.000292
47.381,57.0518,0.000292
47.408,57.0683,0.000292
47.427,57.0792,0.000292
47.444,57.0887,0.000292
47.460,57.0978,0.000292
47.476,57.1066,0.000188
47.491,57.1147,0.000188
47.508,57.1235,0.000188
47.524,57.1318,0.000188
47.539,57.1392,0.000188
47.555,57.1470,0.000188
47.573,57.1556,0.000188
47.593,57.1648,0.000188
47.625,57.1788,0.000188
47.654,57.1908,0.000188
47.670,57.1976,0.000188
47.701,57.2092,0.000188
47.732,57.2203,0.000019
47.748,57.2255,0.000019
47.764,57.2311,0.000019
47.780,57.2359,0.000019
47.795,57.2408,0.000019
47.811,57.2455,0.000019
47.827,57.2500,0.000019
47.844,57.2546,0.000019
47.869,57.2608,0.000019
47.885,57.2646,0.000019
47.901,57.2683,0.000019
47.917,57.2717,0.000019
47.934,57.2750,0.000019
47.949,57.2780,0.000019
47.965,57.2807,-0.000311
47.981,57.2833,-0.000311
48.004,57.2869,-0.000311
48.024,57.2894,-0.000311
48.039,57.2913,-0.000311
48.055,57.2931,-0.000311
48.077,57.2951,-0.000311
48.093,57.2963,-0.000311
48.109,57.2975,-0.000311
48.125,57.2985,-0.000311
48.141,57.2991,-0.000311
48.157,57.2997,-0.000311
48.174,57.2999,-0.000311
48.189,57.3001,-0.000311
48.205,57.3001,-0.000311
48.221,57.3001,-0.000697
48.237,57.3001,-0.000697
48.253,57.3001,-0.000697
48.269,57.3001,-0.000697
48.285,57.3001,-0.000697
48.301,57.3001,-0.000697
48.318,57.3001,-0.000697
48.333,57.3001,-0.000697
48.349,57.3001,-0.000697
48.367,57.3001,-0.000697
48.395,57.3001,-0.000697
48.425,57.3001,-0.000697
48.443,57.3001,-0.000697
48.473,57.3001,-0.000508
48.504,57.3001,-0.000508
48.520,57.3001,-0.000508
48.536,57.3001,-0.000508
48.554,57.3001,-0.000508
48.581,57.3001,-0.000508
48.600,57.3001,-0.000508
48.617,57.3001,-0.000508
48.632,57.3001,-0.000508
48.648,57.3001,-0.000508
48.664,57.3001,-0.000508
48.680,57.3001,-0.000508
48.696,57.3001,-0.000508
48.712,57.3001,-0.000132
48.728,57.3001,-0.000132
48.744,57.3001,-0.000132
48.760,57.3001,-0.000132
48.776,57.3001,-0.000132
48.793,57.3001,-0.000132
48.812,57.3001,-0.000132
48.842,57.3001,-0.000132
48.857,57.3001,-0.000132
48.889,57.3001,-0.000132
48.905,57.3001,-0.000132
48.935,57.3001,-0.000132
48.964,57.3001,-0.000132
48.980,57.3001,-0.000132
48.996,57.3001,0.000019
49.012,57.3001,0.000019
49.030,57.3001,0.000019
49.058,57.3001,0.000019
49.076,57.3001,0.000019
49.092,57.3001,0.000019
49.108,57.3001,0.000019
49.124,57.3001,0.000019
49.140,57.3001,0.000019
49.156,57.3001,0.000019
49.172,57.3001,0.000019
49.188,57.3001,0.000019
49.205,57.3001,0.000019
49.224,57.3001,0.000019
49.239,57.3001,0.000019
49.261,57.3001,0.000019
49.292,57.3001,0.000104
49.322,57.3001,0.000104
49.337,57.3001,0.000104
49.353,57.3001,0.000104
49.383,57.3001,0.000104
49.415,57.3001,0.000104
49.431,57.3001,0.000104
49.463,57.3001,0.000104
49.493,57.3001,0.000104
49.522,57.3001,0.000113
49.538,57.3001,0.000113
49.554,57.3001,0.000113
49.570,57.3001,0.000113
49.586,57.3001,0.000113
49.601,57.3001,0.000113
49.617,57.3001,0.000113
49.634,57.3001,0.000113
49.650,57.3001,0.000113
49.666,57.3001,0.000113
49.681,57.3001,0.000113
49.698,57.3001,0.000113
49.714,57.3001,0.000113
49.729,57.3001,0.000113
49.746,57.3001,0.000113
49.762,57.3001,0.000113
49.783,57.3001,0.000113
49.805,57.3001,0.000113
49.825,57.3001,0.000113
49.844,57.3001,0.000113
49.867,57.3001,0.000113
49.883,57.3001,0.000113
49.914,57.3001,0.000113
49.929,57.3001,0.000113
49.945,57.3001,0.000113
49.976,57.3001,0.000113
50.006,57.3001,0.000085
50.036,57.3001,0.000085
50.068,57.3001,0.000085
50.098,57.3001,0.000085
50.129,57.3001,0.000085
50.147,57.3001,0.000085
50.177,57.3001,0.000085
50.193,57.3001,0.000085
50.216,57.3001,0.000085
50.239,57.3001,0.000085
50.257,57.3001,0.000085
50.274,57.3001,0.000085
50.301,57.3001,0.000085
50.322,57.3001,0.000085
50.337,57.3001,0.000085
50.354,57.3001,0.000085
50.369,57.3001,0.000085
50.386,57.3001,0.000085
50.402,57.3001,0.000085
50.417,57.3001,0.000085
50.433,57.3001,0.000085
50.449,57.3001,0.000085
50.466,57.3001,0.000085
50.481,57.3001,0.000122
50.497,57.3001,0.000122
50.513,57.3001,0.000122
50.529,57.3001,0.000122
50.545,57.3001,0.000122
50.577,57.3001,0.000122
50.592,57.3001,0.000122
50.608,57.3001,0.000122
50.624,57.3001,0.000122
50.641,57.3001,0.000122
50.656,57.3001,0.000122
50.672,57.3001,0.000122
50.688,57.3001,0.000122
50.705,57.3001,0.000122
50.720,57.3001,0.000122
50.737,57.3001,0.000151
50.752,57.3001,0.000151
50.773,57.3001,0.000151
50.795,57.3001,0.000151
50.817,57.3001,0.000151
50.832,57.3001,0.000151
50.848,57.3001,0.000151
50.864,57.3001,0.000151
50.880,57.3001,0.000151
50.896,57.3001,0.000151
50.912,57.3001,0.000151
50.928,57.3001,0.000151
50.944,57.3001,0.000151
50.961,57.3001,0.000151
50.976,57.3001,0.000075
50.992,57.3001,0.000075
51.008,57.3001,0.000075
51.024,57.3001,0.000075
51.040,57.3001,0.000075
51.056,57.3001,0.000075
51.072,57.3001,0.000075
51.089,57.3001,0.000075
51.104,57.3001,0.000075
51.134,57.3001,0.000075
51.150,57.3001,0.000075
51.165,57.3001,0.000075
51.181,57.3001,0.000075
51.205,57.3001,0.000075
51.228,57.3001,0.000075
51.245,57.3001,0.000047
51.261,57.3001,0.000047
51.277,57.3001,0.000047
51.294,57.3001,0.000047
51.320,57.3001,0.000047
51.341,57.3001,0.000047
51.357,57.3001,0.000047
51.373,57.3001,0.000047
51.389,57.3001,0.000047
51.405,57.3001,0.000047
51.421,57.3001,0.000047
51.438,57.3001,0.000047
51.453,57.3001,0.000047
51.469,57.3001,0.000075
51.485,57.3001,0.000075
51.501,57.3001,0.000075
51.517,57.3001,0.000075
51.533,57.3001,0.000075
51.549,57.3001,0.000075
51.565,57.3001,0.000075
51.581,57.3001,0.000075
51.597,57.3001,0.000075
51.613,57.3001,0.000075
51.632,57.3001,0.000075
51.660,57.3001,0.000075
51.691,57.3001,0.000075
51.708,57.3001,0.000075
51.723,57.3001,0.000056
51.739,57.3001,0.000056
51.755,57.3001,0.000056
51.771,57.3001,0.000056
51.787,57.3001,0.000056
51.803,57.3001,0.000056
51.819,57.3001,0.000056
51.835,57.3001,0.000056
51.851,57.3001,0.000056
51.867,57.3001,0.000056
51.884,57.3001,0.000056
51.899,57.3001,0.000056
51.915,57.3001,0.000056
51.931,57.3001,0.000056
51.947,57.3001,0.000056
51.963,57.3001,0.000056
51.979,57.3001,0.000075
51.996,57.3001,0.000075
52.012,57.3001,0.000075
52.027,57.3001,0.000075
52.043,57.3001,0.000075
52.059,57.3001,0.000075
52.076,57.3001,0.000075
52.095,57.3001,0.000075
52.126,57.3001,0.000075
52.157,57.3001,0.000075
52.188,57.3001,0.000075
52.212,57.3001,0.000075
52.229,57.3001,0.000075
52.250,57.3001,0.000019
52.265,57.3001,0.000019
52.281,57.3001,0.000019
52.313,57.3001,0.000019
52.344,57.3001,0.000019
52.359,57.3001,0.000019
52.375,57.3001,0.000019
52.406,57.3001,0.000019
52.421,57.3001,0.000019
52.452,57.3001,0.000019
52.467,57.3001,-0.000009
52.484,57.3001,-0.000009
52.501,57.3001,-0.000009
52.529,57.3001,-0.000009
52.547,57.3001,-0.000009
52.565,57.3001,-0.000009
52.591,57.3001,-0.000009
52.612,57.3001,-0.000009
52.628,57.3001,-0.000009
52.644,57.3001,-0.000009
52.659,57.3001,-0.000009
52.676,57.3001,-0.000009
52.692,57.3001,-0.000009
52.707,57.3001,-0.000009
52.724,57.3001,-0.000009
52.746,57.3001,0.000028
52.763,57.3001,0.000028
52.782,57.3001,0.000028
52.807,57.3001,0.000028
52.825,57.3001,0.000028
52.841,57.3001,0.000028
52.857,57.3001,0.000028
52.874,57.3001,0.000028
52.890,57.3001,0.000028
52.906,57.3001,0.000028
52.922,57.3001,0.000028
52.938,57.3001,0.000028
52.955,57.3001,0.000028
52.976,57.3001,-0.000104
53.007,57.3001,-0.000104
53.037,57.3001,-0.000104
53.068,57.3001,-0.000104
53.083,57.3001,-0.000104
53.099,57.3001,-0.000104
53.114,57.3001,-0.000104
53.130,57.3001,-0.000104
53.146,57.3001,-0.000104
53.161,57.3001,-0.000104
53.178,57.3001,-0.000104
53.193,57.3001,-0.000104
53.210,57.3001,-0.000235
53.225,57.3001,-0.000235
53.242,57.2999,-0.000235
53.270,57.2993,-0.000235
53.289,57.2986,-0.000235
53.306,57.2977,-0.000235
53.321,57.2967,-0.000235
53.338,57.2954,-0.000235
53.355,57.2939,-0.000235
53.372,57.2920,-0.000235
53.393,57.2897,-0.000235
53.423,57.2854,-0.000235
53.454,57.2806,-0.000235
53.485,57.2748,-0.000235
53.517,57.2683,0.000151
53.548,57.2610,0.000151
53.578,57.2532,0.000151
53.595,57.2487,0.000151
53.625,57.2399,0.000151
53.641,57.2351,0.000151
53.659,57.2294,0.000151
53.674,57.2245,0.000151
53.689,57.2192,0.000151
53.705,57.2135,0.000151
53.722,57.2072,0.000151
53.738,57.2015,0.000151
53.753,57.1953,0.002975
53.769,57.1888,0.002975
53.788,57.1805,0.002975
53.812,57.1706,0.002975
53.843,57.1564,0.002975
53.859,57.1486,0.002975
53.881,57.1382,0.002975
53.897,57.1302,0.002975
53.913,57.1216,0.002975
53.930,57.1134,0.002975
53.945,57.1050,0.002975
53.961,57.0959,0.002975
53.978,57.0870,0.002975
53.993,57.0781,0.005676
54.009,57.0684,0.005676
54.025,57.0587,0.005676
54.041,57.0493,0.005676
54.058,57.0388,0.005676
54.073,57.0288,0.005676
54.089,57.0188,0.005676
54.105,57.0077,0.005676
54.121,56.9972,0.005676
54.137,56.9864,0.005676
54.153,56.9755,0.005676
54.170,56.9632,0.005676
54.199,56.9420,0.005676
54.218,56.9282,0.005676
54.233,56.9170,0.005676
54.249,56.9047,0.007079
54.265,56.8920,0.007079
54.282,56.8790,0.007079
54.297,56.8669,0.007079
54.314,56.8531,0.007079
54.329,56.8404,0.007079
54.359,56.8149,0.007079
54.374,56.8020,0.007079
54.390,56.7882,0.007079
54.406,56.7737,0.007079
54.422,56.7593,0.007079
54.438,56.7451,0.007079
54.454,56.7298,0.007079
54.470,56.7148,0.007079
54.487,56.6995,0.007079
54.502,56.6852,0.010853
54.518,56.6690,0.010853
54.534,56.6529,0.010853
54.550,56.6377,0.010853
54.566,56.6213,0.010853
54.582,56.6049,0.010853
54.598,56.5887,0.010853
54.614,56.5721,0.010853
54.630,56.5549,0.010853
54.646,56.5381,0.010853
54.662,56.5200,0.010853
54.678,56.5028,0.010853
54.694,56.4852,0.010853
54.710,56.4671,0.010853
54.726,56.4490,0.010853
54.742,56.4318,0.007041
54.758,56.4131,0.007041
54.775,56.3935,0.007041
54.802,56.3607,0.007041
54.822,56.3372,0.007041
54.838,56.3176,0.007041
54.854,56.2986,0.007041
54.870,56.2771,0.007041
54.895,56.2466,0.007041
54.911,56.2271,0.007041
54.927,56.2064,0.007041
54.943,56.1853,0.007041
54.959,56.1649,0.007041
54.976,56.1428,0.007041
55.003,56.1062,0.000584
55.024,56.0783,0.000584
55.039,56.0578,0.000584
55.055,56.0358,0.000584
55.071,56.0134,0.000584
55.087,55.9899,0.000584
55.103,55.9681,0.000584
55.119,55.9459,0.000584
55.135,55.9227,0.000584
55.152,55.8976,0.000584
55.169,55.8706,0.000584
55.189,55.8425,0.000584
55.221,55.7948,0.000584
55.251,55.7493,0.000565
55.282,55.7012,0.000565
55.298,55.6764,0.000565
55.328,55.6290,0.000565
55.359,55.5801,0.000565
55.375,55.5533,0.000565
55.391,55.5268,0.000565
55.407,55.5019,0.000565
55.423,55.4753,0.000565
55.452,55.4262,0.000565
55.475,55.3876,0.000565
55.498,55.3481,0.000584
55.515,55.3195,0.000584
55.531,55.2916,0.000584
55.547,55.2631,0.000584
55.563,55.2345,0.000584
55.579,55.2052,0.000584
55.595,55.1780,0.000584
55.611,55.1485,0.000584
55.626,55.1211,0.000584
55.646,55.0827,0.000584
55.670,55.0409,0.000584
55.691,55.0028,0.000584
55.707,54.9718,0.000584
55.723,54.9416,0.000584
55.738,54.9130,0.000762
55.755,54.8815,0.000762
55.771,54.8491,0.000762
55.787,54.8197,0.000762
55.802,54.7900,0.000762
55.819,54.7570,0.000762
55.837,54.7215,0.000762
55.855,54.6855,0.000762
55.886,54.6239,0.000762
55.902,54.5920,0.000762
55.917,54.5601,0.000762
55.949,54.4958,0.000762
55.965,54.4624,0.000762
55.980,54.4317,0.000762
55.995,54.3984,0.000762
56.011,54.3670,0.000941
56.026,54.3340,0.000941
56.042,54.3001,0.000941
56.058,54.2661,0.000941
56.074,54.2314,0.000941
56.091,54.1971,0.000941
56.107,54.1619,0.000941
56.122,54.1306,0.000941
56.139,54.0956,0.000941
56.166,54.0389,0.000941
56.187,53.9976,0.000941
56.202,53.9642,0.000941
56.219,53.9331,0.000941
56.235,53.9006,0.000970
56.251,53.8672,0.000970
56.267,53.8372,0.000970
56.283,53.8048,0.000970
56.298,53.7753,0.000970
56.315,53.7431,0.000970
56.331,53.7117,0.000970
56.346,53.6821,0.000970
56.363,53.6507,0.000970
56.379,53.6205,0.000970
56.395,53.5895,0.000970
56.410,53.5606,0.000970
56.426,53.5306,0.000970
56.443,53.5009,0.000970
56.459,53.4712,0.000970
56.475,53.4412,0.000970
56.506,53.3851,0.001101
56.522,53.3558,0.001101
56.538,53.3282,0.001101
56.554,53.3012,0.001101
56.571,53.2704,0.001101
56.600,53.2194,0.001101
56.617,53.1910,0.001101
56.633,53.1631,0.001101
56.649,53.1362,0.001101
56.664,53.1103,0.001101
56.680,53.0838,0.001101
56.699,53.0528,0.001101
56.724,53.0108,0.001290
56.744,52.9785,0.001290
56.761,52.9524,0.001290
56.776,52.9266,0.001290
56.793,52.9015,0.001290
56.809,52.8753,0.001290
56.832,52.8389,0.001290
56.863,52.7917,0.001290
56.894,52.7446,0.001290
56.924,52.6997,0.001290
56.940,52.6765,0.001290
56.971,52.6306,0.001478
56.986,52.6085,0.001478
57.002,52.5868,0.001478
57.018,52.5639,0.001478
57.034,52.5417,0.001478
57.061,52.5041,0.001478
57.077,52.4819,0.001478
57.093,52.4601,0.001478
57.110,52.4374,0.001478
57.125,52.4165,0.001478
57.141,52.3957,0.001478
57.157,52.3753,0.001478
57.173,52.3546,0.001478
57.189,52.3335,0.001478
57.205,52.3131,0.001478
57.221,52.2932,0.001704
57.237,52.2733,0.001704
57.253,52.2532,0.001704
57.269,52.2338,0.001704
57.285,52.2137,0.001704
57.301,52.1948,0.001704
57.317,52.1758,0.001704
57.333,52.1566,0.001704
57.349,52.1387,0.001704
57.365,52.1202,0.001704
57.385,52.0982,0.001704
57.404,52.0755,0.001704
57.419,52.0592,0.001704
57.450,52.0251,0.001704
57.466,52.0076,0.001892
57.496,51.9761,0.001892
57.528,51.9430,0.001892
57.543,51.9275,0.001892
57.575,51.8957,0.001892
57.604,51.8671,0.001892
57.628,51.8438,0.001892
57.643,51.8303,0.001892
57.666,51.8087,0.001892
57.685,51.7908,0.001892
57.701,51.7772,0.001892
57.717,51.7622,0.001986
57.733,51.7493,0.001986
57.754,51.7299,0.001986
57.775,51.7127,0.001986
57.797,51.6951,0.001986
57.814,51.6798,0.001986
57.837,51.6630,0.001986
57.868,51.6389,0.001986
57.883,51.6265,0.001986
57.915,51.6038,0.001986
57.930,51.5924,0.001986
57.961,51.5706,0.001986
57.976,51.5601,0.002024
57.992,51.5495,0.002024
58.023,51.5285,0.002024
58.054,51.5090,0.002024
58.077,51.4949,0.002024
58.100,51.4811,0.002024
58.117,51.4713,0.002024
58.133,51.4620,0.002024
58.149,51.4529,0.002024
58.165,51.4443,0.002024
58.181,51.4359,0.002024
58.199,51.4263,0.002024
58.225,51.4129,0.002043
58.245,51.4029,0.002043
58.261,51.3953,0.002043
58.278,51.3877,0.002043
58.301,51.3773,0.002043
58.317,51.3705,0.002043
58.332,51.3644,0.002043
58.348,51.3576,0.002043
58.378,51.3462,0.002043
58.408,51.3348,0.002043
58.439,51.3242,0.002043
58.455,51.3188,0.002043
58.485,51.3091,0.002061
58.501,51.3049,0.002061
58.517,51.3003,0.002061
58.533,51.2960,0.002061
58.549,51.2918,0.002061
58.566,51.2878,0.002061
58.592,51.2817,0.002061
58.613,51.2774,0.002061
58.630,51.2739,0.002061
58.655,51.2696,0.002061
58.685,51.2646,0.002061
58.715,51.2605,0.002061
58.731,51.2586,0.002071
58.747,51.2569,0.002071
58.763,51.2554,0.002071
58.794,51.2529,0.002071
58.809,51.2521,0.002071
58.825,51.2512,0.002071
58.856,51.2503,0.002071
58.871,51.2501,0.002071
58.887,51.2501,0.002071
58.917,51.2501,0.002071
58.948,51.2501,0.002071
58.964,51.2501,0.002099
58.981,51.2501,0.002099
58.997,51.2502,0.002099
59.012,51.2503,0.002099
59.028,51.2508,0.002099
59.044,51.2514,0.002099
59.067,51.2528,0.002099
59.090,51.2543,0.002099
59.108,51.2559,0.002099
59.125,51.2576,0.002099
59.140,51.2594,0.002099
59.158,51.2615,0.002099
59.182,51.2650,0.002099
59.198,51.2674,0.002099
59.216,51.2705,0.002099
59.232,51.2734,0.002099
59.248,51.2765,0.002071
59.264,51.2798,0.002071
59.281,51.2834,0.002071
59.296,51.2869,0.002071
59.312,51.2909,0.002071
59.330,51.2953,0.002071
59.345,51.2994,0.002071
59.368,51.3060,0.002071
59.399,51.3153,0.002071
59.430,51.3254,0.002071
59.446,51.3309,0.002071
59.464,51.3375,0.002071
59.493,51.3482,0.002090
59.509,51.3543,0.002090
59.525,51.3608,0.002090
59.556,51.3737,0.002090
59.586,51.3876,0.002090
59.601,51.3943,0.002090
59.632,51.4092,0.002090
59.651,51.4191,0.002090
59.678,51.4326,0.002090
59.697,51.4422,0.002090
59.713,51.4510,0.002090
59.729,51.4602,0.002090
59.755,51.4754,0.002127
59.772,51.4851,0.002127
59.788,51.4947,0.002127
59.803,51.5040,0.002127
59.825,51.5178,0.002127
59.841,51.5285,0.002127
59.863,51.5430,0.002127
59.884,51.5565,0.002127
59.900,51.5672,0.002127
59.915,51.5782,0.002127
59.931,51.5898,0.002127
59.949,51.6024,0.002127
59.973,51.6203,0.002127
60.003,51.6432,0.002109
60.020,51.6565,0.002109
60.050,51.6811,0.002109
60.066,51.6931,0.002109
60.097,51.7191,0.002109
60.128,51.7454,0.002109
60.143,51.7588,0.002109
60.159,51.7728,0.002109
60.175,51.7872,0.002109
60.192,51.8021,0.002109
60.221,51.8298,0.002033
60.252,51.8598,0.002033
60.268,51.8747,0.002033
60.283,51.8890,0.002033
60.313,51.9188,0.002033
60.329,51.9354,0.002033
60.345,51.9517,0.002033
60.361,51.9681,0.002033
60.377,51.9855,0.002033
60.393,52.0018,0.002033
60.409,52.0188,0.002033
60.425,52.0359,0.002033
60.441,52.0540,0.002033
60.457,52.0712,0.002033
60.473,52.0896,0.001939
60.489,52.1073,0.001939
60.508,52.1288,0.001939
60.531,52.1561,0.001939
60.546,52.1748,0.001939
60.577,52.2114,0.001939
60.608,52.2490,0.001939
60.639,52.2863,0.001939
60.669,52.3255,0.001939
60.684,52.3443,0.001939
60.715,52.3843,0.001892
60.730,52.4039,0.001892
60.760,52.4444,0.001892
60.777,52.4669,0.001892
60.793,52.4885,0.001892
60.809,52.5108,0.001892
60.825,52.5331,0.001892
60.841,52.5551,0.001892
60.868,52.5931,0.001892
60.884,52.6161,0.001892
60.900,52.6395,0.001892
60.916,52.6625,0.001892
60.933,52.6884,0.001892
60.961,52.7294,0.001741
60.980,52.7577,0.001741
60.997,52.7833,0.001741
61.024,52.8247,0.001741
61.044,52.8558,0.001741
61.061,52.8821,0.001741
61.076,52.9064,0.001741
61.092,52.9313,0.001741
61.108,52.9569,0.001741
61.124,52.9834,0.001741
61.140,53.0095,0.001741
61.156,53.0349,0.001741
61.172,53.0619,0.001741
61.188,53.0889,0.001741
61.204,53.1149,0.001741
61.220,53.1419,0.001581
61.236,53.1702,0.001581
61.252,53.1970,0.001581
61.267,53.2239,0.001581
61.284,53.2522,0.001581
61.300,53.2801,0.001581
61.316,53.3081,0.001581
61.332,53.3359,0.001581
61.348,53.3644,0.001581
61.364,53.3930,0.001581
61.380,53.4236,0.001581
61.396,53.4514,0.001581
61.424,53.5026,0.001581
61.439,53.5330,0.001581
61.456,53.5632,0.001581
61.472,53.5929,0.001365
61.488,53.6228,0.001365
61.504,53.6534,0.001365
61.519,53.6830,0.001365
61.535,53.7142,0.001365
61.552,53.7459,0.001365
61.568,53.7778,0.001365
61.584,53.8076,0.001365
61.600,53.8402,0.001365
61.615,53.8713,0.001365
61.632,53.9041,0.001365
61.648,53.9359,0.001365
61.664,53.9693,0.001365
61.680,54.0027,0.001365
61.696,54.0345,0.001365
61.712,54.0667,0.001365
61.727,54.0990,0.001365
61.744,54.1328,0.001365
61.759,54.1656,0.001139
61.776,54.2004,0.001139
61.792,54.2350,0.001139
61.808,54.2683,0.001139
61.823,54.3009,0.001139
61.840,54.3353,0.001139
61.855,54.3683,0.001139
61.871,54.4020,0.001139
61.887,54.4349,0.001139
61.904,54.4689,0.001139
61.920,54.5014,0.001139
61.936,54.5337,0.001139
61.951,54.5651,0.001139
61.968,54.5975,0.001139
61.983,54.6297,0.001139
61.999,54.6626,0.001130
62.016,54.6947,0.001130
62.032,54.7248,0.001130
62.048,54.7571,0.001130
62.063,54.7869,0.001130
62.079,54.8169,0.001130
62.097,54.8516,0.001130
62.124,54.9020,0.001130
62.143,54.9384,0.001130
62.160,54.9689,0.001130
62.175,54.9978,0.001130
62.191,55.0271,0.001130
62.207,55.0564,0.001130
62.223,55.0858,0.001130
62.240,55.1150,0.001130
62.255,55.1431,0.001035
62.272,55.1722,0.001035
62.287,55.2005,0.001035
62.304,55.2297,0.001035
62.319,55.2555,0.001035
62.336,55.2843,0.001035
62.352,55.3122,0.001035
62.367,55.3385,0.001035
62.384,55.3660,0.001035
62.400,55.3942,0.001035
62.415,55.4193,0.001035
62.431,55.4457,0.001035
62.447,55.4720,0.001035
62.464,55.5017,0.001035
62.496,55.5508,0.001035
62.512,55.5770,0.001035
62.528,55.6028,0.000838
62.544,55.6272,0.000838
62.560,55.6522,0.000838
62.576,55.6772,0.000838
62.592,55.7013,0.000838
62.607,55.7246,0.000838
62.622,55.7475,0.000838
62.639,55.7732,0.000838
62.655,55.7969,0.000838
62.670,55.8190,0.000838
62.686,55.8424,0.000838
62.702,55.8661,0.000838
62.719,55.8905,0.000838
62.734,55.9116,0.000838
62.751,55.9352,0.000734
62.767,55.9574,0.000734
62.783,55.9797,0.000734
62.798,56.0012,0.000734
62.815,56.0234,0.000734
62.830,56.0446,0.000734
62.848,56.0686,0.000734
62.871,56.0991,0.000734
62.886,56.1192,0.000734
62.902,56.1398,0.000734
62.917,56.1605,0.000734
62.933,56.1794,0.000734
62.949,56.2000,0.000734
62.979,56.2382,0.000734
62.995,56.2565,0.000734
63.026,56.2947,0.000612
63.057,56.3313,0.000612
63.072,56.3496,0.000612
63.089,56.3699,0.000612
63.120,56.4047,0.000612
63.135,56.4212,0.000612
63.153,56.4417,0.000612
63.181,56.4727,0.000612
63.198,56.4909,0.000612
63.216,56.5094,0.000612
63.243,56.5374,0.000461
63.262,56.5577,0.000461
63.280,56.5755,0.000461
63.305,56.6008,0.000461
63.326,56.6219,0.000461
63.343,56.6380,0.000461
63.366,56.6602,0.000461
63.397,56.6891,0.000461
63.412,56.7034,0.000461
63.443,56.7304,0.000461
63.474,56.7573,0.000461
63.490,56.7715,0.000348
63.506,56.7845,0.000348
63.522,56.7984,0.000348
63.544,56.8160,0.000348
63.561,56.8296,0.000348
63.576,56.8416,0.000348
63.592,56.8543,0.000348
63.608,56.8664,0.000348
63.624,56.8784,0.000348
63.640,56.8903,0.000348
63.656,56.9020,0.000348
63.672,56.9135,0.000348
63.688,56.9249,0.000348
63.704,56.9361,0.000348
63.721,56.9476,0.000348
63.736,56.9579,0.000301
63.753,56.9692,0.000301
63.770,56.9798,0.000301
63.798,56.9975,0.000301
63.816,57.0085,0.000301
63.832,57.0183,0.000301
63.848,57.0275,0.000301
63.864,57.0368,0.000301
63.880,57.0457,0.000301
63.896,57.0546,0.000301
63.912,57.0634,0.000301
63.928,57.0714,0.000301
63.944,57.0799,0.000301
63.960,57.0882,0.000301
63.976,57.0957,0.000301
63.992,57.1031,0.000122
64.008,57.1109,0.000122
64.024,57.1180,0.000122
64.040,57.1251,0.000122
64.056,57.1318,0.000122
64.072,57.1385,0.000122
64.088,57.1449,0.000122
64.104,57.1512,0.000122
64.120,57.1574,0.000122
64.143,57.1665,0.000122
64.167,57.1741,0.000122
64.184,57.1800,0.000122
64.200,57.1851,0.000122
64.216,57.1899,0.000122
64.232,57.1946,-0.000141
64.248,57.1992,-0.000141
64.264,57.2036,-0.000141
64.280,57.2075,-0.000141
64.296,57.2115,-0.000141
64.312,57.2152,-0.000141
64.328,57.2190,-0.000141
64.344,57.2222,-0.000141
64.360,57.2255,-0.000141
64.376,57.2285,-0.000141
64.392,57.2314,-0.000141
64.408,57.2340,-0.000141
64.424,57.2362,-0.000141
64.440,57.2386,-0.000141
64.456,57.2405,-0.000141
64.472,57.2424,-0.000537
64.488,57.2440,-0.000537
64.504,57.2454,-0.000537
64.520,57.2466,-0.000537
64.536,57.2477,-0.000537
64.552,57.2486,-0.000537
64.567,57.2492,-0.000537
64.584,57.2497,-0.000537
64.600,57.2500,-0.000537
64.628,57.2501,-0.000537
64.644,57.2501,-0.000537
64.660,57.2501,-0.000537
64.677,57.2501,-0.000537
64.694,57.2501,-0.000537
64.723,57.2501,-0.000734
64.741,57.2501,-0.000734
64.758,57.2501,-0.000734
64.777,57.2501,-0.000734
64.800,57.2501,-0.000734
64.821,57.2501,-0.000734
64.836,57.2501,-0.000734
64.852,57.2501,-0.000734
64.868,57.2501,-0.000734
64.884,57.2501,-0.000734
64.900,57.2501,-0.000734
64.916,57.2501,-0.000734
64.932,57.2501,-0.000734
64.948,57.2501,-0.000734
64.964,57.2501,-0.000452
64.981,57.2501,-0.000452
64.996,57.2501,-0.000452
65.013,57.2501,-0.000452
65.028,57.2501,-0.000452
65.045,57.2501,-0.000452
65.060,57.2501,-0.000452
65.077,57.2501,-0.000452
65.093,57.2501,-0.000452
65.108,57.2501,-0.000452
65.132,57.2501,-0.000452
65.155,57.2501,-0.000452
65.172,57.2501,-0.000452
65.188,57.2501,-0.000452
65.205,57.2501,-0.000452
65.221,57.2501,-0.000122
65.236,57.2501,-0.000122
65.252,57.2501,-0.000122
65.268,57.2501,-0.000122
65.285,57.2501,-0.000122
65.301,57.2501,-0.000122
65.317,57.2501,-0.000122
65.332,57.2501,-0.000122
65.348,57.2501,-0.000122
65.364,57.2501,-0.000122
65.381,57.2501,-0.000122
65.396,57.2501,-0.000122
65.412,57.2501,-0.000122
65.428,57.2501,-0.000122
65.444,57.2501,-0.000122
65.460,57.2501,-0.000019
65.476,57.2501,-0.000019
65.493,57.2501,-0.000019
65.511,57.2501,-0.000019
65.527,57.2501,-0.000019
65.557,57.2501,-0.000019
65.589,57.2501,-0.000019
65.605,57.2501,-0.000019
65.622,57.2501,-0.000019
65.651,57.2501,-0.000019
65.682,57.2501,-0.000019
65.712,57.2501,0.000038
65.728,57.2501,0.000038
65.747,57.2501,0.000038
65.774,57.2501,0.000038
65.792,57.2501,0.000038
65.809,57.2501,0.000038
65.824,57.2501,0.000038
65.840,57.2501,0.000038
65.856,57.2501,0.000038
65.872,57.2501,0.000038
65.888,57.2501,0.000038
65.904,57.2501,0.000038
65.920,57.2501,0.000038
65.937,57.2501,0.000038
65.952,57.2501,0.000038
65.968,57.2501,0.000113
65.984,57.2501,0.000113
66.010,57.2501,0.000113
66.037,57.2501,0.000113
66.067,57.2501,0.000113
66.098,57.2501,0.000113
66.113,57.2501,0.000113
66.144,57.2501,0.000113
66.160,57.2501,0.000113
66.177,57.2501,0.000113
66.192,57.2501,0.000113
66.208,57.2501,0.000113
66.236,57.2501,0.000075
66.253,57.2501,0.000075
66.269,57.2501,0.000075
66.284,57.2501,0.000075
66.300,57.2501,0.000075
66.316,57.2501,0.000075
66.332,57.2501,0.000075
66.349,57.2501,0.000075
66.370,57.2501,0.000075
66.394,57.2501,0.000075
66.412,57.2501,0.000075
66.429,57.2501,0.000075
66.444,57.2501,0.000075
66.460,57.2501,0.000028
66.476,57.2501,0.000028
66.492,57.2501,0.000028
66.508,57.2501,0.000028
66.524,57.2501,0.000028
66.540,57.2501,0.000028
66.562,57.2501,0.000028
66.578,57.2501,0.000028
66.609,57.2501,0.000028
66.630,57.2501,0.000028
66.656,57.2501,0.000028
66.688,57.2501,0.000028
66.719,57.2501,0.000028
66.749,57.2501,0.000028
66.765,57.2501,0.000056
66.789,57.2501,0.000056
66.811,57.2501,0.000056
66.827,57.2501,0.000056
66.857,57.2501,0.000056
66.873,57.2501,0.000056
66.888,57.2501,0.000056
66.904,57.2501,0.000056
66.935,57.2501,0.000056
66.965,57.2501,0.000056
66.980,57.2501,0.000056
66.996,57.2501,0.000056
67.011,57.2501,0.000056
67.031,57.2501,0.000056
67.059,57.2501,0.000056
67.076,57.2501,0.000056
67.092,57.2501,0.000056
67.108,57.2501,0.000056
67.124,57.2501,0.000056
67.140,57.2501,0.000056
67.156,57.2501,0.000056
67.172,57.2501,0.000056
67.188,57.2501,0.000056
67.204,57.2501,0.000056
67.220,57.2501,0.000056
67.236,57.2501,0.000056
67.253,57.2501,0.000056
67.277,57.2501,0.000056
67.308,57.2501,0.000056
67.339,57.2501,0.000056
67.369,57.2501,0.000056
67.384,57.2501,0.000056
67.400,57.2501,0.000056
67.416,57.2501,0.000056
67.447,57.2501,0.000056
67.478,57.2501,0.000056
67.494,57.2501,0.000038
67.525,57.2501,0.000038
67.541,57.2501,0.000038
67.556,57.2501,0.000038
67.571,57.2501,0.000038
67.587,57.2501,0.000038
67.604,57.2501,0.000038
67.620,57.2501,0.000038
67.636,57.2501,0.000038
67.653,57.2501,0.000038
67.679,57.2501,0.000038
67.700,57.2501,0.000038
67.719,57.2501,0.000038
67.735,57.2501,0.000038
67.757,57.2501,0.000038
67.774,57.2501,0.000047
67.803,57.2501,0.000047
67.834,57.2501,0.000047
67.864,57.2501,0.000047
67.880,57.2501,0.000047
67.896,57.2501,0.000047
67.912,57.2501,0.000047
67.943,57.2501,0.000047
67.960,57.2501,0.000047
67.990,57.2501,0.000066
68.021,57.2501,0.000066
68.052,57.2501,0.000066
68.068,57.2501,0.000066
68.084,57.2501,0.000066
68.100,57.2501,0.000066
68.115,57.2501,0.000066
68.131,57.2501,0.000066
68.147,57.2501,0.000066
68.164,57.2501,0.000066
68.180,57.2501,0.000066
68.195,57.2501,0.000066
68.215,57.2501,0.000066
68.238,57.2501,0.000056
68.259,57.2501,0.000056
68.277,57.2501,0.000056
68.301,57.2501,0.000056
68.317,57.2501,0.000056
68.334,57.2501,0.000056
68.355,57.2501,0.000056
68.371,57.2501,0.000056
68.395,57.2501,0.000056
68.410,57.2501,0.000056
68.426,57.2501,0.000056
68.442,57.2501,0.000056
68.465,57.2501,0.000056
68.487,57.2501,0.000056
68.507,57.2501,0.000038
68.523,57.2501,0.000038
68.550,57.2501,0.000038
68.570,57.2501,0.000038
68.587,57.2501,0.000038
68.611,57.2501,0.000038
68.641,57.2501,0.000038
68.671,57.2501,0.000038
68.702,57.2501,0.000038
68.719,57.2501,0.000038
68.749,57.2501,0.000056
68.764,57.2501,0.000056
68.795,57.2501,0.000056
68.812,57.2501,0.000056
68.842,57.2501,0.000056
68.860,57.2501,0.000056
68.889,57.2501,0.000056
68.917,57.2501,0.000056
68.934,57.2501,0.000056
68.949,57.2501,0.000056
68.965,57.2501,0.000085
68.983,57.2501,0.000085
69.013,57.2501,0.000085
69.029,57.2501,0.000085
69.046,57.2501,0.000085
69.075,57.2501,0.000085
69.095,57.2501,0.000085
69.122,57.2501,0.000085
69.141,57.2501,0.000085
69.157,57.2501,0.000085
69.173,57.2501,0.000085
69.189,57.2501,0.000085
69.206,57.2501,0.000085
69.223,57.2501,0.000085
69.247,57.2501,0.000085
69.277,57.2501,0.000009
69.293,57.2501,0.000009
69.325,57.2501,0.000009
69.355,57.2501,0.000009
69.385,57.2501,0.000009
69.416,57.2501,0.000009
69.432,57.2501,0.000009
69.461,57.2501,0.000009
69.479,57.2501,0.000009
69.509,57.2501,-0.000151
69.525,57.2501,-0.000151
69.555,57.2501,-0.000151
69.572,57.2501,-0.000151
69.588,57.2501,-0.000151
69.604,57.2501,-0.000151
69.620,57.2501,-0.000151
69.636,57.2501,-0.000151
69.653,57.2501,-0.000151
69.668,57.2501,-0.000151
69.684,57.2501,-0.000151
69.700,57.2501,-0.000151
69.716,57.2500,-0.000151
69.732,57.2496,-0.000151
69.748,57.2490,-0.000301
69.764,57.2484,-0.000301
69.780,57.2474,-0.000301
69.796,57.2461,-0.000301
69.812,57.2449,-0.000301
69.828,57.2434,-0.000301
69.844,57.2417,-0.000301
69.860,57.2398,-0.000301
69.876,57.2377,-0.000301
69.892,57.2355,-0.000301
69.908,57.2328,-0.000301
69.924,57.2302,-0.000301
69.940,57.2274,-0.000301
69.956,57.2243,-0.000301
69.972,57.2211,-0.000301
69.988,57.2175,-0.000301
70.020,57.2102,0.000386
70.036,57.2059,0.000386
70.067,57.1975,0.000386
70.083,57.1929,0.000386
70.099,57.1884,0.000386
70.116,57.1831,0.000386
70.144,57.1737,0.000386
70.163,57.1672,0.000386
70.179,57.1614,0.000386
70.195,57.1551,0.000386
70.215,57.1473,0.000386
70.231,57.1414,0.000386
70.253,57.1321,0.000386
70.284,57.1187,0.000386
70.315,57.1046,0.003521
70.345,57.0900,0.003521
70.376,57.0746,0.003521
70.391,57.0662,0.003521
70.422,57.0499,0.003521
70.452,57.0332,0.003521
70.469,57.0235,0.003521
70.499,57.0056,0.005780
70.517,56.9944,0.005780
70.544,56.9771,0.005780
70.576,56.9564,0.005780
70.594,56.9442,0.005780
70.622,56.9251,0.005780
70.639,56.9130,0.005780
70.655,56.9012,0.005780
70.671,56.8897,0.005780
70.687,56.8780,0.005780
70.705,56.8631,0.005780
70.730,56.8445,0.007239
70.750,56.8284,0.007239
70.767,56.8149,0.007239
70.783,56.8021,0.007239
70.798,56.7891,0.007239
70.815,56.7758,0.007239
70.831,56.7616,0.007239
70.847,56.7478,0.007239
70.862,56.7341,0.007239
70.879,56.7195,0.007239
70.894,56.7055,0.007239
70.910,56.6910,0.007239
70.926,56.6761,0.007239
70.942,56.6610,0.007239
70.959,56.6451,0.007239
70.974,56.6305,0.011531
70.991,56.6140,0.011531
71.007,56.5982,0.011531
71.026,56.5799,0.011531
71.056,56.5484,0.011531
71.087,56.5166,0.011531
71.103,56.5000,0.011531
71.129,56.4722,0.011531
71.144,56.4550,0.011531
71.160,56.4374,0.011531
71.176,56.4195,0.011531
71.193,56.4000,0.011531
71.209,56.3825,0.011531
71.225,56.3643,0.007342
71.240,56.3462,0.007342
71.260,56.3234,0.007342
71.288,56.2895,0.007342
71.305,56.2694,0.007342
71.321,56.2496,0.007342
71.337,56.2290,0.007342
71.366,56.1935,0.007342
71.385,56.1691,0.007342
71.400,56.1494,0.007342
71.417,56.1282,0.007342
71.432,56.1078,0.007342
71.450,56.0841,0.007342
71.474,56.0515,0.000499
71.496,56.0218,0.000499
71.513,55.9992,0.000499
71.528,55.9780,0.000499
71.544,55.9559,0.000499
71.560,55.9331,0.000499
71.577,55.9099,0.000499
71.592,55.8878,0.000499
71.609,55.8640,0.000499
71.624,55.8412,0.000499
71.650,55.8032,0.000499
71.666,55.7784,0.000499
71.683,55.7541,0.000499
71.699,55.7296,0.000499
71.720,55.6976,0.000574
71.736,55.6723,0.000574
71.752,55.6487,0.000574
71.782,55.6013,0.000574
71.813,55.5520,0.000574
71.834,55.5183,0.000574
71.859,55.4783,0.000574
71.874,55.4514,0.000574
71.891,55.4255,0.000574
71.906,55.3990,0.000574
71.922,55.3727,0.000574
71.938,55.3448,0.000574
71.954,55.3184,0.000574
71.971,55.2899,0.000668
71.986,55.2635,0.000668
72.004,55.2325,0.000668
72.029,55.1867,0.000668
72.050,55.1501,0.000668
72.066,55.1213,0.000668
72.082,55.0927,0.000668
72.098,55.0647,0.000668
72.114,55.0347,0.000668
72.131,55.0049,0.000668
72.146,54.9751,0.000668
72.162,54.9446,0.000668
72.185,54.9027,0.000668
72.201,54.8729,0.000668
72.217,54.8427,0.000791
72.233,54.8119,0.000791
72.251,54.7777,0.000791
72.270,54.7410,0.000791
72.292,54.6961,0.000791
72.314,54.6540,0.000791
72.330,54.6229,0.000791
72.353,54.5742,0.000791
72.384,54.5128,0.000791
72.400,54.4816,0.000791
72.415,54.4477,0.000791
72.445,54.3866,0.000791
72.461,54.3546,0.000791
72.491,54.2903,0.000979
72.514,54.2430,0.000979
72.538,54.1899,0.000979
72.553,54.1581,0.000979
72.569,54.1256,0.000979
72.585,54.0912,0.000979
72.601,54.0591,0.000979
72.617,54.0252,0.000979
72.633,53.9920,0.000979
72.649,53.9599,0.000979
72.665,53.9266,0.000979
72.681,53.8938,0.000979
72.697,53.8628,0.000979
72.713,53.8304,0.000979
72.737,53.7831,0.001045
72.753,53.7510,0.001045
72.769,53.7189,0.001045
72.785,53.6885,0.001045
72.804,53.6506,0.001045
72.819,53.6218,0.001045
72.835,53.5897,0.001045
72.863,53.5396,0.001045
72.881,53.5048,0.001045
72.897,53.4757,0.001045
72.913,53.4467,0.001045
72.929,53.4155,0.001045
72.945,53.3877,0.001045
72.961,53.3571,0.001092
72.978,53.3283,0.001092
72.998,53.2918,0.001092
73.018,53.2560,0.001092
73.050,53.2012,0.001092
73.079,53.1490,0.001092
73.095,53.1226,0.001092
73.111,53.0957,0.001092
73.143,53.0430,0.001092
73.173,52.9907,0.001092
73.189,52.9654,0.001092
73.223,52.9108,0.001092
73.251,52.8657,0.001092
73.281,52.8180,0.001243
73.303,52.7839,0.001243
73.328,52.7456,0.001243
73.349,52.7142,0.001243
73.375,52.6754,0.001243
73.392,52.6491,0.001243
73.411,52.6219,0.001243
73.435,52.5862,0.001243
73.457,52.5554,0.001243
73.474,52.5314,0.001243
73.489,52.5098,0.001243
73.504,52.4881,0.001478
73.521,52.4658,0.001478
73.537,52.4427,0.001478
73.553,52.4210,0.001478
73.568,52.4004,0.001478
73.585,52.3786,0.001478
73.600,52.3574,0.001478
73.616,52.3363,0.001478
73.633,52.3154,0.001478
73.649,52.2947,0.001478
73.664,52.2736,0.001478
73.681,52.2533,0.001478
73.696,52.2338,0.001478
73.713,52.2131,0.001478
73.728,52.1941,0.001478
73.744,52.1748,0.001723
73.760,52.1553,0.001723
73.777,52.1349,0.001723
73.805,52.1029,0.001723
73.824,52.0800,0.001723
73.840,52.0617,0.001723
73.856,52.0435,0.001723
73.873,52.0250,0.001723
73.889,52.0075,0.001723
73.905,51.9891,0.001723
73.920,51.9728,0.001723
73.936,51.9554,0.001723
73.953,51.9378,0.001723
73.973,51.9166,0.001836
74.004,51.8852,0.001836
74.034,51.8544,0.001836
74.065,51.8239,0.001836
74.080,51.8092,0.001836
74.097,51.7940,0.001836
74.112,51.7788,0.001836
74.128,51.7642,0.001836
74.145,51.7490,0.001836
74.160,51.7350,0.001836
74.177,51.7204,0.001836
74.193,51.7055,0.001836
74.208,51.6927,0.001836
74.225,51.6781,0.001930
74.240,51.6653,0.001930
74.258,51.6507,0.001930
74.281,51.6312,0.001930
74.313,51.6065,0.001930
74.342,51.5832,0.001930
74.358,51.5719,0.001930
74.379,51.5564,0.001930
74.395,51.5444,0.001930
74.411,51.5336,0.001930
74.426,51.5224,0.001930
74.443,51.5108,0.001930
74.459,51.5002,0.001930
74.474,51.4899,0.002033
74.491,51.4790,0.002033
74.507,51.4685,0.002033
74.523,51.4587,0.002033
74.538,51.4490,0.002033
74.554,51.4393,0.002033
74.571,51.4290,0.002033
74.591,51.4170,0.002033
74.607,51.4085,0.002033
74.638,51.3910,0.002033
74.668,51.3756,0.002033
74.699,51.3601,0.002033
74.714,51.3528,0.002071
74.730,51.3448,0.002071
74.754,51.3338,0.002071
74.777,51.3240,0.002071
74.795,51.3164,0.002071
74.811,51.3099,0.002071
74.826,51.3037,0.002071
74.843,51.2972,0.002071
74.859,51.2910,0.002071
74.876,51.2848,0.002071
74.901,51.2761,0.002071
74.922,51.2692,0.002071
74.939,51.2636,0.002071
74.955,51.2591,0.002071
74.970,51.2545,0.002052
74.986,51.2500,0.002052
75.003,51.2455,0.002052
75.018,51.2416,0.002052
75.035,51.2376,0.002052
75.051,51.2337,0.002052
75.067,51.2304,0.002052
75.082,51.2271,0.002052
75.098,51.2240,0.002052
75.114,51.2209,0.002052
75.130,51.2182,0.002052
75.147,51.2156,0.002052
75.162,51.2134,0.002052
75.178,51.2111,0.002052
75.194,51.2092,0.002052
75.210,51.2074,0.002024
75.226,51.2058,0.002024
75.245,51.2042,0.002024
75.272,51.2023,0.002024
75.290,51.2015,0.002024
75.307,51.2007,0.002024
75.322,51.2003,0.002024
75.338,51.2001,0.002024
75.354,51.2001,0.002024
75.370,51.2001,0.002024
75.387,51.2001,0.002024
75.402,51.2001,0.002024
75.418,51.2001,0.002024
75.448,51.2001,0.002024
75.464,51.2001,0.002024
75.489,51.2001,0.002099
75.505,51.2001,0.002099
75.527,51.2001,0.002099
75.543,51.2002,0.002099
75.561,51.2005,0.002099
75.583,51.2011,0.002099
75.598,51.2018,0.002099
75.629,51.2038,0.002099
75.660,51.2065,0.002099
75.692,51.2100,0.002099
75.723,51.2141,0.002146
75.740,51.2167,0.002146
75.769,51.2217,0.002146
75.800,51.2278,0.002146
75.831,51.2345,0.002146
75.846,51.2381,0.002146
75.866,51.2429,0.002146
75.893,51.2498,0.002146
75.911,51.2550,0.002146
75.927,51.2596,0.002146
75.943,51.2646,0.002146
75.959,51.2698,0.002146
75.984,51.2779,0.002052
76.000,51.2836,0.002052
76.016,51.2895,0.002052
76.032,51.2953,0.002052
76.048,51.3014,0.002052
76.064,51.3080,0.002052
76.080,51.3144,0.002052
76.096,51.3213,0.002052
76.112,51.3282,0.002052
76.128,51.3354,0.002052
76.144,51.3427,0.002052
76.160,51.3500,0.002052
76.178,51.3588,0.002052
76.202,51.3706,0.002052
76.217,51.3786,0.002052
76.233,51.3875,0.002033
76.257,51.3997,0.002033
76.280,51.4127,0.002033
76.312,51.4314,0.002033
76.343,51.4500,0.002033
76.359,51.4603,0.002033
76.374,51.4699,0.002033
76.390,51.4799,0.002033
76.421,51.5006,0.002033
76.451,51.5213,0.002033
76.467,51.5324,0.002033
76.497,51.5542,0.002014
76.513,51.5658,0.002014
76.539,51.5852,0.002014
76.556,51.5980,0.002014
76.574,51.6125,0.002014
76.606,51.6378,0.002014
76.637,51.6637,0.002014
76.653,51.6772,0.002014
76.669,51.6910,0.002014
76.685,51.7050,0.002014
76.715,51.7318,0.002024
76.731,51.7459,0.002024
76.747,51.7606,0.002024
76.763,51.7754,0.002024
76.778,51.7897,0.002024
76.794,51.8052,0.002024
76.811,51.8212,0.002024
76.827,51.8381,0.002024
76.844,51.8532,0.002024
76.859,51.8683,0.002024
76.875,51.8846,0.002024
76.890,51.9002,0.002024
76.911,51.9222,0.002024
76.934,51.9452,0.002024
76.955,51.9681,0.002024
76.971,51.9858,0.002024
76.987,52.0030,0.002033
77.003,52.0206,0.002033
77.019,52.0385,0.002033
77.035,52.0570,0.002033
77.050,52.0748,0.002033
77.066,52.0939,0.002033
77.088,52.1197,0.002033
77.105,52.1383,0.002033
77.120,52.1568,0.002033
77.136,52.1767,0.002033
77.154,52.1976,0.002033
77.181,52.2311,0.002033
77.200,52.2555,0.002033
77.217,52.2769,0.002033
77.233,52.2971,0.002033
77.248,52.3172,0.001845
77.265,52.3386,0.001845
77.281,52.3605,0.001845
77.296,52.3804,0.001845
77.312,52.4020,0.001845
77.328,52.4236,0.001845
77.345,52.4465,0.001845
77.361,52.4680,0.001845
77.376,52.4902,0.001845
77.392,52.5123,0.001845
77.408,52.5353,0.001845
77.424,52.5578,0.001845
77.440,52.5805,0.001845
77.457,52.6060,0.001845
77.474,52.6308,0.001845
77.489,52.6549,0.001741
77.520,52.6997,0.001741
77.543,52.7335,0.001741
77.567,52.7705,0.001741
77.585,52.7974,0.001741
77.601,52.8226,0.001741
77.616,52.8468,0.001741
77.644,52.8922,0.001741
77.675,52.9411,0.001741
77.691,52.9678,0.001741
77.708,52.9950,0.001741
77.723,53.0204,0.001741
77.740,53.0473,0.001591
77.755,53.0741,0.001591
77.772,53.1029,0.001591
77.800,53.1517,0.001591
77.819,53.1827,0.001591
77.840,53.2188,0.001591
77.862,53.2573,0.001591
77.892,53.3111,0.001591
77.923,53.3675,0.001591
77.954,53.4245,0.001591
77.984,53.4797,0.001591
78.015,53.5377,0.001327
78.045,53.5942,0.001327
78.076,53.6544,0.001327
78.091,53.6828,0.001327
78.107,53.7136,0.001327
78.123,53.7448,0.001327
78.140,53.7787,0.001327
78.168,53.8350,0.001327
78.198,53.8935,0.001327
78.214,53.9260,0.001327
78.230,53.9597,0.001130
78.247,53.9936,0.001130
78.270,54.0430,0.001130
78.293,54.0901,0.001130
78.310,54.1256,0.001130
78.326,54.1595,0.001130
78.342,54.1933,0.001130
78.358,54.2266,0.001130
78.374,54.2624,0.001130
78.395,54.3044,0.001130
78.417,54.3502,0.001130
78.438,54.3936,0.001130
78.455,54.4286,0.001130
78.479,54.4783,0.001092
78.510,54.5422,0.001092
78.541,54.6021,0.001092
78.556,54.6321,0.001092
78.573,54.6646,0.001092
78.602,54.7224,0.001092
78.634,54.7829,0.001092
78.664,54.8411,0.001092
78.696,54.8996,0.001092
78.711,54.9281,0.001092
78.739,54.9801,0.000988
78.755,55.0095,0.000988
78.771,55.0389,0.000988
78.787,55.0665,0.000988
78.803,55.0977,0.000988
78.819,55.1236,0.000988
78.835,55.1533,0.000988
78.851,55.1810,0.000988
78.868,55.2106,0.000988
78.884,55.2371,0.000988
78.911,55.2847,0.000988
78.931,55.3183,0.000988
78.947,55.3446,0.000988
78.963,55.3718,0.000800
78.979,55.3974,0.000800
78.995,55.4250,0.000800
79.011,55.4504,0.000800
79.027,55.4757,0.000800
79.043,55.5016,0.000800
79.059,55.5280,0.000800
79.075,55.5525,0.000800
79.091,55.5783,0.000800
79.107,55.6034,0.000800
79.123,55.6280,0.000800
79.139,55.6519,0.000800
79.155,55.6778,0.000800
79.171,55.7007,0.000800
79.187,55.7255,0.000800
79.203,55.7492,0.000800
79.219,55.7735,0.000640
79.235,55.7958,0.000640
79.251,55.8186,0.000640
79.267,55.8418,0.000640
79.288,55.8723,0.000640
79.304,55.8954,0.000640
79.321,55.9181,0.000640
79.336,55.9387,0.000640
79.352,55.9614,0.000640
79.367,55.9827,0.000640
79.383,56.0041,0.000640
79.401,56.0273,0.000640
79.416,56.0472,0.000640
79.431,56.0680,0.000640
79.447,56.0886,0.000640
79.464,56.1108,0.000640
79.479,56.1300,0.000640
79.496,56.1506,0.000499
79.511,56.1701,0.000499
79.529,56.1918,0.000499
79.560,56.2304,0.000499
79.575,56.2485,0.000499
79.592,56.2682,0.000499
79.608,56.2875,0.000499
79.624,56.3056,0.000499
79.639,56.3238,0.000499
79.656,56.3427,0.000499
79.671,56.3605,0.000499
79.687,56.3783,0.000499
79.704,56.3963,0.000499
79.721,56.4148,0.000499
79.746,56.4422,0.000499
79.776,56.4746,0.000433
79.807,56.5069,0.000433
79.839,56.5383,0.000433
79.869,56.5682,0.000433
79.885,56.5842,0.000433
79.916,56.6135,0.000433
79.932,56.6285,0.000433
79.963,56.6569,0.000433
79.979,56.6713,0.000433
80.015,56.7031,0.000386
80.041,56.7252,0.000386
80.057,56.7387,0.000386
80.073,56.7531,0.000386
80.104,56.7772,0.000386
80.120,56.7896,0.000386
80.136,56.8026,0.000386
80.151,56.8143,0.000386
80.167,56.8264,0.000386
80.183,56.8381,0.000386
80.201,56.8512,0.000386
80.228,56.8709,0.000301
80.247,56.8840,0.000301
80.268,56.8985,0.000301
80.292,56.9145,0.000301
80.312,56.9273,0.000301
80.328,56.9371,0.000301
80.344,56.9472,0.000301
80.360,56.9571,0.000301
80.386,56.9728,0.000301
80.403,56.9826,0.000301
80.418,56.9912,0.000301
80.434,57.0003,0.000301
80.451,57.0095,0.000301
80.466,57.0174,0.000301
80.483,57.0261,0.000217
80.498,57.0337,0.000217
80.515,57.0420,0.000217
80.531,57.0495,0.000217
80.546,57.0569,0.000217
80.562,57.0643,0.000217
80.578,57.0715,0.000217
80.594,57.0784,0.000217
80.610,57.0855,0.000217
80.626,57.0921,0.000217
80.642,57.0983,0.000217
80.658,57.1042,0.000217
80.674,57.1103,0.000217
80.690,57.1161,0.000217
80.706,57.1220,0.000217
80.722,57.1274,0.000019
80.738,57.1325,0.000019
80.755,57.1376,0.000019
80.770,57.1422,0.000019
80.786,57.1468,0.000019
80.802,57.1514,0.000019
80.818,57.1558,0.000019
80.834,57.1598,0.000019
80.851,57.1636,0.000019
80.867,57.1675,0.000019
80.894,57.1732,0.000019
80.914,57.1770,0.000019
80.939,57.1815,0.000019
80.955,57.1841,0.000019
80.970,57.1862,-0.000395
80.986,57.1884,-0.000395
81.002,57.1906,-0.000395
81.018,57.1924,-0.000395
81.034,57.1940,-0.000395
81.051,57.1956,-0.000395
81.070,57.1970,-0.000395
81.094,57.1984,-0.000395
81.114,57.1992,-0.000395
81.130,57.1997,-0.000395
81.146,57.2000,-0.000395
81.162,57.2001,-0.000395
81.179,57.2001,-0.000395
81.194,57.2001,-0.000395
81.210,57.2001,-0.000395
81.227,57.2001,-0.000715
81.249,57.2001,-0.000715
81.280,57.2001,-0.000715
81.299,57.2001,-0.000715
81.327,57.2001,-0.000715
81.358,57.2001,-0.000715
81.389,57.2001,-0.000715
81.405,57.2001,-0.000715
81.421,57.2001,-0.000715
81.437,57.2001,-0.000715
81.467,57.2001,-0.000715
81.498,57.2001,-0.000574
81.514,57.2001,-0.000574
81.530,57.2001,-0.000574
81.547,57.2001,-0.000574
81.576,57.2001,-0.000574
81.595,57.2001,-0.000574
81.610,57.2001,-0.000574
81.626,57.2001,-0.000574
81.642,57.2001,-0.000574
81.658,57.2001,-0.000574
81.674,57.2001,-0.000574
81.690,57.2001,-0.000574
81.706,57.2001,-0.000574
81.723,57.2001,-0.000574
81.738,57.2001,-0.000574
81.754,57.2001,-0.000235
81.770,57.2001,-0.000235
81.786,57.2001,-0.000235
81.802,57.2001,-0.000235
81.818,57.2001,-0.000235
81.834,57.2001,-0.000235
81.850,57.2001,-0.000235
81.865,57.2001,-0.000235
81.882,57.2001,-0.000235
81.899,57.2001,-0.000235
81.930,57.2001,-0.000235
81.945,57.2001,-0.000235
81.963,57.2001,-0.000235
81.992,57.2001,-0.000235
82.022,57.2001,-0.000056
82.038,57.2001,-0.000056
82.054,57.2001,-0.000056
82.069,57.2001,-0.000056
82.086,57.2001,-0.000056
82.102,57.2001,-0.000056
82.117,57.2001,-0.000056
82.134,57.2001,-0.000056
82.155,57.2001,-0.000056
82.178,57.2001,-0.000056
82.197,57.2001,-0.000056
82.214,57.2001,-0.000056
82.230,57.2001,0.000075
82.245,57.2001,0.000075
82.262,57.2001,0.000075
82.277,57.2001,0.000075
82.294,57.2001,0.000075
82.309,57.2001,0.000075
82.326,57.2001,0.000075
82.341,57.2001,0.000075
82.358,57.2001,0.000075
82.374,57.2001,0.000075
82.390,57.2001,0.000075
82.405,57.2001,0.000075
82.421,57.2001,0.000075
82.437,57.2001,0.000075
82.454,57.2001,0.000075
82.469,57.2001,0.000085
82.486,57.2001,0.000085
82.502,57.2001,0.000085
82.518,57.2001,0.000085
82.534,57.2001,0.000085
82.564,57.2001,0.000085
82.580,57.2001,0.000085
82.611,57.2001,0.000085
82.628,57.2001,0.000085
82.658,57.2001,0.000085
82.676,57.2001,0.000085
82.692,57.2001,0.000085
82.708,57.2001,0.000085
82.723,57.2001,0.000047
82.739,57.2001,0.000047
82.756,57.2001,0.000047
82.784,57.2001,0.000047
82.804,57.2001,0.000047
82.820,57.2001,0.000047
82.835,57.2001,0.000047
82.852,57.2001,0.000047
82.868,57.2001,0.000047
82.883,57.2001,0.000047
82.900,57.2001,0.000047
82.915,57.2001,0.000047
82.931,57.2001,0.000047
82.948,57.2001,0.000047
82.964,57.2001,0.000047
82.985,57.2001,0.000047
83.000,57.2001,0.000047
83.016,57.2001,0.000047
83.032,57.2001,0.000047
83.048,57.2001,0.000047
83.063,57.2001,0.000047
83.088,57.2001,0.000047
83.104,57.2001,0.000047
83.119,57.2001,0.000047
83.135,57.2001,0.000047
83.151,57.2001,0.000047
83.167,57.2001,0.000047
83.183,57.2001,0.000047
83.200,57.2001,0.000047
83.216,57.2001,0.000009
83.231,57.2001,0.000009
83.248,57.2001,0.000009
83.263,57.2001,0.000009
83.279,57.2001,0.000009
83.296,57.2001,0.000009
83.317,57.2001,0.000009
83.340,57.2001,0.000009
83.360,57.2001,0.000009
83.376,57.2001,0.000009
83.403,57.2001,0.000009
83.423,57.2001,0.000009
83.439,57.2001,0.000009
83.455,57.2001,0.000009
83.471,57.2001,0.000009
83.488,57.2001,0.000009
83.504,57.2001,0.000009
83.520,57.2001,0.000009
83.535,57.2001,0.000009
83.551,57.2001,0.000009
83.567,57.2001,0.000009
83.583,57.2001,0.000009
83.599,57.2001,0.000009
83.620,57.2001,0.000009
83.636,57.2001,0.000009
83.652,57.2001,0.000009
83.668,57.2001,0.000009
83.686,57.2001,0.000009
83.711,57.2001,0.000047
83.732,57.2001,0.000047
83.748,57.2001,0.000047
83.764,57.2001,0.000047
83.780,57.2001,0.000047
83.796,57.2001,0.000047
83.812,57.2001,0.000047
83.828,57.2001,0.000047
83.844,57.2001,0.000047
83.860,57.2001,0.000047
83.876,57.2001,0.000047
83.892,57.2001,0.000047
83.908,57.2001,0.000047
83.924,57.2001,0.000047
83.940,57.2001,0.000047
83.956,57.2001,0.000047
83.972,57.2001,0.000066
83.988,57.2001,0.000066
84.004,57.2001,0.000066
84.020,57.2001,0.000066
84.036,57.2001,0.000066
84.052,57.2001,0.000066
84.069,57.2001,0.000066
84.099,57.2001,0.000066
84.123,57.2001,0.000066
84.148,57.2001,0.000066
84.163,57.2001,0.000066
84.179,57.2001,0.000066
84.195,57.2001,0.000066
84.211,57.2001,0.000019
84.227,57.2001,0.000019
84.243,57.2001,0.000019
84.259,57.2001,0.000019
84.275,57.2001,0.000019
84.292,57.2001,0.000019
84.308,57.2001,0.000019
84.332,57.2001,0.000019
84.347,57.2001,0.000019
84.378,57.2001,0.000019
84.409,57.2001,0.000019
84.442,57.2001,0.000019
84.469,57.2001,0.000009
84.501,57.2001,0.000009
84.530,57.2001,0.000009
84.547,57.2001,0.000009
84.563,57.2001,0.000009
84.579,57.2001,0.000009
84.595,57.2001,0.000009
84.611,57.2001,0.000009
84.627,57.2001,0.000009
84.643,57.2001,0.000009
84.673,57.2001,0.000009
84.689,57.2001,0.000009
84.705,57.2001,0.000009
84.721,57.2001,0.000047
84.737,57.2001,0.000047
84.753,57.2001,0.000047
84.769,57.2001,0.000047
84.785,57.2001,0.000047
84.801,57.2001,0.000047
84.817,57.2001,0.000047
84.833,57.2001,0.000047
84.849,57.2001,0.000047
84.865,57.2001,0.000047
84.881,57.2001,0.000047
84.897,57.2001,0.000047
84.913,57.2001,0.000047
84.929,57.2001,0.000047
84.945,57.2001,0.000047
84.960,57.2001,0.000047
84.977,57.2001,0.000019
84.993,57.2001,0.000019
85.009,57.2001,0.000019
85.025,57.2001,0.000019
85.041,57.2001,0.000019
85.057,57.2001,0.000019
85.073,57.2001,0.000019
85.089,57.2001,0.000019
85.105,57.2001,0.000019
85.120,57.2001,0.000019
85.136,57.2001,0.000019
85.152,57.2001,0.000019
85.169,57.2001,0.000019
85.185,57.2001,0.000019
85.201,57.2001,0.000019
85.222,57.2001,0.000019
85.238,57.2001,0.000019
85.253,57.2001,0.000009
85.269,57.2001,0.000009
85.285,57.2001,0.000009
85.302,57.2001,0.000009
85.317,57.2001,0.000009
85.334,57.2001,0.000009
85.350,57.2001,0.000009
85.365,57.2001,0.000009
85.382,57.2001,0.000009
85.398,57.2001,0.000009
85.414,57.2001,0.000009
85.429,57.2001,0.000009
85.446,57.2001,0.000009
85.461,57.2001,0.000009
85.478,57.2001,0.000009
85.493,57.2001,0.000019
85.509,57.2001,0.000019
85.526,57.2001,0.000019
85.542,57.2001,0.000019
85.557,57.2001,0.000019
85.573,57.2001,0.000019
85.590,57.2001,0.000019
85.606,57.2001,0.000019
85.621,57.2001,0.000019
85.638,57.2001,0.000019
85.654,57.2001,0.000019
85.670,57.2001,0.000019
85.685,57.2001,0.000019
85.704,57.2001,0.000019
85.732,57.2001,0.000019
85.763,57.2001,0.000009
85.778,57.2001,0.000009
85.794,57.2001,0.000009
85.810,57.2001,0.000009
85.828,57.2001,0.000009
85.847,57.2001,0.000009
85.870,57.2001,0.000009
85.891,57.2001,0.000009
85.907,57.2001,0.000009
85.923,57.2001,0.000009
85.938,57.2001,0.000009
85.955,57.2001,0.000009
85.979,57.2001,0.000009
86.009,57.2001,-0.000113
86.040,57.2001,-0.000113
86.071,57.2001,-0.000113
86.087,57.2001,-0.000113
86.117,57.2001,-0.000113
86.148,57.2001,-0.000113
86.178,57.2001,-0.000113
86.198,57.2001,-0.000113
86.225,57.2001,-0.000113
86.243,57.2001,-0.000198
86.259,57.2001,-0.000198
86.274,57.2001,-0.000198
86.291,57.2001,-0.000198
86.306,57.2001,-0.000198
86.322,57.2001,-0.000198
86.339,57.2001,-0.000198
86.354,57.2001,-0.000198
86.372,57.2000,-0.000198
86.389,57.1996,-0.000198
86.409,57.1989,-0.000198
86.441,57.1970,-0.000198
86.471,57.1946,-0.000264
86.488,57.1930,-0.000264
86.518,57.1896,-0.000264
86.548,57.1853,-0.000264
86.563,57.1830,-0.000264
86.578,57.1804,-0.000264
86.602,57.1760,-0.000264
86.624,57.1718,-0.000264
86.642,57.1679,-0.000264
86.659,57.1641,-0.000264
86.686,57.1576,-0.000264
86.706,57.1524,-0.000264
86.725,57.1469,-0.000264
86.748,57.1405,-0.000264
86.779,57.1308,0.001280
86.810,57.1204,0.001280
86.840,57.1093,0.001280
86.871,57.0975,0.001280
86.902,57.0854,0.001280
86.932,57.0724,0.001280
86.949,57.0644,0.001280
86.979,57.0507,0.004782
87.010,57.0354,0.004782
87.026,57.0273,0.004782
87.042,57.0194,0.004782
87.058,57.0107,0.004782
87.074,57.0020,0.004782
87.090,56.9932,0.004782
87.106,56.9843,0.004782
87.122,56.9751,0.004782
87.144,56.9615,0.004782
87.166,56.9482,0.004782
87.187,56.9357,0.004782
87.212,56.9191,0.004782
87.234,56.9047,0.006335
87.250,56.8943,0.006335
87.267,56.8827,0.006335
87.289,56.8672,0.006335
87.319,56.8455,0.006335
87.335,56.8335,0.006335
87.366,56.8105,0.006335
87.382,56.7975,0.006335
87.414,56.7723,0.006335
87.444,56.7477,0.006335
87.473,56.7226,0.008340
87.492,56.7067,0.008340
87.510,56.6910,0.008340
87.534,56.6702,0.008340
87.554,56.6523,0.008340
87.570,56.6377,0.008340
87.586,56.6220,0.008340
87.602,56.6078,0.008340
87.618,56.5925,0.008340
87.634,56.5769,0.008340
87.649,56.5618,0.008340
87.666,56.5450,0.008340
87.688,56.5237,0.008340
87.704,56.5074,0.008340
87.721,56.4895,0.012708
87.750,56.4589,0.012708
87.781,56.4260,0.012708
87.812,56.3925,0.012708
87.842,56.3589,0.012708
87.859,56.3391,0.012708
87.890,56.3042,0.012708
87.918,56.2694,0.012708
87.934,56.2519,0.012708
87.950,56.2320,0.012708
87.966,56.2128,0.007662
87.982,56.1927,0.007662
87.998,56.1738,0.007662
88.013,56.1540,0.007662
88.031,56.1318,0.007662
88.060,56.0944,0.007662
88.078,56.0707,0.007662
88.094,56.0505,0.007662
88.109,56.0294,0.007662
88.126,56.0077,0.007662
88.142,55.9850,0.007662
88.162,55.9576,0.007662
88.184,55.9274,0.007662
88.205,55.8982,0.007662
88.222,55.8750,0.007662
88.237,55.8531,0.000537
88.254,55.8299,0.000537
88.270,55.8070,0.000537
88.288,55.7790,0.000537
88.306,55.7516,0.000537
88.338,55.7065,0.000537
88.368,55.6591,0.000537
88.399,55.6130,0.000537
88.414,55.5893,0.000537
88.429,55.5649,0.000537
88.458,55.5190,0.000537
88.475,55.4922,0.000537
88.490,55.4674,0.000546
88.506,55.4418,0.000546
88.525,55.4103,0.000546
88.552,55.3658,0.000546
88.570,55.3355,0.000546
88.587,55.3070,0.000546
88.603,55.2810,0.000546
88.619,55.2528,0.000546
88.634,55.2263,0.000546
88.651,55.1969,0.000546
88.667,55.1697,0.000546
88.683,55.1408,0.000546
88.699,55.1139,0.000546
88.714,55.0859,0.000546
88.731,55.0556,0.000546
88.754,55.0139,0.000650
88.787,54.9530,0.000650
88.816,54.9002,0.000650
88.831,54.8703,0.000650
88.847,54.8422,0.000650
88.862,54.8117,0.000650
88.878,54.7839,0.000650
88.893,54.7534,0.000650
88.924,54.6941,0.000650
88.939,54.6644,0.000650
88.956,54.6308,0.000650
88.985,54.5729,0.000650
89.014,54.5141,0.000819
89.030,54.4825,0.000819
89.046,54.4503,0.000819
89.063,54.4169,0.000819
89.079,54.3820,0.000819
89.095,54.3504,0.000819
89.110,54.3180,0.000819
89.126,54.2843,0.000819
89.143,54.2491,0.000819
89.159,54.2156,0.000819
89.175,54.1826,0.000819
89.191,54.1463,0.000819
89.213,54.1011,0.000819
89.235,54.0547,0.000819
89.254,54.0143,0.001045
89.270,53.9800,0.001045
89.287,53.9464,0.001045
89.302,53.9153,0.001045
89.318,53.8826,0.001045
89.335,53.8475,0.001045
89.351,53.8175,0.001045
89.366,53.7860,0.001045
89.382,53.7541,0.001045
89.398,53.7216,0.001045
89.415,53.6904,0.001045
89.430,53.6599,0.001045
89.446,53.6284,0.001045
89.462,53.5973,0.001045
89.478,53.5665,0.001101
89.494,53.5365,0.001101
89.510,53.5051,0.001101
89.526,53.4757,0.001101
89.542,53.4463,0.001101
89.571,53.3920,0.001101
89.603,53.3349,0.001101
89.618,53.3063,0.001101
89.635,53.2760,0.001101
89.651,53.2477,0.001101
89.666,53.2209,0.001101
89.682,53.1920,0.001101
89.699,53.1624,0.001101
89.725,53.1175,0.001186
89.746,53.0817,0.001186
89.763,53.0526,0.001186
89.788,53.0096,0.001186
89.819,52.9584,0.001186
89.850,52.9075,0.001186
89.881,52.8573,0.001186
89.913,52.8068,0.001186
89.944,52.7583,0.001186
89.959,52.7335,0.001186
89.991,52.6850,0.001403
90.007,52.6594,0.001403
90.038,52.6148,0.001403
90.053,52.5908,0.001403
90.084,52.5469,0.001403
90.115,52.5022,0.001403
90.132,52.4779,0.001403
90.162,52.4366,0.001403
90.178,52.4132,0.001403
90.194,52.3905,0.001403
90.211,52.3686,0.001403
90.239,52.3300,0.001591
90.260,52.3020,0.001591
90.286,52.2682,0.001591
90.306,52.2423,0.001591
90.323,52.2217,0.001591
90.340,52.1997,0.001591
90.363,52.1712,0.001591
90.394,52.1331,0.001591
90.425,52.0957,0.001591
90.440,52.0768,0.001591
90.456,52.0580,0.001591
90.472,52.0400,0.001789
90.502,52.0045,0.001789
90.533,51.9700,0.001789
90.563,51.9375,0.001789
90.578,51.9204,0.001789
90.594,51.9042,0.001789
90.610,51.8872,0.001789
90.632,51.8624,0.001789
90.658,51.8366,0.001789
90.673,51.8216,0.001789
90.689,51.8060,0.001789
90.705,51.7901,0.001789
90.721,51.7746,0.001873
90.737,51.7592,0.001873
90.753,51.7432,0.001873
90.769,51.7284,0.001873
90.785,51.7136,0.001873
90.801,51.6992,0.001873
90.817,51.6839,0.001873
90.833,51.6699,0.001873
90.849,51.6564,0.001873
90.865,51.6421,0.001873
90.881,51.6281,0.001873
90.898,51.6142,0.001873
90.919,51.5966,0.001873
90.936,51.5822,0.001873
90.966,51.5585,0.001949
90.996,51.5353,0.001949
91.012,51.5233,0.001949
91.043,51.5005,0.001949
91.059,51.4888,0.001949
91.074,51.4780,0.001949
91.105,51.4568,0.001949
91.121,51.4463,0.001949
91.136,51.4357,0.001949
91.153,51.4252,0.001949
91.180,51.4078,0.001949
91.197,51.3975,0.001949
91.213,51.3876,0.002043
91.244,51.3690,0.002043
91.261,51.3598,0.002043
91.276,51.3514,0.002043
91.292,51.3429,0.002043
91.309,51.3335,0.002043
91.336,51.3194,0.002043
91.356,51.3099,0.002043
91.372,51.3019,0.002043
91.388,51.2944,0.002043
91.403,51.2872,0.002043
91.420,51.2796,0.002043
91.436,51.2727,0.002043
91.451,51.2662,0.002043
91.468,51.2593,0.002090
91.484,51.2531,0.002090
91.500,51.2466,0.002090
91.515,51.2409,0.002090
91.532,51.2347,0.002090
91.548,51.2292,0.002090
91.564,51.2237,0.002090
91.579,51.2187,0.002090
91.596,51.2135,0.002090
91.612,51.2087,0.002090
91.628,51.2039,0.002090
91.643,51.1996,0.002090
91.659,51.1951,0.002090
91.676,51.1910,0.002090
91.691,51.1874,0.002090
91.721,51.1808,0.002090
91.737,51.1773,0.002090
91.753,51.1742,0.002080
91.768,51.1713,0.002080
91.784,51.1686,0.002080
91.800,51.1660,0.002080
91.816,51.1636,0.002080
91.832,51.1614,0.002080
91.850,51.1593,0.002080
91.877,51.1563,0.002080
91.896,51.1546,0.002080
91.913,51.1533,0.002080
91.928,51.1524,0.002080
91.945,51.1515,0.002080
91.960,51.1509,0.002080
91.976,51.1505,0.002080
91.993,51.1501,0.002080
92.008,51.1501,0.002052
92.025,51.1501,0.002052
92.041,51.1501,0.002052
92.056,51.1501,0.002052
92.073,51.1501,0.002052
92.089,51.1501,0.002052
92.104,51.1501,0.002052
92.121,51.1501,0.002052
92.136,51.1501,0.002052
92.152,51.1502,0.002052
92.168,51.1505,0.002052
92.185,51.1511,0.002052
92.201,51.1517,0.002052
92.216,51.1526,0.002052
92.232,51.1537,0.002052
92.248,51.1550,0.002052
92.277,51.1578,0.002118
92.295,51.1599,0.002118
92.311,51.1620,0.002118
92.339,51.1660,0.002118
92.357,51.1688,0.002118
92.385,51.1739,0.002118
92.405,51.1778,0.002118
92.421,51.1811,0.002118
92.437,51.1847,0.002118
92.452,51.1883,0.002118
92.468,51.1923,0.002118
92.485,51.1965,0.002118
92.500,51.2007,0.002043
92.516,51.2052,0.002043
92.533,51.2100,0.002043
92.548,51.2149,0.002043
92.564,51.2201,0.002043
92.580,51.2253,0.002043
92.597,51.2311,0.002043
92.612,51.2364,0.002043
92.628,51.2423,0.002043
92.645,51.2488,0.002043
92.661,51.2548,0.002043
92.676,51.2612,0.002043
92.692,51.2677,0.002043
92.708,51.2745,0.002043
92.724,51.2820,0.002043
92.740,51.2889,0.001996
92.757,51.2965,0.001996
92.773,51.3048,0.001996
92.803,51.3195,0.001996
92.831,51.3340,0.001996
92.848,51.3430,0.001996
92.864,51.3519,0.001996
92.880,51.3611,0.001996
92.911,51.3783,0.001996
92.942,51.3968,0.001996
92.958,51.4071,0.001996
92.974,51.4173,0.001996
92.991,51.4273,0.002033
93.006,51.4375,0.002033
93.022,51.4484,0.002033
93.038,51.4593,0.002033
93.055,51.4707,0.002033
93.070,51.4813,0.002033
93.089,51.4956,0.002033
93.104,51.5058,0.002033
93.127,51.5232,0.002033
93.143,51.5355,0.002033
93.175,51.5596,0.002033
93.206,51.5846,0.002033
93.221,51.5976,0.002033
93.252,51.6228,0.002043
93.283,51.6497,0.002043
93.313,51.6759,0.002043
93.344,51.7044,0.002043
93.374,51.7314,0.002043
93.394,51.7504,0.002043
93.413,51.7694,0.002043
93.436,51.7912,0.002043
93.454,51.8094,0.002043
93.470,51.8254,0.002043
93.487,51.8424,0.002090
93.513,51.8697,0.002090
93.534,51.8918,0.002090
93.550,51.9083,0.002090
93.566,51.9268,0.002090
93.583,51.9449,0.002090
93.600,51.9638,0.002090
93.621,51.9869,0.002090
93.652,52.0218,0.002090
93.682,52.0566,0.002090
93.713,52.0934,0.002090
93.729,52.1135,0.002024
93.760,52.1507,0.002024
93.777,52.1708,0.002024
93.808,52.2103,0.002024
93.838,52.2486,0.002024
93.854,52.2689,0.002024
93.870,52.2899,0.002024
93.886,52.3110,0.002024
93.908,52.3404,0.002024
93.931,52.3719,0.002024
93.962,52.4143,0.002024
93.992,52.4560,0.001930
94.023,52.5006,0.001930
94.039,52.5226,0.001930
94.055,52.5456,0.001930
94.086,52.5924,0.001930
94.116,52.6362,0.001930
94.132,52.6611,0.001930
94.147,52.6829,0.001930
94.163,52.7069,0.001930
94.179,52.7335,0.001930
94.197,52.7609,0.001930
94.214,52.7878,0.001930
94.240,52.8290,0.001930
94.259,52.8583,0.001723
94.274,52.8833,0.001723
94.291,52.9100,0.001723
94.307,52.9358,0.001723
94.326,52.9684,0.001723
94.349,53.0065,0.001723
94.380,53.0598,0.001723
94.402,53.0973,0.001723
94.418,53.1244,0.001723
94.442,53.1662,0.001723
94.458,53.1928,0.001723
94.474,53.2219,0.001478
94.490,53.2491,0.001478
94.506,53.2792,0.001478
94.521,53.3064,0.001478
94.537,53.3354,0.001478
94.553,53.3648,0.001478
94.569,53.3943,0.001478
94.585,53.4237,0.001478
94.602,53.4547,0.001478
94.617,53.4834,0.001478
94.636,53.5175,0.001478
94.660,53.5645,0.001478
94.682,53.6059,0.001478
94.698,53.6380,0.001478
94.713,53.6673,0.001478
94.729,53.6984,0.001243
94.746,53.7315,0.001243
94.762,53.7638,0.001243
94.784,53.8082,0.001243
94.815,53.8688,0.001243
94.830,53.9021,0.001243
94.847,53.9346,0.001243
94.878,53.9978,0.001243
94.909,54.0647,0.001243
94.941,54.1302,0.001243
94.972,54.1982,0.001054
94.999,54.2536,0.001054
95.015,54.2874,0.001054
95.030,54.3197,0.001054
95.046,54.3523,0.001054
95.062,54.3849,0.001054
95.078,54.4178,0.001054
95.095,54.4514,0.001054
95.110,54.4820,0.001054
95.130,54.5224,0.001054
95.157,54.5743,0.001054
95.174,54.6095,0.001054
95.191,54.6414,0.001054
95.207,54.6723,0.001054
95.222,54.7024,0.000998
95.238,54.7337,0.000998
95.255,54.7647,0.000998
95.270,54.7943,0.000998
95.286,54.8238,0.000998
95.302,54.8545,0.000998
95.320,54.8864,0.000998
95.343,54.9301,0.000998
95.358,54.9574,0.000998
95.389,55.0131,0.000998
95.420,55.0693,0.000998
95.451,55.1235,0.000998
95.482,55.1768,0.000960
95.512,55.2291,0.000960
95.528,55.2557,0.000960
95.556,55.3034,0.000960
95.572,55.3285,0.000960
95.587,55.3544,0.000960
95.604,55.3828,0.000960
95.620,55.4087,0.000960
95.635,55.4325,0.000960
95.651,55.4586,0.000960
95.668,55.4857,0.000960
95.695,55.5290,0.000960
95.716,55.5601,0.000800
95.731,55.5838,0.000800
95.748,55.6098,0.000800
95.764,55.6344,0.000800
95.779,55.6568,0.000800
95.795,55.6816,0.000800
95.812,55.7055,0.000800
95.828,55.7291,0.000800
95.843,55.7514,0.000800
95.860,55.7766,0.000800
95.877,55.8027,0.000800
95.897,55.8290,0.000800
95.928,55.8729,0.000800
95.951,55.9048,0.000800
95.972,55.9323,0.000800
95.987,55.9530,0.000659
96.003,55.9754,0.000659
96.019,55.9958,0.000659
96.035,56.0175,0.000659
96.051,56.0383,0.000659
96.067,56.0591,0.000659
96.083,56.0788,0.000659
96.111,56.1143,0.000659
96.128,56.1357,0.000659
96.159,56.1748,0.000659
96.175,56.1923,0.000659
96.190,56.2121,0.000659
96.206,56.2310,0.000659
96.237,56.2672,0.000565
96.253,56.2846,0.000565
96.269,56.3028,0.000565
96.288,56.3238,0.000565
96.315,56.3546,0.000565
96.333,56.3739,0.000565
96.350,56.3917,0.000565
96.376,56.4204,0.000565
96.397,56.4412,0.000565
96.414,56.4586,0.000565
96.429,56.4746,0.000565
96.445,56.4901,0.000565
96.461,56.5062,0.000565
96.478,56.5224,0.000565
96.493,56.5374,0.000461
96.509,56.5525,0.000461
96.525,56.5678,0.000461
96.541,56.5835,0.000461
96.557,56.5976,0.000461
96.573,56.6125,0.000461
96.590,56.6275,0.000461
96.608,56.6435,0.000461
96.639,56.6703,0.000461
96.663,56.6900,0.000461
96.679,56.7031,0.000461
96.695,56.7165,0.000461
96.711,56.7293,0.000461
96.728,56.7428,0.000461
96.743,56.7546,0.000377
96.759,56.7666,0.000377
96.775,56.7797,0.000377
96.793,56.7923,0.000377
96.824,56.8149,0.000377
96.841,56.8274,0.000377
96.871,56.8474,0.000377
96.887,56.8579,0.000377
96.904,56.8695,0.000377
96.933,56.8882,0.000377
96.951,56.8991,0.000377
96.968,56.9095,0.000377
96.996,56.9258,0.000301
97.015,56.9371,0.000301
97.031,56.9461,0.000301
97.047,56.9549,0.000301
97.064,56.9637,0.000301
97.079,56.9717,0.000301
97.095,56.9802,0.000301
97.111,56.9880,0.000301
97.128,56.9961,0.000301
97.143,57.0035,0.000301
97.159,57.0113,0.000301
97.175,57.0182,0.000301
97.191,57.0251,0.000301
97.213,57.0345,0.000301
97.229,57.0414,0.000301
97.244,57.0474,0.000113
97.261,57.0538,0.000113
97.278,57.0602,0.000113
97.304,57.0696,0.000113
97.325,57.0766,0.000113
97.340,57.0818,0.000113
97.356,57.0869,0.000113
97.372,57.0917,0.000113
97.389,57.0964,0.000113
97.405,57.1009,0.000113
97.421,57.1054,0.000113
97.436,57.1092,0.000113
97.453,57.1132,0.000113
97.469,57.1169,0.000113
97.484,57.1202,-0.000188
97.500,57.1236,-0.000188
97.517,57.1267,-0.000188
97.532,57.1295,-0.000188
97.549,57.1324,-0.000188
97.564,57.1349,-0.000188
97.581,57.1373,-0.000188
97.597,57.1393,-0.000188
97.613,57.1413,-0.000188
97.629,57.1431,-0.000188
97.645,57.1447,-0.000188
97.660,57.1459,-0.000188
97.677,57.1471,-0.000188
97.693,57.1481,-0.000188
97.709,57.1489,-0.000188
97.725,57.1495,-0.000188
97.751,57.1500,-0.000640
97.771,57.1501,-0.000640
97.797,57.1501,-0.000640
97.815,57.1501,-0.000640
97.831,57.1501,-0.000640
97.847,57.1501,-0.000640
97.862,57.1501,-0.000640
97.879,57.1501,-0.000640
97.894,57.1501,-0.000640
97.910,57.1501,-0.000640
97.926,57.1501,-0.000640
97.943,57.1501,-0.000640
97.959,57.1501,-0.000640
97.974,57.1501,-0.000668
97.991,57.1501,-0.000668
98.006,57.1501,-0.000668
98.022,57.1501,-0.000668
98.038,57.1501,-0.000668
98.055,57.1501,-0.000668
98.070,57.1501,-0.000668
98.086,57.1501,-0.000668
98.102,57.1501,-0.000668
98.118,57.1501,-0.000668
98.134,57.1501,-0.000668
98.150,57.1501,-0.000668
98.166,57.1501,-0.000668
98.183,57.1501,-0.000668
98.199,57.1501,-0.000668
98.215,57.1501,-0.000235
98.231,57.1501,-0.000235
98.247,57.1501,-0.000235
98.262,57.1501,-0.000235
98.278,57.1501,-0.000235
98.307,57.1501,-0.000235
98.323,57.1501,-0.000235
98.339,57.1501,-0.000235
98.354,57.1501,-0.000235
98.371,57.1501,-0.000235
98.400,57.1501,-0.000235
98.417,57.1501,-0.000235
98.434,57.1501,-0.000235
98.462,57.1501,-0.000038
98.481,57.1501,-0.000038
98.498,57.1501,-0.000038
98.513,57.1501,-0.000038
98.529,57.1501,-0.000038
98.545,57.1501,-0.000038
98.561,57.1501,-0.000038
98.577,57.1501,-0.000038
98.593,57.1501,-0.000038
98.609,57.1501,-0.000038
98.625,57.1501,-0.000038
98.641,57.1501,-0.000038
98.657,57.1501,-0.000038
98.673,57.1501,-0.000038
98.689,57.1501,-0.000038
98.705,57.1501,-0.000038
98.721,57.1501,0.000075
98.737,57.1501,0.000075
98.753,57.1501,0.000075
98.769,57.1501,0.000075
98.785,57.1501,0.000075
98.802,57.1501,0.000075
98.817,57.1501,0.000075
98.846,57.1501,0.000075
98.862,57.1501,0.000075
98.878,57.1501,0.000075
98.894,57.1501,0.000075
98.910,57.1501,0.000075
98.926,57.1501,0.000075
