Elapsed Time (s),Position (mm),Force (N)
-0.016,59.4500,-0.000715
0.001,59.4500,-0.000715
0.017,59.4500,-0.000715
0.032,59.4500,-0.000715
0.048,59.4500,-0.000715
0.064,59.4500,-0.000715
0.080,59.4500,-0.000715
0.096,59.4500,-0.000715
0.128,59.4500,-0.000715
0.159,59.4500,-0.000715
0.175,59.4500,-0.000715
0.192,59.4500,-0.000715
0.221,59.4500,-0.000471
0.239,59.4500,-0.000471
0.257,59.4500,-0.000471
0.283,59.4500,-0.000471
0.303,59.4500,-0.000471
0.321,59.4500,-0.000471
0.345,59.4500,-0.000471
0.361,59.4500,-0.000471
0.392,59.4500,-0.000471
0.422,59.4500,-0.000471
0.438,59.4500,-0.000471
0.468,59.4500,-0.000320
0.500,59.4500,-0.000320
0.530,59.4500,-0.000320
0.545,59.4500,-0.000320
0.576,59.4500,-0.000320
0.607,59.4500,-0.000320
0.626,59.4500,-0.000320
0.653,59.4500,-0.000320
0.669,59.4500,-0.000320
0.685,59.4500,-0.000320
0.701,59.4500,-0.000320
0.717,59.4500,-0.000320
0.733,59.4500,-0.000301
0.749,59.4500,-0.000301
0.765,59.4500,-0.000301
0.781,59.4500,-0.000301
0.797,59.4500,-0.000301
0.816,59.4500,-0.000301
0.839,59.4500,-0.000301
0.870,59.4500,-0.000301
0.901,59.4500,-0.000301
0.930,59.4500,-0.000301
0.962,59.4500,-0.000273
0.978,59.4500,-0.000273
1.008,59.4500,-0.000273
1.039,59.4500,-0.000273
1.054,59.4500,-0.000273
1.069,59.4500,-0.000273
1.085,59.4500,-0.000273
1.102,59.4500,-0.000273
1.118,59.4500,-0.000273
1.133,59.4500,-0.000273
1.149,59.4500,-0.000273
1.178,59.4500,-0.000273
1.195,59.4500,-0.000273
1.210,59.4500,-0.000311
1.226,59.4500,-0.000311
1.242,59.4500,-0.000311
1.258,59.4500,-0.000311
1.274,59.4500,-0.000311
1.290,59.4500,-0.000311
1.308,59.4500,-0.000311
1.333,59.4500,-0.000311
1.354,59.4500,-0.000311
1.370,59.4500,-0.000311
1.386,59.4500,-0.000311
1.402,59.4500,-0.000311
1.418,59.4500,-0.000311
1.434,59.4500,-0.000311
1.449,59.4500,-0.000311
1.466,59.4500,-0.000377
1.482,59.4500,-0.000377
1.498,59.4500,-0.000377
1.513,59.4500,-0.000377
1.530,59.4500,-0.000377
1.546,59.4500,-0.000377
1.561,59.4500,-0.000377
1.577,59.4500,-0.000377
1.594,59.4500,-0.000377
1.610,59.4500,-0.000377
1.626,59.4500,-0.000377
1.642,59.4500,-0.000377
1.657,59.4500,-0.000377
1.674,59.4500,-0.000377
1.690,59.4500,-0.000377
1.706,59.4500,-0.000377
1.736,59.4500,-0.000377
1.751,59.4500,-0.000377
1.769,59.4500,-0.000377
1.797,59.4500,-0.000377
1.816,59.4500,-0.000377
1.831,59.4500,-0.000377
1.848,59.4500,-0.000377
1.865,59.4500,-0.000377
1.890,59.4500,-0.000377
1.912,59.4500,-0.000377
1.928,59.4500,-0.000377
1.944,59.4500,-0.000377
1.959,59.4500,-0.000348
1.976,59.4500,-0.000348
1.991,59.4500,-0.000348
2.008,59.4500,-0.000348
2.023,59.4500,-0.000348
2.040,59.4500,-0.000348
2.055,59.4500,-0.000348
2.071,59.4500,-0.000348
2.087,59.4500,-0.000348
2.104,59.4500,-0.000348
2.120,59.4500,-0.000348
2.136,59.4500,-0.000348
2.151,59.4500,-0.000348
2.167,59.4500,-0.000348
2.184,59.4500,-0.000348
2.200,59.4500,-0.000320
2.215,59.4500,-0.000320
2.235,59.4500,-0.000320
2.264,59.4500,-0.000320
2.279,59.4500,-0.000320
2.294,59.4500,-0.000320
2.311,59.4500,-0.000320
2.326,59.4500,-0.000320
2.342,59.4500,-0.000320
2.359,59.4500,-0.000320
2.374,59.4500,-0.000320
2.391,59.4500,-0.000320
2.406,59.4500,-0.000320
2.422,59.4500,-0.000320
2.438,59.4500,-0.000320
2.454,59.4500,-0.000301
2.470,59.4500,-0.000301
2.486,59.4500,-0.000301
2.503,59.4500,-0.000301
2.518,59.4500,-0.000301
2.534,59.4500,-0.000301
2.550,59.4500,-0.000301
2.567,59.4500,-0.000301
2.582,59.4500,-0.000301
2.598,59.4500,-0.000301
2.615,59.4500,-0.000301
2.631,59.4500,-0.000301
2.646,59.4500,-0.000301
2.663,59.4500,-0.000301
2.679,59.4500,-0.000301
2.710,59.4500,-0.000301
2.727,59.4500,-0.000301
2.742,59.4500,-0.000301
2.758,59.4500,-0.000301
2.788,59.4500,-0.000301
2.813,59.4500,-0.000301
2.833,59.4500,-0.000301
2.853,59.4500,-0.000301
2.879,59.4500,-0.000301
2.900,59.4500,-0.000301
2.916,59.4500,-0.000301
2.932,59.4500,-0.000301
2.947,59.4500,-0.000320
2.964,59.4500,-0.000320
2.979,59.4500,-0.000320
2.995,59.4500,-0.000320
3.012,59.4500,-0.000320
3.027,59.4500,-0.000320
3.044,59.4500,-0.000320
3.059,59.4500,-0.000320
3.075,59.4500,-0.000320
3.092,59.4500,-0.000320
3.107,59.4500,-0.000320
3.123,59.4500,-0.000320
3.139,59.4500,-0.000320
3.155,59.4500,-0.000320
3.171,59.4500,-0.000320
3.187,59.4500,-0.000320
3.204,59.4500,-0.000320
3.220,59.4500,-0.000320
3.235,59.4500,-0.000292
3.251,59.4500,-0.000292
3.267,59.4500,-0.000292
3.283,59.4500,-0.000292
3.299,59.4500,-0.000292
3.328,59.4500,-0.000292
3.345,59.4500,-0.000292
3.360,59.4500,-0.000292
3.376,59.4500,-0.000292
3.392,59.4500,-0.000292
3.408,59.4500,-0.000292
3.425,59.4500,-0.000292
3.440,59.4500,-0.000292
3.456,59.4500,-0.000292
3.472,59.4500,-0.000292
3.488,59.4500,-0.000329
3.504,59.4500,-0.000329
3.520,59.4500,-0.000329
3.537,59.4500,-0.000329
3.559,59.4500,-0.000329
3.574,59.4500,-0.000329
3.590,59.4500,-0.000329
3.621,59.4500,-0.000329
3.652,59.4500,-0.000329
3.682,59.4500,-0.000329
3.713,59.4500,-0.000329
3.743,59.4500,-0.000405
3.760,59.4500,-0.000405
3.776,59.4500,-0.000405
3.792,59.4500,-0.000405
3.808,59.4500,-0.000405
3.827,59.4500,-0.000405
3.852,59.4500,-0.000405
3.872,59.4500,-0.000405
3.888,59.4500,-0.000405
3.904,59.4500,-0.000405
3.920,59.4500,-0.000405
3.936,59.4500,-0.000405
3.952,59.4500,-0.000405
3.968,59.4500,-0.000405
3.984,59.4500,-0.000499
4.000,59.4500,-0.000499
4.016,59.4500,-0.000499
4.032,59.4500,-0.000499
4.048,59.4500,-0.000499
4.063,59.4500,-0.000499
4.080,59.4498,-0.000499
4.096,59.4494,-0.000499
4.112,59.4488,-0.000499
4.128,59.4480,-0.000499
4.144,59.4470,-0.000499
4.160,59.4458,-0.000499
4.176,59.4444,-0.000499
4.192,59.4429,-0.000499
4.209,59.4410,-0.000499
4.224,59.4391,-0.000612
4.240,59.4371,-0.000612
4.256,59.4346,-0.000612
4.272,59.4322,-0.000612
4.288,59.4294,-0.000612
4.304,59.4266,-0.000612
4.321,59.4231,-0.000612
4.336,59.4201,-0.000612
4.352,59.4167,-0.000612
4.368,59.4126,-0.000612
4.384,59.4091,-0.000612
4.400,59.4050,-0.000612
4.416,59.4007,-0.000612
4.432,59.3962,-0.000612
4.448,59.3914,-0.000612
4.464,59.3866,0.000753
4.480,59.3817,0.000753
4.495,59.3765,0.000753
4.512,59.3708,0.000753
4.528,59.3654,0.000753
4.544,59.3596,0.000753
4.560,59.3535,0.000753
4.576,59.3472,0.000753
4.592,59.3407,0.000753
4.608,59.3342,0.000753
4.624,59.3275,0.000753
4.639,59.3205,0.000753
4.657,59.3130,0.000753
4.672,59.3057,0.000753
4.688,59.2980,0.000753
4.703,59.2908,0.000753
4.720,59.2826,0.003699
4.736,59.2745,0.003699
4.752,59.2660,0.003699
4.767,59.2577,0.003699
4.783,59.2490,0.003699
4.800,59.2393,0.003699
4.817,59.2301,0.003699
4.842,59.2150,0.003699
4.864,59.2022,0.003699
4.880,59.1920,0.003699
4.896,59.1822,0.003699
4.912,59.1717,0.003699
4.935,59.1563,0.003699
4.952,59.1449,0.003699
4.968,59.1345,0.006137
4.983,59.1236,0.006137
4.999,59.1118,0.006137
5.016,59.1003,0.006137
5.031,59.0890,0.006137
5.048,59.0767,0.006137
5.063,59.0648,0.006137
5.080,59.0519,0.006137
5.095,59.0401,0.006137
5.112,59.0270,0.006137
5.128,59.0138,0.006137
5.143,59.0014,0.006137
5.159,58.9880,0.006137
5.176,58.9743,0.006137
5.191,58.9609,0.006137
5.207,58.9471,0.009752
5.224,58.9321,0.009752
5.239,58.9183,0.009752
5.255,58.9038,0.009752
5.271,58.8896,0.009752
5.287,58.8748,0.009752
5.304,58.8593,0.009752
5.319,58.8448,0.009752
5.336,58.8285,0.009752
5.351,58.8138,0.009752
5.372,58.7924,0.009752
5.387,58.7771,0.009752
5.410,58.7550,0.009752
5.439,58.7242,0.009752
5.471,58.6914,0.009752
5.492,58.6685,0.008622
5.508,58.6504,0.008622
5.524,58.6329,0.008622
5.539,58.6158,0.008622
5.556,58.5969,0.008622
5.571,58.5792,0.008622
5.587,58.5610,0.008622
5.603,58.5425,0.008622
5.620,58.5229,0.008622
5.635,58.5042,0.008622
5.651,58.4852,0.008622
5.668,58.4643,0.008622
5.686,58.4424,0.008622
5.716,58.4044,0.002391
5.734,58.3822,0.002391
5.763,58.3456,0.002391
5.779,58.3243,0.002391
5.795,58.3035,0.002391
5.812,58.2817,0.002391
5.827,58.2610,0.002391
5.845,58.2372,0.002391
5.871,58.2007,0.002391
5.892,58.1728,0.002391
5.908,58.1498,0.002391
5.924,58.1280,0.002391
5.940,58.1055,0.002391
5.955,58.0833,0.000094
5.971,58.0593,0.000094
5.989,58.0345,0.000094
6.009,58.0039,0.000094
6.041,57.9564,0.000094
6.071,57.9113,0.000094
6.087,57.8874,0.000094
6.102,57.8624,0.000094
6.118,57.8380,0.000094
6.148,57.7911,0.000094
6.165,57.7644,0.000094
6.180,57.7404,0.000094
6.210,57.6914,0.000198
6.227,57.6638,0.000198
6.243,57.6373,0.000198
6.259,57.6107,0.000198
6.276,57.5827,0.000198
6.291,57.5564,0.000198
6.307,57.5299,0.000198
6.323,57.5027,0.000198
6.339,57.4739,0.000198
6.355,57.4462,0.000198
6.371,57.4176,0.000198
6.387,57.3906,0.000198
6.403,57.3617,0.000198
6.419,57.3338,0.000198
6.435,57.3058,0.000198
6.451,57.2761,0.000198
6.467,57.2475,0.000198
6.483,57.2185,0.000292
6.499,57.1889,0.000292
6.516,57.1564,0.000292
6.541,57.1101,0.000292
6.567,57.0611,0.000292
6.598,57.0009,0.000292
6.613,56.9714,0.000292
6.629,56.9410,0.000292
6.645,56.9108,0.000292
6.675,56.8492,0.000292
6.691,56.8192,0.000292
6.707,56.7867,0.000377
6.724,56.7544,0.000377
6.740,56.7213,0.000377
6.755,56.6899,0.000377
6.771,56.6571,0.000377
6.787,56.6230,0.000377
6.803,56.5915,0.000377
6.819,56.5573,0.000377
6.835,56.5244,0.000377
6.851,56.4908,0.000377
6.867,56.4565,0.000377
6.883,56.4219,0.000377
6.898,56.3890,0.000377
6.915,56.3544,0.000377
6.931,56.3203,0.000377
6.947,56.2878,0.000489
6.964,56.2519,0.000489
6.979,56.2199,0.000489
6.994,56.1883,0.000489
7.012,56.1516,0.000489
7.027,56.1212,0.000489
7.043,56.0903,0.000489
7.059,56.0583,0.000489
7.075,56.0261,0.000489
7.091,55.9945,0.000489
7.107,55.9621,0.000489
7.137,55.9033,0.000489
7.153,55.8717,0.000489
7.169,55.8406,0.000489
7.185,55.8104,0.000489
7.202,55.7781,0.000489
7.231,55.7231,0.000518
7.249,55.6906,0.000518
7.267,55.6569,0.000518
7.294,55.6058,0.000518
7.313,55.5730,0.000518
7.329,55.5428,0.000518
7.345,55.5149,0.000518
7.361,55.4868,0.000518
7.377,55.4579,0.000518
7.393,55.4305,0.000518
7.409,55.4020,0.000518
7.425,55.3742,0.000518
7.441,55.3472,0.000518
7.457,55.3192,0.000518
7.473,55.2911,0.000518
7.497,55.2512,0.000537
7.515,55.2221,0.000537
7.545,55.1713,0.000537
7.561,55.1463,0.000537
7.577,55.1191,0.000537
7.592,55.0954,0.000537
7.623,55.0467,0.000537
7.654,54.9974,0.000537
7.685,54.9506,0.000537
7.701,54.9250,0.000537
7.732,54.8794,0.000697
7.762,54.8347,0.000697
7.792,54.7897,0.000697
7.809,54.7666,0.000697
7.826,54.7423,0.000697
7.855,54.7004,0.000697
7.873,54.6764,0.000697
7.888,54.6539,0.000697
7.905,54.6313,0.000697
7.921,54.6098,0.000697
7.937,54.5889,0.000697
7.953,54.5667,0.000697
7.969,54.5456,0.000697
7.985,54.5248,0.000875
8.001,54.5032,0.000875
8.019,54.4803,0.000875
8.041,54.4524,0.000875
8.057,54.4322,0.000875
8.072,54.4126,0.000875
8.103,54.3755,0.000875
8.134,54.3381,0.000875
8.166,54.3014,0.000875
8.196,54.2656,0.000875
8.212,54.2479,0.000875
8.244,54.2116,0.000998
8.260,54.1943,0.000998
8.275,54.1777,0.000998
8.292,54.1603,0.000998
8.307,54.1433,0.000998
8.323,54.1271,0.000998
8.353,54.0962,0.000998
8.368,54.0798,0.000998
8.385,54.0636,0.000998
8.401,54.0479,0.000998
8.417,54.0319,0.000998
8.433,54.0164,0.000998
8.448,54.0012,0.000998
8.464,53.9860,0.001120
8.480,53.9714,0.001120
8.497,53.9560,0.001120
8.512,53.9419,0.001120
8.529,53.9273,0.001120
8.544,53.9134,0.001120
8.560,53.8992,0.001120
8.577,53.8852,0.001120
8.592,53.8721,0.001120
8.609,53.8580,0.001120
8.625,53.8449,0.001120
8.640,53.8324,0.001120
8.656,53.8195,0.001120
8.673,53.8065,0.001120
8.689,53.7938,0.001120
8.704,53.7820,0.001120
8.720,53.7697,0.001120
8.742,53.7536,0.001224
8.759,53.7418,0.001224
8.775,53.7304,0.001224
8.790,53.7195,0.001224
8.808,53.7070,0.001224
8.833,53.6902,0.001224
8.854,53.6762,0.001224
8.871,53.6658,0.001224
8.887,53.6555,0.001224
8.902,53.6463,0.001224
8.919,53.6364,0.001224
8.935,53.6264,0.001224
8.951,53.6177,0.001224
8.966,53.6089,0.001252
8.982,53.5997,0.001252
8.999,53.5909,0.001252
9.014,53.5826,0.001252
9.030,53.5744,0.001252
9.046,53.5663,0.001252
9.062,53.5583,0.001252
9.078,53.5506,0.001252
9.094,53.5432,0.001252
9.110,53.5356,0.001252
9.127,53.5283,0.001252
9.143,53.5212,0.001252
9.158,53.5149,0.001252
9.177,53.5071,0.001252
9.192,53.5005,0.001252
9.220,53.4907,0.001243
9.238,53.4840,0.001243
9.254,53.4784,0.001243
9.270,53.4730,0.001243
9.299,53.4635,0.001243
9.321,53.4570,0.001243
9.345,53.4503,0.001243
9.363,53.4452,0.001243
9.379,53.4412,0.001243
9.395,53.4374,0.001243
9.411,53.4336,0.001243
9.431,53.4290,0.001243
9.453,53.4250,0.001243
9.484,53.4193,0.001205
9.500,53.4165,0.001205
9.530,53.4121,0.001205
9.561,53.4082,0.001205
9.577,53.4066,0.001205
9.593,53.4051,0.001205
9.623,53.4028,0.001205
9.639,53.4019,0.001205
9.655,53.4011,0.001205
9.685,53.4003,0.001205
9.701,53.4000,0.001252
9.717,53.4000,0.001252
9.733,53.4000,0.001252
9.749,53.4000,0.001252
9.779,53.4000,0.001252
9.798,53.4000,0.001252
9.827,53.4000,0.001252
9.857,53.4000,0.001252
9.874,53.4000,0.001252
9.890,53.4002,0.001252
9.906,53.4005,0.001252
9.925,53.4011,0.001252
9.941,53.4020,0.001252
9.967,53.4036,0.001327
9.986,53.4051,0.001327
10.002,53.4066,0.001327
10.018,53.4083,0.001327
10.034,53.4103,0.001327
10.050,53.4123,0.001327
10.066,53.4147,0.001327
10.082,53.4169,0.001327
10.099,53.4199,0.001327
10.114,53.4226,0.001327
10.130,53.4256,0.001327
10.146,53.4289,0.001327
10.162,53.4323,0.001327
10.178,53.4360,0.001327
10.194,53.4396,0.001327
10.210,53.4437,0.001148
10.227,53.4483,0.001148
10.242,53.4525,0.001148
10.258,53.4568,0.001148
10.274,53.4617,0.001148
10.290,53.4668,0.001148
10.306,53.4721,0.001148
10.322,53.4773,0.001148
10.353,53.4882,0.001148
10.384,53.5002,0.001148
10.400,53.5062,0.001148
10.417,53.5130,0.001148
10.446,53.5257,0.001139
10.464,53.5334,0.001139
10.480,53.5412,0.001139
10.496,53.5481,0.001139
10.512,53.5558,0.001139
10.528,53.5636,0.001139
10.545,53.5723,0.001139
10.570,53.5852,0.001139
10.600,53.6022,0.001139
10.631,53.6193,0.001139
10.661,53.6374,0.001139
10.692,53.6558,0.001139
10.708,53.6657,0.001280
10.739,53.6858,0.001280
10.755,53.6963,0.001280
10.771,53.7069,0.001280
10.786,53.7181,0.001280
10.802,53.7286,0.001280
10.833,53.7506,0.001280
10.850,53.7637,0.001280
10.879,53.7851,0.001280
10.909,53.8082,0.001280
10.924,53.8212,0.001280
10.940,53.8336,0.001280
10.957,53.8470,0.001290
10.973,53.8604,0.001290
10.988,53.8735,0.001290
11.005,53.8873,0.001290
11.021,53.9012,0.001290
11.036,53.9150,0.001290
11.052,53.9291,0.001290
11.069,53.9439,0.001290
11.085,53.9590,0.001290
11.102,53.9741,0.001290
11.124,53.9955,0.001290
11.140,54.0113,0.001290
11.171,54.0409,0.001290
11.201,54.0714,0.001290
11.233,54.1022,0.001290
11.248,54.1195,0.001271
11.265,54.1362,0.001271
11.295,54.1677,0.001271
11.325,54.2015,0.001271
11.341,54.2196,0.001271
11.357,54.2368,0.001271
11.372,54.2543,0.001271
11.389,54.2736,0.001271
11.419,54.3080,0.001271
11.446,54.3404,0.001271
11.463,54.3600,0.001271
11.478,54.3789,0.001167
11.494,54.3983,0.001167
11.512,54.4204,0.001167
11.527,54.4387,0.001167
11.542,54.4584,0.001167
11.559,54.4790,0.001167
11.575,54.5000,0.001167
11.590,54.5201,0.001167
11.607,54.5418,0.001167
11.623,54.5624,0.001167
11.639,54.5848,0.001167
11.655,54.6055,0.001167
11.670,54.6266,0.001167
11.686,54.6482,0.001167
11.705,54.6742,0.001167
11.728,54.7077,0.001064
11.750,54.7381,0.001064
11.766,54.7609,0.001064
11.782,54.7838,0.001064
11.798,54.8068,0.001064
11.814,54.8308,0.001064
11.831,54.8548,0.001064
11.846,54.8776,0.001064
11.862,54.9020,0.001064
11.879,54.9268,0.001064
11.895,54.9519,0.001064
11.910,54.9751,0.001064
11.927,55.0005,0.001064
11.942,55.0254,0.001064
11.968,55.0667,0.001064
11.985,55.0928,0.001064
12.000,55.1173,0.000932
12.016,55.1431,0.000932
12.032,55.1690,0.000932
12.048,55.1953,0.000932
12.064,55.2217,0.000932
12.081,55.2497,0.000932
12.096,55.2755,0.000932
12.112,55.3024,0.000932
12.130,55.3323,0.000932
12.148,55.3632,0.000932
12.179,55.4173,0.000932
12.210,55.4713,0.000932
12.225,55.4992,0.000762
12.240,55.5263,0.000762
12.259,55.5595,0.000762
12.286,55.6090,0.000762
12.304,55.6427,0.000762
12.321,55.6725,0.000762
12.336,55.7015,0.000762
12.352,55.7322,0.000762
12.368,55.7623,0.000762
12.385,55.7936,0.000762
12.410,55.8424,0.000762
12.426,55.8719,0.000762
12.456,55.9316,0.000762
12.486,55.9905,0.000762
12.507,56.0317,0.000621
12.523,56.0645,0.000621
12.539,56.0957,0.000621
12.555,56.1292,0.000621
12.571,56.1631,0.000621
12.587,56.1938,0.000621
12.603,56.2264,0.000621
12.619,56.2616,0.000621
12.635,56.2946,0.000621
12.651,56.3270,0.000621
12.667,56.3601,0.000621
12.683,56.3956,0.000621
12.700,56.4307,0.000621
12.719,56.4710,0.000499
12.735,56.5035,0.000499
12.764,56.5678,0.000499
12.779,56.5967,0.000499
12.795,56.6285,0.000499
12.815,56.6703,0.000499
12.836,56.7132,0.000499
12.857,56.7541,0.000499
12.875,56.7911,0.000499
12.891,56.8228,0.000499
12.907,56.8538,0.000499
12.923,56.8846,0.000499
12.939,56.9161,0.000499
12.955,56.9468,0.000499
12.971,56.9784,0.000461
12.988,57.0095,0.000461
13.004,57.0415,0.000461
13.020,57.0716,0.000461
13.044,57.1163,0.000461
13.075,57.1721,0.000461
13.106,57.2309,0.000461
13.122,57.2583,0.000461
13.138,57.2869,0.000461
13.154,57.3153,0.000461
13.185,57.3690,0.000461
13.216,57.4237,0.000414
13.231,57.4515,0.000414
13.263,57.5064,0.000414
13.294,57.5570,0.000414
13.324,57.6073,0.000414
13.354,57.6560,0.000414
13.377,57.6922,0.000414
13.401,57.7308,0.000414
13.419,57.7595,0.000414
13.435,57.7850,0.000414
13.451,57.8091,0.000414
13.467,57.8336,0.000320
13.483,57.8583,0.000320
13.505,57.8917,0.000320
13.526,57.9245,0.000320
13.547,57.9555,0.000320
13.563,57.9787,0.000320
13.579,58.0022,0.000320
13.594,58.0245,0.000320
13.619,58.0601,0.000320
13.648,58.1018,0.000320
13.666,58.1256,0.000320
13.682,58.1479,0.000320
13.698,58.1695,0.000320
13.714,58.1907,0.000245
13.730,58.2124,0.000245
13.746,58.2345,0.000245
13.762,58.2553,0.000245
13.778,58.2764,0.000245
13.794,58.2968,0.000245
13.813,58.3219,0.000245
13.835,58.3496,0.000245
13.865,58.3881,0.000245
13.881,58.4062,0.000245
13.911,58.4436,0.000245
13.928,58.4642,0.000245
13.958,58.4986,0.000122
13.989,58.5355,0.000122
14.020,58.5699,0.000122
14.035,58.5873,0.000122
14.052,58.6067,0.000122
14.068,58.6227,0.000122
14.098,58.6551,0.000122
14.115,58.6745,0.000122
14.145,58.7040,0.000122
14.175,58.7344,0.000122
14.191,58.7506,0.000122
14.207,58.7661,0.000075
14.223,58.7815,0.000075
14.239,58.7977,0.000075
14.255,58.8123,0.000075
14.270,58.8270,0.000075
14.286,58.8416,0.000075
14.304,58.8577,0.000075
14.319,58.8709,0.000075
14.334,58.8848,0.000075
14.351,58.8991,0.000075
14.367,58.9135,0.000075
14.383,58.9270,0.000075
14.398,58.9400,0.000075
14.415,58.9534,0.000075
14.431,58.9672,0.000075
14.447,58.9792,0.000000
14.462,58.9916,0.000000
14.478,59.0042,0.000000
14.494,59.0169,0.000000
14.510,59.0286,0.000000
14.526,59.0405,0.000000
14.543,59.0531,0.000000
14.564,59.0684,0.000000
14.593,59.0879,0.000000
14.608,59.0984,0.000000
14.624,59.1088,0.000000
14.655,59.1293,0.000000
14.672,59.1409,0.000000
14.701,59.1579,0.000000
14.733,59.1770,-0.000104
14.750,59.1863,-0.000104
14.770,59.1980,-0.000104
14.793,59.2106,-0.000104
14.813,59.2209,-0.000104
14.829,59.2291,-0.000104
14.845,59.2372,-0.000104
14.862,59.2451,-0.000104
14.877,59.2527,-0.000104
14.894,59.2604,-0.000104
14.909,59.2675,-0.000104
14.925,59.2746,-0.000104
14.941,59.2813,-0.000104
14.958,59.2884,-0.000226
14.974,59.2946,-0.000226
14.989,59.3008,-0.000226
15.005,59.3071,-0.000226
15.021,59.3128,-0.000226
15.037,59.3187,-0.000226
15.053,59.3241,-0.000226
15.069,59.3296,-0.000226
15.085,59.3348,-0.000226
15.101,59.3396,-0.000226
15.117,59.3442,-0.000226
15.133,59.3489,-0.000226
15.150,59.3533,-0.000226
15.165,59.3572,-0.000226
15.181,59.3613,-0.000226
15.197,59.3651,-0.000424
15.214,59.3689,-0.000424
15.230,59.3721,-0.000424
15.245,59.3752,-0.000424
15.272,59.3802,-0.000424
15.288,59.3828,-0.000424
15.304,59.3853,-0.000424
15.319,59.3875,-0.000424
15.336,59.3897,-0.000424
15.351,59.3916,-0.000424
15.367,59.3932,-0.000424
15.383,59.3947,-0.000424
15.399,59.3961,-0.000424
15.415,59.3972,-0.000424
15.431,59.3982,-0.000424
15.447,59.3989,-0.000424
15.465,59.3995,-0.000424
15.489,59.4000,-0.000659
15.511,59.4000,-0.000659
15.527,59.4000,-0.000659
15.544,59.4000,-0.000659
15.567,59.4000,-0.000659
15.583,59.4000,-0.000659
15.598,59.4000,-0.000659
15.614,59.4000,-0.000659
15.645,59.4000,-0.000659
15.660,59.4000,-0.000659
15.676,59.4000,-0.000659
15.707,59.4000,-0.000659
15.722,59.4000,-0.000659
15.739,59.4000,-0.000650
15.769,59.4000,-0.000650
15.800,59.4000,-0.000650
15.830,59.4000,-0.000650
15.846,59.4000,-0.000650
15.862,59.4000,-0.000650
15.878,59.4000,-0.000650
15.896,59.4000,-0.000650
15.922,59.4000,-0.000650
15.942,59.4000,-0.000650
15.958,59.4000,-0.000650
15.974,59.4000,-0.000650
15.990,59.4000,-0.000424
16.006,59.4000,-0.000424
16.022,59.4000,-0.000424
16.038,59.4000,-0.000424
16.054,59.4000,-0.000424
16.070,59.4000,-0.000424
16.086,59.4000,-0.000424
16.102,59.4000,-0.000424
16.118,59.4000,-0.000424
16.134,59.4000,-0.000424
16.150,59.4000,-0.000424
16.166,59.4000,-0.000424
16.182,59.4000,-0.000424
16.198,59.4000,-0.000424
16.214,59.4000,-0.000424
16.230,59.4000,-0.000311
16.246,59.4000,-0.000311
16.262,59.4000,-0.000311
16.278,59.4000,-0.000311
16.294,59.4000,-0.000311
16.310,59.4000,-0.000311
16.327,59.4000,-0.000311
16.355,59.4000,-0.000311
16.385,59.4000,-0.000311
16.401,59.4000,-0.000311
16.417,59.4000,-0.000311
16.432,59.4000,-0.000311
16.457,59.4000,-0.000311
16.481,59.4000,-0.000311
16.497,59.4000,-0.000311
16.512,59.4000,-0.000292
16.529,59.4000,-0.000292
16.545,59.4000,-0.000292
16.561,59.4000,-0.000292
16.577,59.4000,-0.000292
16.593,59.4000,-0.000292
16.609,59.4000,-0.000292
16.625,59.4000,-0.000292
16.641,59.4000,-0.000292
16.658,59.4000,-0.000292
16.681,59.4000,-0.000292
16.713,59.4000,-0.000292
16.742,59.4000,-0.000292
16.757,59.4000,-0.000217
16.774,59.4000,-0.000217
16.804,59.4000,-0.000217
16.835,59.4000,-0.000217
16.866,59.4000,-0.000217
16.882,59.4000,-0.000217
16.912,59.4000,-0.000217
16.942,59.4000,-0.000217
16.958,59.4000,-0.000217
16.974,59.4000,-0.000217
16.989,59.4000,-0.000217
17.007,59.4000,-0.000217
17.036,59.4000,-0.000217
17.054,59.4000,-0.000217
17.070,59.4000,-0.000217
17.085,59.4000,-0.000217
17.102,59.4000,-0.000217
17.118,59.4000,-0.000217
17.134,59.4000,-0.000217
17.149,59.4000,-0.000217
17.165,59.4000,-0.000217
17.181,59.4000,-0.000217
17.198,59.4000,-0.000217
17.214,59.4000,-0.000217
17.229,59.4000,-0.000292
17.246,59.4000,-0.000292
17.261,59.4000,-0.000292
17.277,59.4000,-0.000292
17.294,59.4000,-0.000292
17.309,59.4000,-0.000292
17.325,59.4000,-0.000292
17.341,59.4000,-0.000292
17.357,59.4000,-0.000292
17.373,59.4000,-0.000292
17.390,59.4000,-0.000292
17.406,59.4000,-0.000292
17.421,59.4000,-0.000292
17.442,59.4000,-0.000292
17.469,59.4000,-0.000292
17.492,59.4000,-0.000292
17.515,59.4000,-0.000273
17.534,59.4000,-0.000273
17.550,59.4000,-0.000273
17.566,59.4000,-0.000273
17.581,59.4000,-0.000273
17.603,59.4000,-0.000273
17.627,59.4000,-0.000273
17.645,59.4000,-0.000273
17.661,59.4000,-0.000273
17.677,59.4000,-0.000273
17.693,59.4000,-0.000273
17.709,59.4000,-0.000245
17.727,59.4000,-0.000245
17.742,59.4000,-0.000245
17.757,59.4000,-0.000245
17.773,59.4000,-0.000245
17.790,59.4000,-0.000245
17.806,59.4000,-0.000245
17.821,59.4000,-0.000245
17.837,59.4000,-0.000245
17.853,59.4000,-0.000245
17.870,59.4000,-0.000245
17.886,59.4000,-0.000245
17.903,59.4000,-0.000245
17.932,59.4000,-0.000245
17.949,59.4000,-0.000273
17.967,59.4000,-0.000273
17.995,59.4000,-0.000273
18.023,59.4000,-0.000273
18.041,59.4000,-0.000273
18.057,59.4000,-0.000273
18.073,59.4000,-0.000273
18.091,59.4000,-0.000273
18.110,59.4000,-0.000273
18.135,59.4000,-0.000273
18.151,59.4000,-0.000273
18.167,59.4000,-0.000273
18.183,59.4000,-0.000273
18.199,59.4000,-0.000273
18.216,59.4000,-0.000273
18.243,59.4000,-0.000273
18.263,59.4000,-0.000273
18.280,59.4000,-0.000273
18.295,59.4000,-0.000273
18.311,59.4000,-0.000273
18.327,59.4000,-0.000273
18.343,59.4000,-0.000273
18.359,59.4000,-0.000273
18.375,59.4000,-0.000273
18.391,59.4000,-0.000273
18.407,59.4000,-0.000273
18.423,59.4000,-0.000273
18.439,59.4000,-0.000273
18.455,59.4000,-0.000292
18.472,59.4000,-0.000292
18.491,59.4000,-0.000292
18.507,59.4000,-0.000292
18.523,59.4000,-0.000292
18.546,59.4000,-0.000292
18.568,59.4000,-0.000292
18.584,59.4000,-0.000292
18.616,59.4000,-0.000292
18.646,59.4000,-0.000292
18.662,59.4000,-0.000292
18.677,59.4000,-0.000292
18.693,59.4000,-0.000292
18.709,59.4000,-0.000292
18.724,59.4000,-0.000292
18.755,59.4000,-0.000301
18.786,59.4000,-0.000301
18.802,59.4000,-0.000301
18.818,59.4000,-0.000301
18.840,59.4000,-0.000301
18.866,59.4000,-0.000301
18.882,59.4000,-0.000301
18.898,59.4000,-0.000301
18.914,59.4000,-0.000301
18.931,59.4000,-0.000301
18.946,59.4000,-0.000301
18.963,59.4000,-0.000301
18.979,59.4000,-0.000301
18.994,59.4000,-0.000264
19.010,59.4000,-0.000264
19.032,59.4000,-0.000264
19.048,59.4000,-0.000264
19.064,59.4000,-0.000264
19.095,59.4000,-0.000264
19.125,59.4000,-0.000264
19.141,59.4000,-0.000264
19.172,59.4000,-0.000264
19.187,59.4000,-0.000264
19.218,59.4000,-0.000264
19.234,59.4000,-0.000339
19.250,59.4000,-0.000339
19.266,59.4000,-0.000339
19.282,59.4000,-0.000339
19.297,59.4000,-0.000339
19.314,59.4000,-0.000339
19.330,59.4000,-0.000339
19.346,59.4000,-0.000339
19.362,59.4000,-0.000339
19.378,59.4000,-0.000339
19.397,59.4000,-0.000339
19.422,59.4000,-0.000339
19.442,59.4000,-0.000339
19.458,59.4000,-0.000339
19.474,59.4000,-0.000339
19.490,59.4000,-0.000499
19.506,59.4000,-0.000499
19.522,59.4000,-0.000499
19.538,59.4000,-0.000499
19.554,59.4000,-0.000499
19.570,59.4000,-0.000499
19.596,59.4000,-0.000499
19.623,59.4000,-0.000499
19.654,59.4000,-0.000499
19.670,59.4000,-0.000499
19.701,59.4000,-0.000499
19.717,59.3999,-0.000499
19.733,59.3995,-0.000518
19.749,59.3990,-0.000518
19.778,59.3974,-0.000518
19.794,59.3964,-0.000518
19.809,59.3952,-0.000518
19.831,59.3931,-0.000518
19.854,59.3905,-0.000518
19.874,59.3881,-0.000518
19.890,59.3858,-0.000518
19.905,59.3835,-0.000518
19.922,59.3807,-0.000518
19.949,59.3758,-0.000518
19.970,59.3716,-0.000518
19.985,59.3684,-0.000273
20.002,59.3647,-0.000273
20.018,59.3607,-0.000273
20.034,59.3569,-0.000273
20.049,59.3529,-0.000273
20.066,59.3483,-0.000273
20.081,59.3439,-0.000273
20.097,59.3391,-0.000273
20.113,59.3341,-0.000273
20.129,59.3290,-0.000273
20.146,59.3235,-0.000273
20.162,59.3179,-0.000273
20.177,59.3122,-0.000273
20.200,59.3042,-0.000273
20.216,59.2976,-0.000273
20.232,59.2915,0.002033
20.247,59.2851,0.002033
20.264,59.2781,0.002033
20.280,59.2712,0.002033
20.295,59.2641,0.002033
20.314,59.2555,0.002033
20.339,59.2431,0.002033
20.359,59.2336,0.002033
20.375,59.2254,0.002033
20.392,59.2167,0.002033
20.407,59.2087,0.002033
20.423,59.2000,0.002033
20.440,59.1907,0.002033
20.456,59.1818,0.004735
20.471,59.1727,0.004735
20.488,59.1625,0.004735
20.504,59.1532,0.004735
20.519,59.1437,0.004735
20.535,59.1336,0.004735
20.552,59.1226,0.004735
20.568,59.1124,0.004735
20.583,59.1021,0.004735
20.599,59.0915,0.004735
20.616,59.0801,0.004735
20.631,59.0691,0.004735
20.647,59.0576,0.004735
20.664,59.0453,0.004735
20.680,59.0337,0.004735
20.696,59.0220,0.004735
20.711,59.0101,0.004735
20.738,58.9885,0.007352
20.755,58.9761,0.007352
20.770,58.9633,0.007352
20.786,58.9504,0.007352
20.803,58.9363,0.007352
20.819,58.9233,0.007352
20.835,58.9094,0.007352
20.850,58.8961,0.007352
20.866,58.8815,0.007352
20.882,58.8676,0.007352
20.899,58.8528,0.007352
20.914,58.8382,0.007352
20.931,58.8230,0.007352
20.946,58.8088,0.007352
20.963,58.7931,0.012651
20.978,58.7782,0.012651
20.995,58.7611,0.012651
21.017,58.7392,0.012651
21.033,58.7242,0.012651
21.048,58.7084,0.012651
21.079,58.6757,0.012651
21.109,58.6444,0.012651
21.140,58.6115,0.012651
21.155,58.5945,0.012651
21.170,58.5778,0.012651
21.186,58.5589,0.012651
21.202,58.5417,0.008001
21.218,58.5229,0.008001
21.234,58.5046,0.008001
21.250,58.4862,0.008001
21.266,58.4675,0.008001
21.294,58.4333,0.008001
21.317,58.4052,0.008001
21.341,58.3757,0.008001
21.357,58.3555,0.008001
21.373,58.3350,0.008001
21.389,58.3154,0.008001
21.405,58.2945,0.008001
21.422,58.2724,0.008001
21.437,58.2519,0.008001
21.453,58.2309,0.000113
21.469,58.2106,0.000113
21.488,58.1852,0.000113
21.511,58.1536,0.000113
21.541,58.1107,0.000113
21.574,58.0645,0.000113
21.603,58.0241,0.000113
21.619,58.0001,0.000113
21.650,57.9539,0.000113
21.665,57.9321,0.000113
21.696,57.8858,0.000113
21.728,57.8381,0.000141
21.744,57.8130,0.000141
21.774,57.7657,0.000141
21.790,57.7399,0.000141
21.821,57.6910,0.000141
21.850,57.6440,0.000141
21.866,57.6173,0.000141
21.882,57.5908,0.000141
21.898,57.5647,0.000141
21.914,57.5379,0.000141
21.931,57.5097,0.000141
21.946,57.4836,0.000179
21.962,57.4576,0.000179
21.978,57.4298,0.000179
21.994,57.4007,0.000179
22.010,57.3741,0.000179
22.026,57.3461,0.000179
22.042,57.3179,0.000179
22.058,57.2887,0.000179
22.074,57.2600,0.000179
22.090,57.2319,0.000179
22.106,57.2023,0.000179
22.122,57.1723,0.000179
22.138,57.1438,0.000179
22.154,57.1143,0.000179
22.171,57.0825,0.000179
22.192,57.0431,0.000179
22.207,57.0131,0.000264
22.239,56.9529,0.000264
22.270,56.8923,0.000264
22.286,56.8614,0.000264
22.318,56.7990,0.000264
22.333,56.7670,0.000264
22.364,56.7061,0.000264
22.393,56.6475,0.000264
22.409,56.6137,0.000264
22.424,56.5814,0.000264
22.441,56.5492,0.000264
22.458,56.5130,0.000264
22.473,56.4820,0.000264
22.489,56.4483,0.000386
22.505,56.4149,0.000386
22.521,56.3778,0.000386
22.537,56.3453,0.000386
22.552,56.3127,0.000386
22.569,56.2781,0.000386
22.585,56.2434,0.000386
22.601,56.2106,0.000386
22.616,56.1789,0.000386
22.633,56.1457,0.000386
22.649,56.1120,0.000386
22.664,56.0804,0.000386
22.680,56.0481,0.000386
22.697,56.0152,0.000386
22.714,55.9806,0.000386
22.733,55.9421,0.000452
22.764,55.8791,0.000452
22.779,55.8505,0.000452
22.798,55.8160,0.000452
22.827,55.7587,0.000452
22.858,55.7008,0.000452
22.874,55.6711,0.000452
22.890,55.6390,0.000452
22.906,55.6110,0.000452
22.922,55.5818,0.000452
22.951,55.5281,0.000452
22.967,55.5000,0.000452
22.983,55.4711,0.000508
22.998,55.4436,0.000508
23.017,55.4104,0.000508
23.045,55.3615,0.000508
23.062,55.3312,0.000508
23.079,55.3024,0.000508
23.094,55.2759,0.000508
23.110,55.2491,0.000508
23.126,55.2218,0.000508
23.142,55.1951,0.000508
23.159,55.1681,0.000508
23.174,55.1422,0.000508
23.190,55.1160,0.000508
23.209,55.0851,0.000508
23.231,55.0504,0.000508
23.247,55.0241,0.000650
23.278,54.9734,0.000650
23.309,54.9263,0.000650
23.340,54.8791,0.000650
23.355,54.8563,0.000650
23.387,54.8096,0.000650
23.402,54.7859,0.000650
23.418,54.7637,0.000650
23.448,54.7191,0.000650
23.464,54.6958,0.000650
23.480,54.6742,0.000650
23.509,54.6323,0.000810
23.526,54.6098,0.000810
23.541,54.5890,0.000810
23.558,54.5665,0.000810
23.575,54.5432,0.000810
23.604,54.5036,0.000810
23.621,54.4818,0.000810
23.638,54.4602,0.000810
23.654,54.4396,0.000810
23.670,54.4185,0.000810
23.685,54.3995,0.000810
23.702,54.3786,0.000810
23.718,54.3586,0.000810
23.733,54.3398,0.000979
23.749,54.3205,0.000979
23.765,54.3011,0.000979
23.781,54.2821,0.000979
23.797,54.2634,0.000979
23.813,54.2443,0.000979
23.830,54.2252,0.000979
23.845,54.2074,0.000979
23.861,54.1891,0.000979
23.877,54.1712,0.000979
23.893,54.1537,0.000979
23.909,54.1364,0.000979
23.925,54.1190,0.000979
23.941,54.1019,0.000979
23.957,54.0848,0.000979
23.973,54.0675,0.001111
23.989,54.0516,0.001111
24.010,54.0292,0.001111
24.034,54.0059,0.001111
24.052,53.9883,0.001111
24.067,53.9731,0.001111
24.098,53.9434,0.001111
24.129,53.9147,0.001111
24.144,53.9002,0.001111
24.160,53.8861,0.001111
24.176,53.8719,0.001111
24.192,53.8579,0.001111
24.208,53.8435,0.001111
24.224,53.8301,0.001177
24.240,53.8169,0.001177
24.258,53.8015,0.001177
24.285,53.7798,0.001177
24.308,53.7606,0.001177
24.331,53.7433,0.001177
24.352,53.7268,0.001177
24.368,53.7152,0.001177
24.384,53.7031,0.001177
24.400,53.6915,0.001177
24.416,53.6807,0.001177
24.432,53.6694,0.001177
24.448,53.6580,0.001177
24.464,53.6470,0.001177
24.480,53.6365,0.001130
24.496,53.6265,0.001130
24.512,53.6157,0.001130
24.528,53.6062,0.001130
24.543,53.5964,0.001130
24.560,53.5866,0.001130
24.576,53.5770,0.001130
24.592,53.5677,0.001130
24.608,53.5585,0.001130
24.624,53.5496,0.001130
24.640,53.5409,0.001130
24.656,53.5327,0.001130
24.672,53.5244,0.001130
24.691,53.5138,0.001130
24.710,53.5052,0.001130
24.735,53.4930,0.001243
24.752,53.4855,0.001243
24.768,53.4785,0.001243
24.784,53.4715,0.001243
24.800,53.4646,0.001243
24.816,53.4577,0.001243
24.832,53.4519,0.001243
24.848,53.4454,0.001243
24.864,53.4397,0.001243
24.880,53.4338,0.001243
24.896,53.4283,0.001243
24.912,53.4226,0.001243
24.928,53.4176,0.001243
24.944,53.4124,0.001243
24.960,53.4078,0.001243
24.976,53.4033,0.001356
24.992,53.3988,0.001356
25.008,53.3943,0.001356
25.024,53.3905,0.001356
25.040,53.3866,0.001356
25.056,53.3828,0.001356
25.081,53.3775,0.001356
25.097,53.3744,0.001356
25.113,53.3714,0.001356
25.129,53.3684,0.001356
25.145,53.3660,0.001356
25.161,53.3637,0.001356
25.177,53.3613,0.001356
25.193,53.3593,0.001356
25.209,53.3576,0.001290
25.225,53.3560,0.001290
25.241,53.3546,0.001290
25.257,53.3534,0.001290
25.273,53.3523,0.001290
25.289,53.3515,0.001290
25.305,53.3508,0.001290
25.321,53.3504,0.001290
25.337,53.3502,0.001290
25.353,53.3500,0.001290
25.369,53.3500,0.001290
25.385,53.3500,0.001290
25.414,53.3500,0.001290
25.433,53.3500,0.001290
25.460,53.3500,0.001224
25.481,53.3500,0.001224
25.497,53.3502,0.001224
25.512,53.3504,0.001224
25.529,53.3508,0.001224
25.544,53.3514,0.001224
25.562,53.3523,0.001224
25.584,53.3538,0.001224
25.608,53.3559,0.001224
25.624,53.3575,0.001224
25.646,53.3600,0.001224
25.676,53.3641,0.001224
25.692,53.3665,0.001224
25.707,53.3689,0.001233
25.723,53.3717,0.001233
25.756,53.3780,0.001233
25.785,53.3844,0.001233
25.801,53.3881,0.001233
25.817,53.3920,0.001233
25.848,53.4000,0.001233
25.863,53.4046,0.001233
25.879,53.4092,0.001233
25.895,53.4140,0.001233
25.912,53.4195,0.001233
25.941,53.4289,0.001233
25.959,53.4356,0.001280
25.976,53.4417,0.001280
25.991,53.4475,0.001280
26.007,53.4537,0.001280
26.023,53.4604,0.001280
26.039,53.4669,0.001280
26.056,53.4741,0.001280
26.071,53.4806,0.001280
26.088,53.4881,0.001280
26.104,53.4954,0.001280
26.119,53.5035,0.001280
26.143,53.5143,0.001280
26.158,53.5222,0.001280
26.174,53.5305,0.001280
26.191,53.5396,0.001280
26.207,53.5484,0.001280
26.223,53.5568,0.001280
26.239,53.5656,0.001299
26.255,53.5748,0.001299
26.271,53.5843,0.001299
26.286,53.5936,0.001299
26.303,53.6038,0.001299
26.318,53.6133,0.001299
26.336,53.6248,0.001299
26.358,53.6391,0.001299
26.388,53.6595,0.001299
26.404,53.6705,0.001299
26.435,53.6926,0.001299
26.466,53.7154,0.001299
26.498,53.7395,0.001252
26.528,53.7630,0.001252
26.559,53.7871,0.001252
26.575,53.8006,0.001252
26.590,53.8133,0.001252
26.606,53.8267,0.001252
26.622,53.8403,0.001252
26.639,53.8548,0.001252
26.654,53.8682,0.001252
26.671,53.8832,0.001252
26.698,53.9077,0.001252
26.728,53.9363,0.001195
26.744,53.9512,0.001195
26.761,53.9676,0.001195
26.778,53.9833,0.001195
26.806,54.0126,0.001195
26.825,54.0307,0.001195
26.840,54.0461,0.001195
26.857,54.0632,0.001195
26.873,54.0797,0.001195
26.888,54.0964,0.001195
26.904,54.1137,0.001195
26.921,54.1318,0.001195
26.936,54.1483,0.001195
26.953,54.1666,0.001195
26.968,54.1835,0.001195
26.984,54.2016,0.001148
27.000,54.2204,0.001148
27.016,54.2387,0.001148
27.032,54.2569,0.001148
27.048,54.2756,0.001148
27.064,54.2947,0.001148
27.080,54.3151,0.001148
27.096,54.3334,0.001148
27.112,54.3538,0.001148
27.128,54.3736,0.001148
27.144,54.3932,0.001148
27.160,54.4134,0.001148
27.176,54.4336,0.001148
27.192,54.4545,0.001148
27.208,54.4751,0.001148
27.224,54.4964,0.001148
27.255,54.5376,0.001064
27.271,54.5598,0.001064
27.287,54.5805,0.001064
27.303,54.6026,0.001064
27.321,54.6267,0.001064
27.349,54.6682,0.001064
27.367,54.6920,0.001064
27.386,54.7199,0.001064
27.411,54.7559,0.001064
27.431,54.7843,0.001064
27.447,54.8083,0.001064
27.463,54.8326,0.001064
27.479,54.8572,0.000922
27.495,54.8810,0.000922
27.511,54.9062,0.000922
27.527,54.9294,0.000922
27.543,54.9543,0.000922
27.559,54.9796,0.000922
27.575,55.0058,0.000922
27.591,55.0301,0.000922
27.607,55.0559,0.000922
27.623,55.0817,0.000922
27.639,55.1082,0.000922
27.655,55.1335,0.000922
27.671,55.1598,0.000922
27.687,55.1868,0.000922
27.703,55.2132,0.000922
27.719,55.2412,0.000744
27.735,55.2681,0.000744
27.752,55.2976,0.000744
27.782,55.3487,0.000744
27.811,55.3997,0.000744
27.827,55.4288,0.000744
27.843,55.4557,0.000744
27.859,55.4852,0.000744
27.876,55.5162,0.000744
27.906,55.5709,0.000744
27.923,55.6018,0.000744
27.940,55.6328,0.000744
27.967,55.6837,0.000640
27.987,55.7208,0.000640
28.003,55.7521,0.000640
28.019,55.7826,0.000640
28.036,55.8176,0.000640
28.060,55.8623,0.000640
28.076,55.8924,0.000640
28.092,55.9239,0.000640
28.122,55.9854,0.000640
28.155,56.0512,0.000640
28.185,56.1116,0.000640
28.200,56.1422,0.000640
28.215,56.1733,0.000640
28.231,56.2082,0.000527
28.262,56.2719,0.000527
28.278,56.3048,0.000527
28.294,56.3406,0.000527
28.310,56.3732,0.000527
28.334,56.4250,0.000527
28.350,56.4561,0.000527
28.366,56.4907,0.000527
28.382,56.5234,0.000527
28.397,56.5558,0.000527
28.414,56.5890,0.000527
28.430,56.6215,0.000527
28.445,56.6539,0.000527
28.462,56.6871,0.000433
28.478,56.7191,0.000433
28.493,56.7494,0.000433
28.509,56.7825,0.000433
28.526,56.8129,0.000433
28.541,56.8442,0.000433
28.558,56.8775,0.000433
28.573,56.9058,0.000433
28.589,56.9368,0.000433
28.606,56.9677,0.000433
28.621,56.9978,0.000433
28.638,57.0281,0.000433
28.654,57.0583,0.000433
28.669,57.0869,0.000433
28.689,57.1221,0.000433
28.711,57.1634,0.000433
28.727,57.1932,0.000405
28.744,57.2233,0.000405
28.774,57.2769,0.000405
28.790,57.3054,0.000405
28.820,57.3572,0.000405
28.850,57.4104,0.000405
28.870,57.4433,0.000405
28.886,57.4706,0.000405
28.902,57.4971,0.000405
28.919,57.5264,0.000405
28.944,57.5672,0.000405
28.975,57.6166,0.000320
29.005,57.6652,0.000320
29.021,57.6907,0.000320
29.051,57.7400,0.000320
29.067,57.7635,0.000320
29.083,57.7871,0.000320
29.098,57.8117,0.000320
29.129,57.8573,0.000320
29.145,57.8816,0.000320
29.161,57.9044,0.000320
29.190,57.9493,0.000320
29.207,57.9718,0.000160
29.222,57.9950,0.000160
29.239,58.0187,0.000160
29.255,58.0409,0.000160
29.271,58.0638,0.000160
29.286,58.0846,0.000160
29.308,58.1154,0.000160
29.329,58.1434,0.000160
29.350,58.1720,0.000160
29.366,58.1930,0.000160
29.382,58.2140,0.000160
29.398,58.2352,0.000160
29.420,58.2636,0.000160
29.436,58.2846,0.000160
29.452,58.3039,0.000075
29.468,58.3239,0.000075
29.484,58.3436,0.000075
29.500,58.3636,0.000075
29.517,58.3835,0.000075
29.532,58.4021,0.000075
29.551,58.4256,0.000075
29.576,58.4537,0.000075
29.597,58.4779,0.000075
29.613,58.4960,0.000075
29.629,58.5145,0.000075
29.644,58.5317,0.000075
29.660,58.5496,0.000075
29.677,58.5673,0.000075
29.692,58.5840,0.000075
29.708,58.6010,0.000047
29.724,58.6182,0.000047
29.740,58.6353,0.000047
29.756,58.6518,0.000047
29.772,58.6676,0.000047
29.789,58.6852,0.000047
29.816,58.7120,0.000047
29.836,58.7311,0.000047
29.852,58.7466,0.000047
29.868,58.7618,0.000047
29.885,58.7772,0.000047
29.900,58.7915,0.000047
29.917,58.8074,0.000047
29.941,58.8294,0.000047
29.957,58.8432,0.000047
29.973,58.8568,-0.000009
29.989,58.8707,-0.000009
30.005,58.8840,-0.000009
30.021,58.8971,-0.000009
30.046,58.9180,-0.000009
30.075,58.9411,-0.000009
30.105,58.9642,-0.000009
30.136,58.9875,-0.000009
30.166,59.0095,-0.000009
30.181,59.0200,-0.000009
30.197,59.0312,-0.000094
30.213,59.0425,-0.000094
30.230,59.0536,-0.000094
30.245,59.0641,-0.000094
30.261,59.0745,-0.000094
30.277,59.0843,-0.000094
30.295,59.0956,-0.000094
30.310,59.1047,-0.000094
30.335,59.1197,-0.000094
30.365,59.1371,-0.000094
30.380,59.1460,-0.000094
30.411,59.1630,-0.000094
30.426,59.1707,-0.000094
30.457,59.1862,-0.000094
30.488,59.2015,-0.000207
30.518,59.2154,-0.000207
30.534,59.2226,-0.000207
30.550,59.2291,-0.000207
30.565,59.2357,-0.000207
30.582,59.2426,-0.000207
30.598,59.2488,-0.000207
30.613,59.2549,-0.000207
30.629,59.2608,-0.000207
30.645,59.2665,-0.000207
30.662,59.2725,-0.000207
30.688,59.2810,-0.000207
30.709,59.2877,-0.000377
30.725,59.2925,-0.000377
30.741,59.2971,-0.000377
30.757,59.3016,-0.000377
30.774,59.3060,-0.000377
30.790,59.3101,-0.000377
30.805,59.3136,-0.000377
30.821,59.3173,-0.000377
30.837,59.3209,-0.000377
30.853,59.3241,-0.000377
30.869,59.3271,-0.000377
30.885,59.3301,-0.000377
30.901,59.3327,-0.000377
30.917,59.3353,-0.000377
30.933,59.3375,-0.000377
30.950,59.3398,-0.000377
30.972,59.3422,-0.000377
30.997,59.3447,-0.000377
31.028,59.3472,-0.000687
31.044,59.3482,-0.000687
31.060,59.3489,-0.000687
31.076,59.3494,-0.000687
31.092,59.3498,-0.000687
31.108,59.3501,-0.000687
31.128,59.3501,-0.000687
31.151,59.3501,-0.000687
31.172,59.3501,-0.000687
31.187,59.3501,-0.000687
31.204,59.3501,-0.000819
31.220,59.3501,-0.000819
31.236,59.3501,-0.000819
31.252,59.3501,-0.000819
31.268,59.3501,-0.000819
31.284,59.3501,-0.000819
31.300,59.3501,-0.000819
31.316,59.3501,-0.000819
31.332,59.3501,-0.000819
31.347,59.3501,-0.000819
31.363,59.3501,-0.000819
31.380,59.3501,-0.000819
31.396,59.3501,-0.000819
31.412,59.3501,-0.000819
31.427,59.3501,-0.000819
31.444,59.3501,-0.000819
31.461,59.3501,-0.000819
31.491,59.3501,-0.000602
31.508,59.3501,-0.000602
31.524,59.3501,-0.000602
31.540,59.3501,-0.000602
31.556,59.3501,-0.000602
31.583,59.3501,-0.000602
31.599,59.3501,-0.000602
31.614,59.3501,-0.000602
31.630,59.3501,-0.000602
31.645,59.3501,-0.000602
31.661,59.3501,-0.000602
31.677,59.3501,-0.000602
31.693,59.3501,-0.000602
31.709,59.3501,-0.000602
31.725,59.3501,-0.000602
31.742,59.3501,-0.000414
31.757,59.3501,-0.000414
31.774,59.3501,-0.000414
31.790,59.3501,-0.000414
31.806,59.3501,-0.000414
31.821,59.3501,-0.000414
31.841,59.3501,-0.000414
31.863,59.3501,-0.000414
31.894,59.3501,-0.000414
31.925,59.3501,-0.000414
31.941,59.3501,-0.000414
31.958,59.3501,-0.000414
31.987,59.3501,-0.000329
32.003,59.3501,-0.000329
32.019,59.3501,-0.000329
32.035,59.3501,-0.000329
32.066,59.3501,-0.000329
32.097,59.3501,-0.000329
32.127,59.3501,-0.000329
32.157,59.3501,-0.000329
32.173,59.3501,-0.000329
32.189,59.3501,-0.000329
32.205,59.3501,-0.000329
32.221,59.3501,-0.000292
32.237,59.3501,-0.000292
32.254,59.3501,-0.000292
32.269,59.3501,-0.000292
32.285,59.3501,-0.000292
32.301,59.3501,-0.000292
32.317,59.3501,-0.000292
32.334,59.3501,-0.000292
32.349,59.3501,-0.000292
32.365,59.3501,-0.000292
32.382,59.3501,-0.000292
32.397,59.3501,-0.000292
32.413,59.3501,-0.000292
32.429,59.3501,-0.000292
32.446,59.3501,-0.000292
32.462,59.3501,-0.000301
32.477,59.3501,-0.000301
32.493,59.3501,-0.000301
32.510,59.3501,-0.000301
32.525,59.3501,-0.000301
32.541,59.3501,-0.000301
32.557,59.3501,-0.000301
32.573,59.3501,-0.000301
32.590,59.3501,-0.000301
32.620,59.3501,-0.000301
32.636,59.3501,-0.000301
32.651,59.3501,-0.000301
32.668,59.3501,-0.000301
32.689,59.3501,-0.000301
32.714,59.3501,-0.000301
32.732,59.3501,-0.000358
32.748,59.3501,-0.000358
32.764,59.3501,-0.000358
32.779,59.3501,-0.000358
32.795,59.3501,-0.000358
32.811,59.3501,-0.000358
32.827,59.3501,-0.000358
32.843,59.3501,-0.000358
32.859,59.3501,-0.000358
32.876,59.3501,-0.000358
32.891,59.3501,-0.000358
32.907,59.3501,-0.000358
32.923,59.3501,-0.000358
32.939,59.3501,-0.000358
32.955,59.3501,-0.000405
32.971,59.3501,-0.000405
32.987,59.3501,-0.000405
33.003,59.3501,-0.000405
33.019,59.3501,-0.000405
33.035,59.3501,-0.000405
33.051,59.3501,-0.000405
33.067,59.3501,-0.000405
33.083,59.3501,-0.000405
33.100,59.3501,-0.000405
33.118,59.3501,-0.000405
33.144,59.3501,-0.000405
33.163,59.3501,-0.000405
33.179,59.3501,-0.000405
33.196,59.3501,-0.000405
33.220,59.3501,-0.000358
33.236,59.3501,-0.000358
33.252,59.3501,-0.000358
33.283,59.3501,-0.000358
33.313,59.3501,-0.000358
33.343,59.3501,-0.000358
33.374,59.3501,-0.000358
33.404,59.3501,-0.000358
33.421,59.3501,-0.000358
33.450,59.3501,-0.000348
33.467,59.3501,-0.000348
33.483,59.3501,-0.000348
33.499,59.3501,-0.000348
33.516,59.3501,-0.000348
33.545,59.3501,-0.000348
33.565,59.3501,-0.000348
33.588,59.3501,-0.000348
33.604,59.3501,-0.000348
33.635,59.3501,-0.000348
33.665,59.3501,-0.000348
33.689,59.3501,-0.000348
33.706,59.3501,-0.000348
33.721,59.3501,-0.000348
33.737,59.3501,-0.000348
33.753,59.3501,-0.000348
33.769,59.3501,-0.000348
33.785,59.3501,-0.000348
33.801,59.3501,-0.000348
33.817,59.3501,-0.000348
33.833,59.3501,-0.000348
33.856,59.3501,-0.000348
33.879,59.3501,-0.000348
33.897,59.3501,-0.000348
33.913,59.3501,-0.000348
33.929,59.3501,-0.000348
33.945,59.3501,-0.000348
33.961,59.3501,-0.000320
33.977,59.3501,-0.000320
33.993,59.3501,-0.000320
34.009,59.3501,-0.000320
34.024,59.3501,-0.000320
34.041,59.3501,-0.000320
34.056,59.3501,-0.000320
34.073,59.3501,-0.000320
34.088,59.3501,-0.000320
34.104,59.3501,-0.000320
34.121,59.3501,-0.000320
34.136,59.3501,-0.000320
34.152,59.3501,-0.000320
34.168,59.3501,-0.000320
34.184,59.3501,-0.000320
34.201,59.3501,-0.000320
34.225,59.3501,-0.000320
34.241,59.3501,-0.000320
34.257,59.3501,-0.000264
34.273,59.3501,-0.000264
34.288,59.3501,-0.000264
34.305,59.3501,-0.000264
34.321,59.3501,-0.000264
34.336,59.3501,-0.000264
34.353,59.3501,-0.000264
34.368,59.3501,-0.000264
34.385,59.3501,-0.000264
34.400,59.3501,-0.000264
34.417,59.3501,-0.000264
34.433,59.3501,-0.000264
34.449,59.3501,-0.000282
34.465,59.3501,-0.000282
34.480,59.3501,-0.000282
34.497,59.3501,-0.000282
34.514,59.3501,-0.000282
34.543,59.3501,-0.000282
34.561,59.3501,-0.000282
34.577,59.3501,-0.000282
34.593,59.3501,-0.000282
34.608,59.3501,-0.000282
34.625,59.3501,-0.000282
34.641,59.3501,-0.000282
34.657,59.3501,-0.000282
34.682,59.3501,-0.000282
34.713,59.3501,-0.000282
34.729,59.3501,-0.000282
34.759,59.3501,-0.000348
34.774,59.3501,-0.000348
34.805,59.3501,-0.000348
34.822,59.3501,-0.000348
34.852,59.3501,-0.000348
34.882,59.3501,-0.000348
34.912,59.3501,-0.000348
34.930,59.3501,-0.000348
34.960,59.3501,-0.000424
34.976,59.3501,-0.000424
34.993,59.3501,-0.000424
35.009,59.3501,-0.000424
35.025,59.3501,-0.000424
35.041,59.3501,-0.000424
35.057,59.3501,-0.000424
35.073,59.3501,-0.000424
35.089,59.3501,-0.000424
35.113,59.3501,-0.000424
35.129,59.3501,-0.000424
35.160,59.3501,-0.000424
35.175,59.3501,-0.000424
35.191,59.3501,-0.000424
35.222,59.3501,-0.000546
35.252,59.3501,-0.000546
35.283,59.3501,-0.000546
35.298,59.3501,-0.000546
35.314,59.3501,-0.000546
35.345,59.3501,-0.000546
35.376,59.3497,-0.000546
35.393,59.3492,-0.000546
35.408,59.3484,-0.000546
35.430,59.3472,-0.000546
35.454,59.3455,-0.000659
35.473,59.3439,-0.000659
35.489,59.3421,-0.000659
35.505,59.3403,-0.000659
35.521,59.3381,-0.000659
35.536,59.3360,-0.000659
35.552,59.3337,-0.000659
35.568,59.3311,-0.000659
35.584,59.3282,-0.000659
35.600,59.3252,-0.000659
35.616,59.3220,-0.000659
35.633,59.3185,-0.000659
35.648,59.3151,-0.000659
35.665,59.3109,-0.000659
35.690,59.3047,-0.000659
35.716,59.2976,0.000395
35.733,59.2928,0.000395
35.763,59.2837,0.000395
35.793,59.2735,0.000395
35.809,59.2681,0.000395
35.825,59.2622,0.000395
35.846,59.2546,0.000395
35.871,59.2449,0.000395
35.888,59.2379,0.000395
35.904,59.2314,0.000395
35.920,59.2245,0.000395
35.938,59.2162,0.000395
35.964,59.2044,0.003398
35.984,59.1950,0.003398
36.002,59.1858,0.003398
36.026,59.1741,0.003398
36.057,59.1578,0.003398
36.087,59.1409,0.003398
36.118,59.1232,0.003398
36.149,59.1047,0.003398
36.164,59.0949,0.003398
36.197,59.0746,0.003398
36.226,59.0549,0.005921
36.257,59.0343,0.005921
36.287,59.0132,0.005921
36.307,58.9989,0.005921
36.334,58.9784,0.005921
36.366,58.9539,0.005921
36.382,58.9424,0.005921
36.398,58.9294,0.005921
36.414,58.9166,0.005921
36.431,58.9028,0.005921
36.458,58.8795,0.009103
36.478,58.8635,0.009103
36.494,58.8491,0.009103
36.510,58.8352,0.009103
36.526,58.8207,0.009103
36.542,58.8071,0.009103
36.558,58.7919,0.009103
36.575,58.7766,0.009103
36.590,58.7628,0.009103
36.606,58.7470,0.009103
36.622,58.7317,0.009103
36.638,58.7163,0.009103
36.654,58.7004,0.009103
36.670,58.6847,0.009103
36.686,58.6678,0.009103
36.702,58.6523,0.014402
36.718,58.6357,0.014402
36.734,58.6191,0.014402
36.750,58.6021,0.014402
36.767,58.5840,0.014402
36.782,58.5678,0.014402
36.798,58.5487,0.014402
36.814,58.5325,0.014402
36.830,58.5144,0.014402
36.846,58.4957,0.014402
36.864,58.4748,0.014402
36.892,58.4433,0.014402
36.924,58.4049,0.014402
36.940,58.3858,0.014402
36.956,58.3669,0.008594
36.972,58.3470,0.008594
36.989,58.3260,0.008594
37.016,58.2915,0.008594
37.035,58.2672,0.008594
37.053,58.2451,0.008594
37.068,58.2248,0.008594
37.084,58.2043,0.008594
37.101,58.1819,0.008594
37.116,58.1617,0.008594
37.132,58.1401,0.008594
37.147,58.1189,0.008594
37.164,58.0964,0.008594
37.180,58.0736,0.008594
37.195,58.0525,0.000104
37.211,58.0301,0.000104
37.228,58.0066,0.000104
37.244,57.9833,0.000104
37.259,57.9614,0.000104
37.276,57.9379,0.000104
37.291,57.9146,0.000104
37.308,57.8899,0.000104
37.323,57.8669,0.000104
37.339,57.8419,0.000104
37.358,57.8140,0.000104
37.386,57.7715,0.000104
37.404,57.7443,0.000104
37.420,57.7182,0.000104
37.435,57.6945,0.000104
37.452,57.6673,0.000104
37.476,57.6290,0.000217
37.493,57.6016,0.000217
37.509,57.5760,0.000217
37.525,57.5506,0.000217
37.540,57.5244,0.000217
37.557,57.4959,0.000217
37.573,57.4695,0.000217
37.588,57.4434,0.000217
37.606,57.4127,0.000217
37.635,57.3622,0.000217
37.652,57.3331,0.000217
37.669,57.3045,0.000217
37.685,57.2759,0.000217
37.701,57.2480,0.000282
37.717,57.2172,0.000282
37.733,57.1906,0.000282
37.749,57.1617,0.000282
37.765,57.1319,0.000282
37.780,57.1036,0.000282
37.797,57.0720,0.000282
37.813,57.0432,0.000282
37.828,57.0137,0.000282
37.844,56.9838,0.000282
37.863,56.9481,0.000282
37.878,56.9198,0.000282
37.898,56.8807,0.000282
37.930,56.8192,0.000282
37.960,56.7590,0.000405
37.976,56.7256,0.000405
38.001,56.6777,0.000405
38.019,56.6410,0.000405
38.038,56.6034,0.000405
38.068,56.5422,0.000405
38.098,56.4780,0.000405
38.128,56.4140,0.000405
38.145,56.3809,0.000405
38.175,56.3161,0.000405
38.193,56.2756,0.000405
38.222,56.2176,0.000471
38.239,56.1806,0.000471
38.256,56.1462,0.000471
38.272,56.1137,0.000471
38.287,56.0813,0.000471
38.304,56.0466,0.000471
38.322,56.0071,0.000471
38.345,55.9636,0.000471
38.375,55.9037,0.000471
38.406,55.8430,0.000471
38.421,55.8138,0.000471
38.452,55.7526,0.000471
38.468,55.7232,0.000461
38.483,55.6941,0.000461
38.513,55.6355,0.000461
38.534,55.5977,0.000461
38.550,55.5683,0.000461
38.566,55.5391,0.000461
38.582,55.5078,0.000461
38.598,55.4805,0.000461
38.614,55.4508,0.000461
38.630,55.4224,0.000461
38.646,55.3932,0.000461
38.662,55.3651,0.000461
38.678,55.3374,0.000461
38.694,55.3094,0.000461
38.710,55.2817,0.000461
38.726,55.2538,0.000546
38.742,55.2268,0.000546
38.759,55.1973,0.000546
38.774,55.1706,0.000546
38.790,55.1445,0.000546
38.806,55.1182,0.000546
38.824,55.0897,0.000546
38.853,55.0420,0.000546
38.870,55.0138,0.000546
38.887,54.9867,0.000546
38.902,54.9624,0.000546
38.918,54.9377,0.000546
38.934,54.9127,0.000546
38.950,54.8869,0.000546
38.966,54.8626,0.000546
38.983,54.8365,0.000659
39.009,54.7967,0.000659
39.030,54.7665,0.000659
39.046,54.7422,0.000659
39.062,54.7193,0.000659
39.088,54.6808,0.000659
39.104,54.6574,0.000659
39.120,54.6351,0.000659
39.135,54.6129,0.000659
39.152,54.5899,0.000659
39.168,54.5678,0.000659
39.184,54.5459,0.000659
39.200,54.5241,0.000659
39.217,54.5006,0.000659
39.232,54.4803,0.000659
39.248,54.4597,0.000791
39.264,54.4386,0.000791
39.280,54.4168,0.000791
39.296,54.3971,0.000791
39.311,54.3766,0.000791
39.328,54.3556,0.000791
39.344,54.3359,0.000791
39.360,54.3162,0.000791
39.376,54.2958,0.000791
39.392,54.2769,0.000791
39.408,54.2573,0.000791
39.424,54.2381,0.000791
39.440,54.2192,0.000791
39.456,54.1992,0.000791
39.472,54.1820,0.000791
39.488,54.1628,0.000988
39.504,54.1450,0.000988
39.520,54.1273,0.000988
39.536,54.1091,0.000988
39.552,54.0920,0.000988
39.568,54.0746,0.000988
39.584,54.0574,0.000988
39.600,54.0401,0.000988
39.616,54.0230,0.000988
39.639,53.9986,0.000988
39.657,53.9810,0.000988
39.673,53.9646,0.000988
39.688,53.9493,0.000988
39.712,53.9258,0.000988
39.735,53.9042,0.000988
39.752,53.8874,0.001120
39.767,53.8733,0.001120
39.784,53.8579,0.001120
39.799,53.8438,0.001120
39.816,53.8294,0.001120
39.832,53.8143,0.001120
39.851,53.7970,0.001120
39.877,53.7759,0.001120
39.895,53.7602,0.001120
39.912,53.7467,0.001120
39.928,53.7335,0.001120
39.944,53.7209,0.001120
39.959,53.7082,0.001120
39.976,53.6956,0.001120
39.991,53.6834,0.001186
40.008,53.6711,0.001186
40.026,53.6577,0.001186
40.043,53.6446,0.001186
40.063,53.6306,0.001186
40.094,53.6094,0.001186
40.124,53.5892,0.001186
40.140,53.5786,0.001186
40.163,53.5637,0.001186
40.179,53.5534,0.001186
40.195,53.5440,0.001186
40.212,53.5341,0.001186
40.227,53.5249,0.001224
40.243,53.5156,0.001224
40.260,53.5064,0.001224
40.275,53.4975,0.001224
40.292,53.4890,0.001224
40.307,53.4806,0.001224
40.324,53.4722,0.001224
40.340,53.4641,0.001224
40.355,53.4565,0.001224
40.371,53.4484,0.001224
40.389,53.4407,0.001224
40.418,53.4276,0.001224
40.436,53.4197,0.001224
40.452,53.4129,0.001224
40.467,53.4067,0.001224
40.484,53.4003,0.001280
40.500,53.3938,0.001280
40.516,53.3880,0.001280
40.532,53.3823,0.001280
40.548,53.3767,0.001280
40.564,53.3715,0.001280
40.580,53.3662,0.001280
40.596,53.3613,0.001280
40.611,53.3567,0.001280
40.628,53.3519,0.001280
40.644,53.3476,0.001280
40.659,53.3436,0.001280
40.675,53.3394,0.001280
40.698,53.3342,0.001280
40.713,53.3308,0.001280
40.729,53.3273,0.001327
40.745,53.3242,0.001327
40.761,53.3213,0.001327
40.777,53.3185,0.001327
40.794,53.3159,0.001327
40.809,53.3136,0.001327
40.826,53.3112,0.001327
40.850,53.3082,0.001327
40.866,53.3066,0.001327
40.898,53.3039,0.001327
40.928,53.3019,0.001327
40.944,53.3012,0.001327
40.959,53.3007,0.001327
40.990,53.3001,0.001299
41.020,53.3001,0.001299
41.051,53.3001,0.001299
41.067,53.3001,0.001299
41.097,53.3001,0.001299
41.113,53.3001,0.001299
41.130,53.3001,0.001299
41.145,53.3001,0.001299
41.161,53.3001,0.001299
41.177,53.3001,0.001299
41.194,53.3003,0.001299
41.209,53.3007,0.001299
41.225,53.3013,0.001299
41.249,53.3025,0.001318
41.266,53.3037,0.001318
41.281,53.3049,0.001318
41.297,53.3064,0.001318
41.314,53.3081,0.001318
41.329,53.3099,0.001318
41.345,53.3118,0.001318
41.361,53.3141,0.001318
41.379,53.3169,0.001318
41.405,53.3213,0.001318
41.425,53.3251,0.001318
41.441,53.3283,0.001318
41.457,53.3317,0.001318
41.473,53.3354,0.001290
41.489,53.3391,0.001290
41.505,53.3431,0.001290
41.521,53.3472,0.001290
41.537,53.3515,0.001290
41.553,53.3561,0.001290
41.570,53.3610,0.001290
41.585,53.3658,0.001290
41.601,53.3710,0.001290
41.617,53.3763,0.001290
41.633,53.3819,0.001290
41.649,53.3875,0.001290
41.665,53.3936,0.001290
41.681,53.3997,0.001290
41.697,53.4060,0.001290
41.714,53.4127,0.001233
41.729,53.4190,0.001233
41.745,53.4259,0.001233
41.761,53.4330,0.001233
41.777,53.4403,0.001233
41.806,53.4543,0.001233
41.823,53.4622,0.001233
41.853,53.4775,0.001233
41.870,53.4867,0.001233
41.899,53.5027,0.001233
41.917,53.5124,0.001233
41.933,53.5217,0.001233
41.949,53.5306,0.001233
41.965,53.5402,0.001261
41.981,53.5500,0.001261
41.997,53.5601,0.001261
42.013,53.5701,0.001261
42.032,53.5823,0.001261
42.055,53.5981,0.001261
42.087,53.6199,0.001261
42.109,53.6354,0.001261
42.125,53.6468,0.001261
42.141,53.6581,0.001261
42.157,53.6699,0.001261
42.173,53.6819,0.001261
42.189,53.6942,0.001261
42.205,53.7066,0.001271
42.221,53.7195,0.001271
42.237,53.7323,0.001271
42.253,53.7453,0.001271
42.269,53.7583,0.001271
42.285,53.7722,0.001271
42.301,53.7857,0.001271
42.317,53.7993,0.001271
42.333,53.8140,0.001271
42.362,53.8392,0.001271
42.378,53.8540,0.001271
42.393,53.8685,0.001271
42.410,53.8837,0.001271
42.426,53.8986,0.001271
42.444,53.9158,0.001271
42.475,53.9464,0.001252
42.498,53.9697,0.001252
42.520,53.9921,0.001252
42.538,54.0097,0.001252
42.554,54.0268,0.001252
42.570,54.0437,0.001252
42.585,54.0606,0.001252
42.602,54.0792,0.001252
42.622,54.1000,0.001252
42.637,54.1170,0.001252
42.660,54.1424,0.001252
42.691,54.1777,0.001252
42.707,54.1971,0.001167
42.723,54.2152,0.001167
42.739,54.2345,0.001167
42.770,54.2718,0.001167
42.801,54.3097,0.001167
42.832,54.3486,0.001167
42.862,54.3870,0.001167
42.878,54.4075,0.001167
42.900,54.4367,0.001167
42.918,54.4593,0.001167
42.939,54.4876,0.001167
42.954,54.5088,0.001167
42.971,54.5294,0.001167
43.001,54.5719,0.001073
43.017,54.5951,0.001073
43.048,54.6375,0.001073
43.079,54.6830,0.001073
43.095,54.7061,0.001073
43.126,54.7504,0.001073
43.141,54.7742,0.001073
43.172,54.8197,0.001073
43.187,54.8433,0.001073
43.206,54.8743,0.001073
43.223,54.8985,0.001073
43.248,54.9368,0.000960
43.268,54.9687,0.000960
43.283,54.9935,0.000960
43.299,55.0194,0.000960
43.316,55.0454,0.000960
43.331,55.0712,0.000960
43.348,55.0984,0.000960
43.364,55.1257,0.000960
43.379,55.1507,0.000960
43.396,55.1788,0.000960
43.411,55.2048,0.000960
43.427,55.2337,0.000960
43.452,55.2740,0.000960
43.480,55.3235,0.000791
43.499,55.3559,0.000791
43.514,55.3843,0.000791
43.531,55.4124,0.000791
43.547,55.4412,0.000791
43.562,55.4694,0.000791
43.582,55.5058,0.000791
43.604,55.5471,0.000791
43.627,55.5877,0.000791
43.643,55.6173,0.000791
43.658,55.6466,0.000791
43.674,55.6781,0.000791
43.691,55.7096,0.000791
43.707,55.7386,0.000791
43.722,55.7692,0.000555
43.738,55.8006,0.000555
43.754,55.8316,0.000555
43.771,55.8633,0.000555
43.786,55.8941,0.000555
43.802,55.9265,0.000555
43.818,55.9589,0.000555
43.834,55.9903,0.000555
43.851,56.0239,0.000555
43.866,56.0551,0.000555
43.882,56.0891,0.000555
43.898,56.1206,0.000555
43.914,56.1542,0.000555
43.930,56.1871,0.000555
43.947,56.2223,0.000555
43.962,56.2553,0.000555
43.979,56.2894,0.000555
44.004,56.3460,0.000424
44.028,56.3961,0.000424
44.051,56.4423,0.000424
44.069,56.4793,0.000424
44.084,56.5104,0.000424
44.101,56.5444,0.000424
44.116,56.5760,0.000424
44.137,56.6183,0.000424
44.159,56.6635,0.000424
44.180,56.7046,0.000424
44.197,56.7370,0.000424
44.212,56.7673,0.000461
44.228,56.7985,0.000461
44.244,56.8299,0.000461
44.260,56.8604,0.000461
44.276,56.8908,0.000461
44.292,56.9213,0.000461
44.308,56.9516,0.000461
44.324,56.9828,0.000461
44.340,57.0122,0.000461
44.355,57.0414,0.000461
44.372,57.0707,0.000461
44.388,57.1004,0.000461
44.404,57.1293,0.000461
44.420,57.1583,0.000461
44.436,57.1871,0.000461
44.453,57.2167,0.000461
44.468,57.2454,0.000499
44.484,57.2719,0.000499
44.501,57.3029,0.000499
44.532,57.3546,0.000499
44.561,57.4051,0.000499
44.577,57.4325,0.000499
44.593,57.4592,0.000499
44.609,57.4850,0.000499
44.627,57.5139,0.000499
44.655,57.5619,0.000499
44.674,57.5910,0.000499
44.692,57.6191,0.000499
44.718,57.6602,0.000339
44.737,57.6911,0.000339
44.753,57.7167,0.000339
44.769,57.7417,0.000339
44.785,57.7649,0.000339
44.801,57.7896,0.000339
44.817,57.8145,0.000339
44.833,57.8373,0.000339
44.849,57.8608,0.000339
44.865,57.8846,0.000339
44.881,57.9079,0.000339
44.897,57.9316,0.000339
44.913,57.9537,0.000339
44.929,57.9770,0.000339
44.946,58.0009,0.000339
44.961,58.0218,0.000141
44.977,58.0440,0.000141
44.993,58.0654,0.000141
45.009,58.0872,0.000141
45.025,58.1102,0.000141
45.041,58.1307,0.000141
45.057,58.1522,0.000141
45.073,58.1733,0.000141
45.089,58.1934,0.000141
45.119,58.2327,0.000141
45.150,58.2718,0.000141
45.166,58.2909,0.000141
45.182,58.3111,0.000141
45.198,58.3307,0.000141
45.214,58.3491,0.000104
45.230,58.3685,0.000104
45.247,58.3884,0.000104
45.274,58.4195,0.000104
45.294,58.4431,0.000104
45.310,58.4609,0.000104
45.326,58.4792,0.000104
45.342,58.4962,0.000104
45.358,58.5139,0.000104
45.374,58.5312,0.000104
45.390,58.5482,0.000104
45.406,58.5654,0.000104
45.422,58.5825,0.000104
45.439,58.6006,0.000104
45.458,58.6198,0.000075
45.474,58.6362,0.000075
45.490,58.6518,0.000075
45.519,58.6804,0.000075
45.550,58.7105,0.000075
45.566,58.7250,0.000075
45.582,58.7394,0.000075
45.598,58.7541,0.000075
45.614,58.7690,0.000075
45.630,58.7825,0.000075
45.645,58.7965,0.000075
45.675,58.8222,0.000075
45.697,58.8412,0.000075
45.720,58.8595,0.000000
45.737,58.8737,0.000000
45.753,58.8866,0.000000
45.770,58.8996,0.000000
45.786,58.9115,0.000000
45.802,58.9243,0.000000
45.817,58.9357,0.000000
45.834,58.9478,0.000000
45.849,58.9589,0.000000
45.870,58.9739,0.000000
45.893,58.9904,0.000000
45.913,59.0034,0.000000
45.929,59.0139,0.000000
45.946,59.0246,0.000000
45.961,59.0345,-0.000141
45.978,59.0450,-0.000141
45.993,59.0549,-0.000141
46.010,59.0642,-0.000141
46.026,59.0739,-0.000141
46.042,59.0835,-0.000141
46.057,59.0920,-0.000141
46.074,59.1011,-0.000141
46.089,59.1094,-0.000141
46.105,59.1185,-0.000141
46.129,59.1305,-0.000141
46.153,59.1421,-0.000141
46.170,59.1502,-0.000141
46.185,59.1576,-0.000141
46.201,59.1650,-0.000141
46.230,59.1778,-0.000226
46.246,59.1842,-0.000226
46.262,59.1909,-0.000226
46.278,59.1973,-0.000226
46.294,59.2036,-0.000226
46.310,59.2095,-0.000226
46.325,59.2151,-0.000226
46.341,59.2208,-0.000226
46.358,59.2266,-0.000226
46.384,59.2351,-0.000226
46.405,59.2414,-0.000226
46.422,59.2462,-0.000226
46.438,59.2507,-0.000226
46.453,59.2549,-0.000395
46.469,59.2589,-0.000395
46.485,59.2629,-0.000395
46.502,59.2666,-0.000395
46.517,59.2701,-0.000395
46.533,59.2734,-0.000395
46.550,59.2766,-0.000395
46.565,59.2794,-0.000395
46.581,59.2821,-0.000395
46.598,59.2849,-0.000395
46.617,59.2875,-0.000395
46.646,59.2913,-0.000395
46.662,59.2930,-0.000395
46.677,59.2945,-0.000395
46.693,59.2959,-0.000395
46.713,59.2972,-0.000395
46.738,59.2987,-0.000602
46.758,59.2995,-0.000602
46.774,59.2998,-0.000602
46.799,59.3001,-0.000602
46.814,59.3001,-0.000602
46.848,59.3001,-0.000602
46.871,59.3001,-0.000602
46.892,59.3001,-0.000602
46.923,59.3001,-0.000602
46.939,59.3001,-0.000602
46.969,59.3001,-0.000602
46.985,59.3001,-0.000584
47.000,59.3001,-0.000584
47.016,59.3001,-0.000584
47.032,59.3001,-0.000584
47.062,59.3001,-0.000584
47.077,59.3001,-0.000584
47.093,59.3001,-0.000584
47.109,59.3001,-0.000584
47.125,59.3001,-0.000584
47.142,59.3001,-0.000584
47.172,59.3001,-0.000584
47.189,59.3001,-0.000584
47.206,59.3001,-0.000584
47.234,59.3001,-0.000499
47.253,59.3001,-0.000499
47.269,59.3001,-0.000499
47.285,59.3001,-0.000499
47.301,59.3001,-0.000499
47.317,59.3001,-0.000499
47.333,59.3001,-0.000499
47.349,59.3001,-0.000499
47.365,59.3001,-0.000499
47.381,59.3001,-0.000499
47.398,59.3001,-0.000499
47.420,59.3001,-0.000499
47.451,59.3001,-0.000499
47.466,59.3001,-0.000499
47.482,59.3001,-0.000442
47.498,59.3001,-0.000442
47.528,59.3001,-0.000442
47.544,59.3001,-0.000442
47.560,59.3001,-0.000442
47.575,59.3001,-0.000442
47.591,59.3001,-0.000442
47.607,59.3001,-0.000442
47.622,59.3001,-0.000442
47.645,59.3001,-0.000442
47.668,59.3001,-0.000442
47.685,59.3001,-0.000442
47.702,59.3001,-0.000442
47.731,59.3001,-0.000377
47.749,59.3001,-0.000377
47.765,59.3001,-0.000377
47.781,59.3001,-0.000377
47.797,59.3001,-0.000377
47.824,59.3001,-0.000377
47.841,59.3001,-0.000377
47.856,59.3001,-0.000377
47.872,59.3001,-0.000377
47.888,59.3001,-0.000377
47.904,59.3001,-0.000377
47.919,59.3001,-0.000377
47.936,59.3001,-0.000377
47.953,59.3001,-0.000377
47.968,59.3001,-0.000377
47.984,59.3001,-0.000301
48.000,59.3001,-0.000301
48.017,59.3001,-0.000301
48.032,59.3001,-0.000301
48.048,59.3001,-0.000301
48.064,59.3001,-0.000301
48.081,59.3001,-0.000301
48.105,59.3001,-0.000301
48.120,59.3001,-0.000301
48.152,59.3001,-0.000301
48.183,59.3001,-0.000301
48.200,59.3001,-0.000301
48.230,59.3001,-0.000301
48.260,59.3001,-0.000301
48.291,59.3001,-0.000301
48.322,59.3001,-0.000301
48.337,59.3001,-0.000301
48.353,59.3001,-0.000301
48.384,59.3001,-0.000301
48.400,59.3001,-0.000301
48.416,59.3001,-0.000301
48.431,59.3001,-0.000301
48.448,59.3001,-0.000301
48.463,59.3001,-0.000301
48.480,59.3001,-0.000311
48.496,59.3001,-0.000311
48.512,59.3001,-0.000311
48.528,59.3001,-0.000311
48.544,59.3001,-0.000311
48.559,59.3001,-0.000311
48.576,59.3001,-0.000311
48.592,59.3001,-0.000311
48.607,59.3001,-0.000311
48.625,59.3001,-0.000311
48.648,59.3001,-0.000311
48.664,59.3001,-0.000311
48.695,59.3001,-0.000311
48.711,59.3001,-0.000311
48.741,59.3001,-0.000226
48.757,59.3001,-0.000226
48.788,59.3001,-0.000226
48.818,59.3001,-0.000226
48.834,59.3001,-0.000226
48.865,59.3001,-0.000226
48.895,59.3001,-0.000226
48.912,59.3001,-0.000226
48.927,59.3001,-0.000226
48.944,59.3001,-0.000226
48.974,59.3001,-0.000217
48.991,59.3001,-0.000217
49.008,59.3001,-0.000217
49.024,59.3001,-0.000217
49.039,59.3001,-0.000217
49.055,59.3001,-0.000217
49.077,59.3001,-0.000217
49.100,59.3001,-0.000217
49.119,59.3001,-0.000217
49.136,59.3001,-0.000217
49.153,59.3001,-0.000217
49.177,59.3001,-0.000217
49.208,59.3001,-0.000217
49.223,59.3001,-0.000282
49.254,59.3001,-0.000282
49.284,59.3001,-0.000282
49.303,59.3001,-0.000282
49.331,59.3001,-0.000282
49.362,59.3001,-0.000282
49.386,59.3001,-0.000282
49.402,59.3001,-0.000282
49.418,59.3001,-0.000282
49.435,59.3001,-0.000282
49.450,59.3001,-0.000282
49.466,59.3001,-0.000377
49.482,59.3001,-0.000377
49.498,59.3001,-0.000377
49.514,59.3001,-0.000377
49.530,59.3001,-0.000377
49.546,59.3001,-0.000377
49.563,59.3001,-0.000377
49.578,59.3001,-0.000377
49.594,59.3001,-0.000377
49.611,59.3001,-0.000377
49.627,59.3001,-0.000377
49.642,59.3001,-0.000377
49.658,59.3001,-0.000377
49.677,59.3001,-0.000377
49.702,59.3001,-0.000386
49.722,59.3001,-0.000386
49.739,59.3001,-0.000386
49.755,59.3001,-0.000386
49.770,59.3001,-0.000386
49.786,59.3001,-0.000386
49.803,59.3001,-0.000386
49.818,59.3001,-0.000386
49.834,59.3001,-0.000386
49.851,59.3001,-0.000386
49.867,59.3001,-0.000386
49.882,59.3001,-0.000386
49.898,59.3001,-0.000386
49.921,59.3001,-0.000386
49.936,59.3001,-0.000386
49.953,59.3001,-0.000264
49.968,59.3001,-0.000264
49.984,59.3001,-0.000264
50.000,59.3001,-0.000264
50.016,59.3001,-0.000264
50.032,59.3001,-0.000264
50.048,59.3001,-0.000264
50.064,59.3001,-0.000264
50.080,59.3001,-0.000264
50.097,59.3001,-0.000264
50.112,59.3001,-0.000264
50.128,59.3001,-0.000264
50.144,59.3001,-0.000264
50.160,59.3001,-0.000264
50.176,59.3001,-0.000264
50.192,59.3001,-0.000264
50.208,59.3001,-0.000245
50.224,59.3001,-0.000245
50.240,59.3001,-0.000245
50.256,59.3001,-0.000245
50.272,59.3001,-0.000245
50.288,59.3001,-0.000245
50.304,59.3001,-0.000245
50.320,59.3001,-0.000245
50.336,59.3001,-0.000245
50.352,59.3001,-0.000245
50.368,59.3001,-0.000245
50.384,59.3001,-0.000245
50.400,59.3001,-0.000245
50.416,59.3001,-0.000245
50.433,59.3001,-0.000245
50.457,59.3001,-0.000245
50.473,59.3001,-0.000245
50.489,59.3001,-0.000292
50.505,59.3001,-0.000292
50.521,59.3001,-0.000292
50.537,59.3001,-0.000292
50.553,59.3001,-0.000292
50.569,59.3001,-0.000292
50.591,59.3001,-0.000292
50.613,59.3001,-0.000292
50.633,59.3001,-0.000292
50.649,59.3001,-0.000292
50.665,59.3001,-0.000292
50.681,59.3001,-0.000292
50.697,59.3001,-0.000292
50.714,59.3001,-0.000292
50.735,59.3001,-0.000292
50.751,59.3001,-0.000395
50.767,59.3001,-0.000395
50.797,59.3001,-0.000395
50.813,59.3001,-0.000395
50.829,59.3001,-0.000395
50.845,59.3001,-0.000395
50.875,59.3001,-0.000395
50.910,59.3001,-0.000395
50.936,59.3001,-0.000395
50.953,59.3001,-0.000395
50.970,59.3001,-0.000395
50.997,59.3001,-0.000527
51.017,59.3001,-0.000527
51.033,59.3001,-0.000527
51.049,59.3001,-0.000527
51.065,59.3001,-0.000527
51.082,59.3001,-0.000527
51.106,59.3001,-0.000527
51.136,59.2996,-0.000527
51.152,59.2991,-0.000527
51.167,59.2983,-0.000527
51.183,59.2973,-0.000527
51.199,59.2962,-0.000527
51.229,59.2937,-0.000659
51.260,59.2903,-0.000659
51.291,59.2862,-0.000659
51.322,59.2812,-0.000659
51.353,59.2758,-0.000659
51.370,59.2724,-0.000659
51.385,59.2691,-0.000659
51.401,59.2657,-0.000659
51.417,59.2619,-0.000659
51.433,59.2578,-0.000659
51.449,59.2537,-0.000659
51.465,59.2495,0.000311
51.481,59.2450,0.000311
51.498,59.2399,0.000311
51.523,59.2321,0.000311
51.553,59.2219,0.000311
51.569,59.2166,0.000311
51.600,59.2048,0.000311
51.632,59.1927,0.000311
51.647,59.1863,0.000311
51.663,59.1795,0.000311
51.693,59.1664,0.000311
51.709,59.1594,0.003351
51.725,59.1515,0.003351
51.740,59.1443,0.003351
51.756,59.1365,0.003351
51.787,59.1209,0.003351
51.817,59.1050,0.003351
51.833,59.0963,0.003351
51.850,59.0866,0.003351
51.865,59.0782,0.003351
51.880,59.0689,0.003351
51.897,59.0596,0.003351
51.913,59.0494,0.003351
51.929,59.0394,0.003351
51.944,59.0297,0.003351
51.962,59.0185,0.005695
51.989,59.0004,0.005695
52.009,58.9869,0.005695
52.026,58.9748,0.005695
52.051,58.9574,0.005695
52.081,58.9347,0.005695
52.112,58.9121,0.005695
52.128,58.8994,0.005695
52.158,58.8762,0.005695
52.189,58.8502,0.005695
52.220,58.8247,0.008792
52.250,58.7986,0.008792
52.266,58.7840,0.008792
52.297,58.7573,0.008792
52.314,58.7412,0.008792
52.344,58.7131,0.008792
52.361,58.6976,0.008792
52.376,58.6823,0.008792
52.393,58.6669,0.008792
52.408,58.6514,0.008792
52.424,58.6353,0.008792
52.441,58.6183,0.008792
52.457,58.6023,0.008792
52.473,58.5857,0.013348
52.489,58.5693,0.013348
52.504,58.5526,0.013348
52.520,58.5358,0.013348
52.537,58.5179,0.013348
52.552,58.5011,0.013348
52.569,58.4819,0.013348
52.593,58.4549,0.013348
52.609,58.4377,0.013348
52.629,58.4138,0.013348
52.646,58.3942,0.013348
52.671,58.3647,0.013348
52.702,58.3271,0.013348
52.733,58.2893,0.007644
52.749,58.2691,0.007644
52.780,58.2309,0.007644
52.810,58.1908,0.007644
52.827,58.1703,0.007644
52.857,58.1302,0.007644
52.889,58.0881,0.007644
52.919,58.0471,0.007644
52.950,58.0034,0.007644
52.965,57.9818,0.000132
52.981,57.9599,0.000132
53.001,57.9297,0.000132
53.018,57.9029,0.000132
53.043,57.8691,0.000132
53.062,57.8429,0.000132
53.078,57.8190,0.000132
53.094,57.7947,0.000132
53.109,57.7714,0.000132
53.126,57.7459,0.000132
53.142,57.7216,0.000132
53.157,57.6962,0.000132
53.182,57.6575,0.000132
53.198,57.6336,0.000132
53.213,57.6079,0.000188
53.229,57.5835,0.000188
53.246,57.5543,0.000188
53.262,57.5301,0.000188
53.277,57.5048,0.000188
53.293,57.4785,0.000188
53.310,57.4490,0.000188
53.337,57.4055,0.000188
53.357,57.3709,0.000188
53.373,57.3421,0.000188
53.389,57.3161,0.000188
53.405,57.2868,0.000188
53.421,57.2600,0.000188
53.437,57.2304,0.000188
53.453,57.2032,0.000254
53.469,57.1748,0.000254
53.485,57.1449,0.000254
53.501,57.1155,0.000254
53.517,57.0872,0.000254
53.533,57.0583,0.000254
53.550,57.0276,0.000254
53.565,56.9986,0.000254
53.581,56.9690,0.000254
53.597,56.9389,0.000254
53.614,56.9059,0.000254
53.632,56.8727,0.000254
53.662,56.8139,0.000254
53.693,56.7523,0.000254
53.709,56.7222,0.000254
53.739,56.6626,0.000367
53.754,56.6316,0.000367
53.770,56.5993,0.000367
53.786,56.5675,0.000367
53.803,56.5326,0.000367
53.833,56.4718,0.000367
53.850,56.4357,0.000367
53.867,56.4005,0.000367
53.882,56.3683,0.000367
53.898,56.3355,0.000367
53.914,56.2991,0.000367
53.931,56.2652,0.000367
53.946,56.2328,0.000367
53.962,56.1990,0.000518
53.978,56.1659,0.000518
53.994,56.1311,0.000518
54.010,56.0993,0.000518
54.026,56.0663,0.000518
54.042,56.0324,0.000518
54.058,55.9992,0.000518
54.074,55.9677,0.000518
54.090,55.9351,0.000518
54.106,55.9026,0.000518
54.122,55.8708,0.000518
54.138,55.8396,0.000518
54.153,55.8082,0.000518
54.171,55.7737,0.000518
54.186,55.7431,0.000518
54.203,55.7126,0.000518
54.218,55.6838,0.000499
54.236,55.6491,0.000499
54.266,55.5924,0.000499
54.295,55.5376,0.000499
54.311,55.5071,0.000499
54.327,55.4782,0.000499
54.343,55.4500,0.000499
54.359,55.4188,0.000499
54.374,55.3920,0.000499
54.391,55.3626,0.000499
54.407,55.3345,0.000499
54.423,55.3039,0.000499
54.441,55.2735,0.000499
54.457,55.2441,0.000499
54.482,55.2022,0.000508
54.503,55.1674,0.000508
54.519,55.1406,0.000508
54.535,55.1134,0.000508
54.551,55.0865,0.000508
54.567,55.0592,0.000508
54.583,55.0338,0.000508
54.599,55.0066,0.000508
54.615,54.9805,0.000508
54.631,54.9545,0.000508
54.653,54.9186,0.000508
54.670,54.8918,0.000508
54.700,54.8455,0.000508
54.716,54.8202,0.000668
54.746,54.7742,0.000668
54.762,54.7494,0.000668
54.778,54.7255,0.000668
54.810,54.6796,0.000668
54.841,54.6334,0.000668
54.872,54.5894,0.000668
54.888,54.5677,0.000668
54.918,54.5238,0.000668
54.934,54.5020,0.000668
54.950,54.4801,0.000857
54.967,54.4577,0.000857
54.996,54.4190,0.000857
55.014,54.3947,0.000857
55.030,54.3736,0.000857
55.046,54.3531,0.000857
55.063,54.3309,0.000857
55.078,54.3121,0.000857
55.096,54.2896,0.000857
55.119,54.2612,0.000857
55.149,54.2242,0.000857
55.180,54.1868,0.000857
55.210,54.1512,0.000857
55.226,54.1334,0.000857
55.257,54.0975,0.001035
55.287,54.0638,0.001035
55.303,54.0467,0.001035
55.332,54.0138,0.001035
55.349,53.9968,0.001035
55.364,53.9805,0.001035
55.380,53.9637,0.001035
55.397,53.9467,0.001035
55.413,53.9304,0.001035
55.428,53.9147,0.001035
55.444,53.8985,0.001035
55.461,53.8819,0.001035
55.476,53.8673,0.001035
55.493,53.8516,0.001120
55.508,53.8371,0.001120
55.525,53.8211,0.001120
55.542,53.8060,0.001120
55.564,53.7852,0.001120
55.595,53.7578,0.001120
55.627,53.7305,0.001120
55.658,53.7039,0.001120
55.688,53.6798,0.001120
55.704,53.6673,0.001120
55.720,53.6544,0.001120
55.735,53.6421,0.001205
55.766,53.6192,0.001205
55.781,53.6073,0.001205
55.797,53.5957,0.001205
55.813,53.5847,0.001205
55.828,53.5739,0.001205
55.844,53.5629,0.001205
55.860,53.5520,0.001205
55.889,53.5327,0.001205
55.905,53.5223,0.001205
55.921,53.5123,0.001205
55.937,53.5025,0.001205
55.960,53.4877,0.001205
55.976,53.4788,0.001205
55.998,53.4660,0.001233
56.017,53.4552,0.001233
56.033,53.4467,0.001233
56.049,53.4379,0.001233
56.065,53.4295,0.001233
56.081,53.4211,0.001233
56.097,53.4130,0.001233
56.113,53.4055,0.001233
56.129,53.3975,0.001233
56.145,53.3899,0.001233
56.161,53.3829,0.001233
56.177,53.3760,0.001233
56.193,53.3689,0.001233
56.209,53.3620,0.001233
56.225,53.3559,0.001224
56.241,53.3494,0.001224
56.257,53.3433,0.001224
56.274,53.3371,0.001224
56.289,53.3316,0.001224
56.305,53.3261,0.001224
56.320,53.3210,0.001224
56.337,53.3157,0.001224
56.353,53.3106,0.001224
56.369,53.3060,0.001224
56.385,53.3016,0.001224
56.401,53.2968,0.001224
56.417,53.2929,0.001224
56.446,53.2857,0.001224
56.467,53.2808,0.001224
56.493,53.2758,0.001224
56.510,53.2725,0.001224
56.526,53.2697,0.001224
56.542,53.2671,0.001224
56.558,53.2646,0.001224
56.577,53.2617,0.001224
56.602,53.2588,0.001224
56.622,53.2567,0.001224
56.638,53.2550,0.001224
56.654,53.2538,0.001224
56.670,53.2527,0.001224
56.686,53.2518,0.001224
56.703,53.2511,0.001224
56.718,53.2506,0.001224
56.734,53.2502,0.001252
56.751,53.2501,0.001252
56.766,53.2501,0.001252
56.782,53.2501,0.001252
56.798,53.2501,0.001252
56.814,53.2501,0.001252
56.830,53.2501,0.001252
56.846,53.2501,0.001252
56.862,53.2501,0.001252
56.878,53.2501,0.001252
56.894,53.2501,0.001252
56.910,53.2501,0.001252
56.926,53.2501,0.001252
56.942,53.2502,0.001252
56.958,53.2506,0.001252
56.973,53.2511,0.001252
57.004,53.2526,0.001299
57.027,53.2543,0.001299
57.051,53.2563,0.001299
57.070,53.2584,0.001299
57.098,53.2617,0.001299
57.116,53.2642,0.001299
57.132,53.2667,0.001299
57.147,53.2693,0.001299
57.163,53.2722,0.001299
57.181,53.2754,0.001299
57.198,53.2790,0.001299
57.220,53.2837,0.001299
57.236,53.2875,0.001243
57.267,53.2951,0.001243
57.298,53.3037,0.001243
57.329,53.3126,0.001243
57.360,53.3229,0.001243
57.391,53.3334,0.001243
57.406,53.3389,0.001243
57.422,53.3450,0.001243
57.440,53.3514,0.001243
57.468,53.3629,0.001214
57.484,53.3695,0.001214
57.501,53.3766,0.001214
57.530,53.3900,0.001214
57.561,53.4045,0.001214
57.591,53.4194,0.001214
57.607,53.4278,0.001214
57.624,53.4364,0.001214
57.639,53.4447,0.001214
57.655,53.4535,0.001214
57.671,53.4625,0.001214
57.688,53.4721,0.001214
57.704,53.4811,0.001214
57.719,53.4907,0.001252
57.735,53.5004,0.001252
57.753,53.5112,0.001252
57.778,53.5270,0.001252
57.809,53.5477,0.001252
57.840,53.5687,0.001252
57.870,53.5900,0.001252
57.902,53.6132,0.001252
57.932,53.6360,0.001252
57.948,53.6482,0.001252
57.979,53.6731,0.001280
58.010,53.6978,0.001280
58.040,53.7232,0.001280
58.072,53.7503,0.001280
58.087,53.7640,0.001280
58.116,53.7896,0.001280
58.133,53.8050,0.001280
58.149,53.8194,0.001280
58.164,53.8341,0.001280
58.180,53.8497,0.001280
58.197,53.8647,0.001280
58.212,53.8799,0.001280
58.228,53.8957,0.001280
58.247,53.9147,0.001280
58.273,53.9405,0.001280
58.292,53.9604,0.001280
58.309,53.9776,0.001280
58.325,53.9947,0.001280
58.341,54.0113,0.001280
58.356,54.0282,0.001280
58.373,54.0464,0.001280
58.388,54.0637,0.001280
58.404,54.0810,0.001280
58.420,54.0991,0.001280
58.436,54.1179,0.001280
58.452,54.1359,0.001233
58.468,54.1545,0.001233
58.484,54.1732,0.001233
58.500,54.1923,0.001233
58.516,54.2118,0.001233
58.532,54.2309,0.001233
58.549,54.2524,0.001233
58.570,54.2777,0.001233
58.596,54.3101,0.001233
58.613,54.3326,0.001233
58.628,54.3522,0.001233
58.644,54.3724,0.001233
58.674,54.4113,0.001233
58.690,54.4330,0.001233
58.706,54.4546,0.001083
58.722,54.4759,0.001083
58.741,54.5016,0.001083
58.767,54.5384,0.001083
58.786,54.5646,0.001083
58.802,54.5884,0.001083
58.818,54.6104,0.001083
58.834,54.6334,0.001083
58.850,54.6566,0.001083
58.866,54.6809,0.001083
58.882,54.7041,0.001083
58.898,54.7272,0.001083
58.914,54.7521,0.001083
58.931,54.7777,0.001083
58.946,54.8004,0.000913
58.962,54.8246,0.000913
58.978,54.8501,0.000913
58.994,54.8748,0.000913
59.010,54.8998,0.000913
59.026,54.9255,0.000913
59.042,54.9503,0.000913
59.058,54.9762,0.000913
59.075,55.0038,0.000913
59.090,55.0283,0.000913
59.106,55.0556,0.000913
59.122,55.0812,0.000913
59.138,55.1078,0.000913
59.154,55.1347,0.000913
59.170,55.1629,0.000913
59.186,55.1892,0.000913
59.202,55.2170,0.000913
59.232,55.2702,0.000744
59.259,55.3176,0.000744
59.279,55.3530,0.000744
59.296,55.3817,0.000744
59.312,55.4107,0.000744
59.327,55.4382,0.000744
59.343,55.4675,0.000744
59.359,55.4976,0.000744
59.375,55.5265,0.000744
59.391,55.5562,0.000744
59.408,55.5885,0.000744
59.423,55.6168,0.000744
59.439,55.6468,0.000744
59.455,55.6772,0.000621
59.471,55.7100,0.000621
59.487,55.7400,0.000621
59.503,55.7704,0.000621
59.518,55.8022,0.000621
59.535,55.8346,0.000621
59.551,55.8647,0.000621
59.567,55.8971,0.000621
59.583,55.9289,0.000621
59.599,55.9624,0.000621
59.615,55.9942,0.000621
59.630,56.0267,0.000621
59.647,56.0595,0.000621
59.664,56.0953,0.000621
59.679,56.1267,0.000621
59.695,56.1593,0.000621
59.712,56.1954,0.000555
59.727,56.2271,0.000555
59.743,56.2608,0.000555
59.759,56.2946,0.000555
59.775,56.3283,0.000555
59.791,56.3626,0.000555
59.806,56.3953,0.000555
59.823,56.4293,0.000555
59.839,56.4614,0.000555
59.855,56.4940,0.000555
59.871,56.5277,0.000555
59.887,56.5590,0.000555
59.903,56.5924,0.000555
59.919,56.6243,0.000555
59.935,56.6554,0.000555
59.951,56.6868,0.000555
59.968,56.7200,0.000555
59.996,56.7758,0.000508
60.016,56.8133,0.000508
60.031,56.8428,0.000508
60.046,56.8721,0.000508
60.063,56.9026,0.000508
60.079,56.9340,0.000508
60.094,56.9626,0.000508
60.110,56.9921,0.000508
60.127,57.0221,0.000508
60.143,57.0513,0.000508
60.158,57.0804,0.000508
60.174,57.1087,0.000508
60.190,57.1376,0.000508
60.207,57.1672,0.000508
60.222,57.1945,0.000508
60.238,57.2224,0.000508
60.255,57.2511,0.000508
60.271,57.2790,0.000508
60.287,57.3056,0.000508
60.303,57.3336,0.000508
60.319,57.3608,0.000508
60.335,57.3890,0.000508
60.351,57.4144,0.000508
60.366,57.4403,0.000508
60.390,57.4808,0.000508
60.413,57.5177,0.000508
60.431,57.5456,0.000508
60.446,57.5709,0.000508
60.463,57.5967,0.000508
60.478,57.6213,0.000311
60.494,57.6461,0.000311
60.513,57.6762,0.000311
60.538,57.7139,0.000311
60.559,57.7449,0.000311
60.575,57.7692,0.000311
60.591,57.7934,0.000311
60.615,57.8289,0.000311
60.631,57.8537,0.000311
60.662,57.8971,0.000311
60.678,57.9189,0.000311
60.694,57.9426,0.000311
60.710,57.9645,0.000311
60.740,58.0055,0.000141
60.771,58.0489,0.000141
60.801,58.0891,0.000141
60.831,58.1288,0.000141
60.846,58.1475,0.000141
60.877,58.1875,0.000141
60.893,58.2075,0.000141
60.908,58.2263,0.000141
60.924,58.2462,0.000141
60.941,58.2661,0.000141
60.957,58.2857,0.000141
60.972,58.3042,0.000132
60.988,58.3234,0.000132
61.004,58.3430,0.000132
61.020,58.3607,0.000132
61.037,58.3802,0.000132
61.052,58.3974,0.000132
61.069,58.4174,0.000132
61.084,58.4334,0.000132
61.100,58.4510,0.000132
61.116,58.4687,0.000132
61.132,58.4862,0.000132
61.148,58.5031,0.000132
61.164,58.5198,0.000132
61.181,58.5379,0.000132
61.197,58.5538,0.000132
61.213,58.5706,0.000132
61.232,58.5900,0.000075
61.247,58.6052,0.000075
61.268,58.6255,0.000075
61.294,58.6516,0.000075
61.310,58.6658,0.000075
61.340,58.6932,0.000075
61.356,58.7081,0.000075
61.372,58.7225,0.000075
61.388,58.7369,0.000075
61.404,58.7504,0.000075
61.431,58.7736,0.000075
61.447,58.7876,0.000075
61.463,58.8004,0.000000
61.479,58.8138,0.000000
61.497,58.8277,0.000000
61.526,58.8515,0.000000
61.543,58.8643,0.000000
61.560,58.8775,0.000000
61.575,58.8883,0.000000
61.591,58.9000,0.000000
61.607,58.9114,0.000000
61.623,58.9232,0.000000
61.639,58.9344,0.000000
61.655,58.9450,0.000000
61.671,58.9558,0.000000
61.687,58.9667,0.000000
61.703,58.9766,0.000000
61.719,58.9868,-0.000056
61.736,58.9977,-0.000056
61.757,59.0101,-0.000056
61.773,59.0195,-0.000056
61.788,59.0288,-0.000056
61.804,59.0383,-0.000056
61.820,59.0468,-0.000056
61.850,59.0632,-0.000056
61.866,59.0720,-0.000056
61.883,59.0802,-0.000056
61.913,59.0952,-0.000056
61.944,59.1099,-0.000056
61.960,59.1169,-0.000056
61.990,59.1302,-0.000198
62.007,59.1371,-0.000198
62.036,59.1489,-0.000198
62.053,59.1555,-0.000198
62.069,59.1613,-0.000198
62.085,59.1671,-0.000198
62.101,59.1727,-0.000198
62.118,59.1787,-0.000198
62.133,59.1834,-0.000198
62.149,59.1883,-0.000198
62.165,59.1930,-0.000198
62.181,59.1978,-0.000198
62.197,59.2022,-0.000198
62.213,59.2064,-0.000386
62.229,59.2104,-0.000386
62.245,59.2142,-0.000386
62.261,59.2177,-0.000386
62.277,59.2212,-0.000386
62.293,59.2244,-0.000386
62.309,59.2276,-0.000386
62.325,59.2304,-0.000386
62.341,59.2331,-0.000386
62.357,59.2356,-0.000386
62.373,59.2378,-0.000386
62.389,59.2399,-0.000386
62.405,59.2418,-0.000386
62.421,59.2435,-0.000386
62.438,59.2451,-0.000386
62.469,59.2475,-0.000678
62.485,59.2484,-0.000678
62.501,59.2491,-0.000678
62.517,59.2496,-0.000678
62.545,59.2501,-0.000678
62.561,59.2501,-0.000678
62.578,59.2501,-0.000678
62.594,59.2501,-0.000678
62.609,59.2501,-0.000678
62.625,59.2501,-0.000678
62.641,59.2501,-0.000678
62.657,59.2501,-0.000678
62.673,59.2501,-0.000678
62.689,59.2501,-0.000678
62.704,59.2501,-0.000725
62.721,59.2501,-0.000725
62.738,59.2501,-0.000725
62.764,59.2501,-0.000725
62.785,59.2501,-0.000725
62.801,59.2501,-0.000725
62.816,59.2501,-0.000725
62.833,59.2501,-0.000725
62.848,59.2501,-0.000725
62.865,59.2501,-0.000725
62.880,59.2501,-0.000725
62.896,59.2501,-0.000725
62.912,59.2501,-0.000725
62.929,59.2501,-0.000725
62.944,59.2501,-0.000725
62.961,59.2501,-0.000452
62.977,59.2501,-0.000452
62.992,59.2501,-0.000452
63.008,59.2501,-0.000452
63.025,59.2501,-0.000452
63.041,59.2501,-0.000452
63.067,59.2501,-0.000452
63.083,59.2501,-0.000452
63.099,59.2501,-0.000452
63.115,59.2501,-0.000452
63.131,59.2501,-0.000452
63.146,59.2501,-0.000452
63.163,59.2501,-0.000452
63.179,59.2501,-0.000452
63.194,59.2501,-0.000452
63.211,59.2501,-0.000348
63.226,59.2501,-0.000348
63.243,59.2501,-0.000348
63.258,59.2501,-0.000348
63.275,59.2501,-0.000348
63.290,59.2501,-0.000348
63.306,59.2501,-0.000348
63.323,59.2501,-0.000348
63.339,59.2501,-0.000348
63.354,59.2501,-0.000348
63.371,59.2501,-0.000348
63.386,59.2501,-0.000348
63.402,59.2501,-0.000348
63.419,59.2501,-0.000348
63.435,59.2501,-0.000348
63.450,59.2501,-0.000339
63.466,59.2501,-0.000339
63.483,59.2501,-0.000339
63.509,59.2501,-0.000339
63.530,59.2501,-0.000339
63.547,59.2501,-0.000339
63.563,59.2501,-0.000339
63.579,59.2501,-0.000339
63.603,59.2501,-0.000339
63.618,59.2501,-0.000339
63.637,59.2501,-0.000339
63.665,59.2501,-0.000339
63.682,59.2501,-0.000339
63.698,59.2501,-0.000282
63.714,59.2501,-0.000282
63.731,59.2501,-0.000282
63.750,59.2501,-0.000282
63.774,59.2501,-0.000282
63.795,59.2501,-0.000282
63.811,59.2501,-0.000282
63.826,59.2501,-0.000282
63.842,59.2501,-0.000282
63.858,59.2501,-0.000282
63.875,59.2501,-0.000282
63.890,59.2501,-0.000282
63.906,59.2501,-0.000282
63.923,59.2501,-0.000282
63.938,59.2501,-0.000282
63.954,59.2501,-0.000311
63.970,59.2501,-0.000311
63.986,59.2501,-0.000311
64.002,59.2501,-0.000311
64.018,59.2501,-0.000311
64.034,59.2501,-0.000311
64.051,59.2501,-0.000311
64.066,59.2501,-0.000311
64.082,59.2501,-0.000311
64.104,59.2501,-0.000311
64.128,59.2501,-0.000311
64.145,59.2501,-0.000311
64.160,59.2501,-0.000311
64.176,59.2501,-0.000311
64.192,59.2501,-0.000311
64.208,59.2501,-0.000377
64.225,59.2501,-0.000377
64.242,59.2501,-0.000377
64.266,59.2501,-0.000377
64.297,59.2501,-0.000377
64.313,59.2501,-0.000377
64.345,59.2501,-0.000377
64.375,59.2501,-0.000377
64.406,59.2501,-0.000377
64.421,59.2501,-0.000377
64.453,59.2501,-0.000377
64.469,59.2501,-0.000377
64.499,59.2501,-0.000348
64.515,59.2501,-0.000348
64.531,59.2501,-0.000348
64.546,59.2501,-0.000348
64.577,59.2501,-0.000348
64.592,59.2501,-0.000348
64.608,59.2501,-0.000348
64.624,59.2501,-0.000348
64.640,59.2501,-0.000348
64.664,59.2501,-0.000348
64.685,59.2501,-0.000348
64.703,59.2501,-0.000348
64.732,59.2501,-0.000292
64.763,59.2501,-0.000292
64.778,59.2501,-0.000292
64.799,59.2501,-0.000292
64.826,59.2501,-0.000292
64.856,59.2501,-0.000292
64.888,59.2501,-0.000292
64.919,59.2501,-0.000292
64.935,59.2501,-0.000292
64.951,59.2501,-0.000245
64.968,59.2501,-0.000245
64.983,59.2501,-0.000245
64.999,59.2501,-0.000245
65.015,59.2501,-0.000245
65.032,59.2501,-0.000245
65.047,59.2501,-0.000245
65.063,59.2501,-0.000245
65.079,59.2501,-0.000245
65.095,59.2501,-0.000245
65.112,59.2501,-0.000245
65.135,59.2501,-0.000245
65.151,59.2501,-0.000245
65.167,59.2501,-0.000245
65.196,59.2501,-0.000245
65.217,59.2501,-0.000282
65.233,59.2501,-0.000282
65.249,59.2501,-0.000282
65.265,59.2501,-0.000282
65.282,59.2501,-0.000282
65.297,59.2501,-0.000282
65.313,59.2501,-0.000282
65.329,59.2501,-0.000282
65.345,59.2501,-0.000282
65.361,59.2501,-0.000282
65.377,59.2501,-0.000282
65.393,59.2501,-0.000282
65.409,59.2501,-0.000282
65.425,59.2501,-0.000282
65.441,59.2501,-0.000282
65.457,59.2501,-0.000282
65.472,59.2501,-0.000282
65.488,59.2501,-0.000301
65.505,59.2501,-0.000301
65.521,59.2501,-0.000301
65.537,59.2501,-0.000301
65.552,59.2501,-0.000301
65.569,59.2501,-0.000301
65.592,59.2501,-0.000301
65.615,59.2501,-0.000301
65.633,59.2501,-0.000301
65.650,59.2501,-0.000301
65.665,59.2501,-0.000301
65.680,59.2501,-0.000301
65.696,59.2501,-0.000301
65.715,59.2501,-0.000301
65.739,59.2501,-0.000311
65.761,59.2501,-0.000311
65.777,59.2501,-0.000311
65.792,59.2501,-0.000311
65.809,59.2501,-0.000311
65.825,59.2501,-0.000311
65.841,59.2501,-0.000311
65.862,59.2501,-0.000311
65.878,59.2501,-0.000311
65.894,59.2501,-0.000311
65.925,59.2501,-0.000311
65.955,59.2501,-0.000311
65.986,59.2501,-0.000292
66.002,59.2501,-0.000292
66.032,59.2501,-0.000292
66.049,59.2501,-0.000292
66.064,59.2501,-0.000292
66.081,59.2501,-0.000292
66.108,59.2501,-0.000292
66.128,59.2501,-0.000292
66.145,59.2501,-0.000292
66.161,59.2501,-0.000292
66.177,59.2501,-0.000292
66.194,59.2501,-0.000292
66.209,59.2501,-0.000292
66.225,59.2501,-0.000292
66.240,59.2501,-0.000235
66.257,59.2501,-0.000235
66.285,59.2501,-0.000235
66.302,59.2501,-0.000235
66.317,59.2501,-0.000235
66.334,59.2501,-0.000235
66.349,59.2501,-0.000235
66.366,59.2501,-0.000235
66.381,59.2501,-0.000235
66.398,59.2501,-0.000235
66.413,59.2501,-0.000235
66.429,59.2501,-0.000235
66.445,59.2501,-0.000235
66.461,59.2501,-0.000235
66.478,59.2501,-0.000339
66.493,59.2501,-0.000339
66.510,59.2501,-0.000339
66.525,59.2501,-0.000339
66.542,59.2501,-0.000339
66.565,59.2501,-0.000339
66.588,59.2501,-0.000339
66.605,59.2501,-0.000339
66.621,59.2501,-0.000339
66.638,59.2501,-0.000339
66.654,59.2501,-0.000339
66.669,59.2501,-0.000339
66.686,59.2501,-0.000339
66.702,59.2501,-0.000339
66.717,59.2501,-0.000339
66.734,59.2501,-0.000471
66.749,59.2501,-0.000471
66.765,59.2501,-0.000471
66.782,59.2501,-0.000471
66.798,59.2501,-0.000471
66.822,59.2501,-0.000471
66.839,59.2501,-0.000471
66.854,59.2501,-0.000471
66.870,59.2501,-0.000471
66.886,59.2500,-0.000471
66.903,59.2496,-0.000471
66.918,59.2491,-0.000471
66.934,59.2484,-0.000471
66.951,59.2475,-0.000471
66.966,59.2462,-0.000471
66.982,59.2450,-0.000555
66.998,59.2435,-0.000555
67.014,59.2418,-0.000555
67.030,59.2399,-0.000555
67.046,59.2378,-0.000555
67.062,59.2356,-0.000555
67.078,59.2331,-0.000555
67.094,59.2305,-0.000555
67.110,59.2276,-0.000555
67.126,59.2245,-0.000555
67.142,59.2213,-0.000555
67.158,59.2180,-0.000555
67.174,59.2142,-0.000555
67.190,59.2105,-0.000555
67.206,59.2064,-0.000555
67.222,59.2021,0.000264
67.238,59.1979,0.000264
67.254,59.1933,0.000264
67.271,59.1882,0.000264
67.299,59.1791,0.000264
67.320,59.1722,0.000264
67.345,59.1635,0.000264
67.366,59.1557,0.000264
67.382,59.1494,0.000264
67.398,59.1433,0.000264
67.414,59.1367,0.000264
67.430,59.1300,0.000264
67.447,59.1228,0.000264
67.462,59.1158,0.000264
67.478,59.1087,0.003163
67.494,59.1011,0.003163
67.511,59.0930,0.003163
67.531,59.0830,0.003163
67.562,59.0669,0.003163
67.578,59.0587,0.003163
67.608,59.0421,0.003163
67.638,59.0246,0.003163
67.654,59.0154,0.003163
67.670,59.0060,0.003163
67.687,58.9956,0.003163
67.714,58.9777,0.005704
67.734,58.9655,0.005704
67.750,58.9547,0.005704
67.766,58.9438,0.005704
67.791,58.9264,0.005704
67.807,58.9151,0.005704
67.837,58.8936,0.005704
67.868,58.8708,0.005704
67.891,58.8522,0.005704
67.907,58.8403,0.005704
67.923,58.8278,0.005704
67.939,58.8149,0.005704
67.955,58.8017,0.005704
67.971,58.7887,0.008641
67.987,58.7751,0.008641
68.003,58.7613,0.008641
68.019,58.7478,0.008641
68.035,58.7337,0.008641
68.051,58.7183,0.008641
68.067,58.7051,0.008641
68.083,58.6899,0.008641
68.099,58.6751,0.008641
68.116,58.6595,0.008641
68.145,58.6312,0.008641
68.163,58.6140,0.008641
68.179,58.5972,0.008641
68.195,58.5823,0.008641
68.212,58.5652,0.014110
68.227,58.5500,0.014110
68.243,58.5326,0.014110
68.259,58.5165,0.014110
68.275,58.4991,0.014110
68.291,58.4814,0.014110
68.309,58.4623,0.014110
68.331,58.4372,0.014110
68.347,58.4205,0.014110
68.363,58.4024,0.014110
68.394,58.3668,0.014110
68.423,58.3326,0.014110
68.454,58.2954,0.008613
68.470,58.2775,0.008613
68.486,58.2569,0.008613
68.516,58.2207,0.008613
68.547,58.1813,0.008613
68.563,58.1614,0.008613
68.579,58.1408,0.008613
68.597,58.1150,0.008613
68.625,58.0802,0.008613
68.645,58.0531,0.008613
68.672,58.0153,0.008613
68.691,57.9900,0.008613
68.719,57.9512,0.000113
68.740,57.9224,0.000113
68.765,57.8857,0.000113
68.796,57.8411,0.000113
68.826,57.7963,0.000113
68.858,57.7490,0.000113
68.875,57.7236,0.000113
68.905,57.6778,0.000113
68.924,57.6471,0.000113
68.952,57.6037,0.000113
68.982,57.5559,0.000198
69.013,57.5066,0.000198
69.043,57.4561,0.000198
69.060,57.4293,0.000198
69.090,57.3791,0.000198
69.107,57.3491,0.000198
69.122,57.3239,0.000198
69.138,57.2967,0.000198
69.155,57.2688,0.000198
69.171,57.2404,0.000198
69.186,57.2131,0.000198
69.204,57.1825,0.000245
69.227,57.1403,0.000245
69.258,57.0853,0.000245
69.288,57.0308,0.000245
69.304,56.9999,0.000245
69.334,56.9451,0.000245
69.364,56.8882,0.000245
69.380,56.8587,0.000245
69.395,56.8298,0.000245
69.415,56.7926,0.000245
69.441,56.7417,0.000245
69.458,56.7075,0.000245
69.474,56.6760,0.000367
69.491,56.6440,0.000367
69.507,56.6122,0.000367
69.522,56.5804,0.000367
69.538,56.5481,0.000367
69.554,56.5161,0.000367
69.571,56.4818,0.000367
69.586,56.4506,0.000367
69.604,56.4132,0.000367
69.619,56.3809,0.000367
69.642,56.3342,0.000367
69.673,56.2699,0.000367
69.704,56.2031,0.000537
69.735,56.1378,0.000537
69.765,56.0741,0.000537
69.781,56.0395,0.000537
69.812,55.9769,0.000537
69.828,55.9451,0.000537
69.859,55.8809,0.000537
69.874,55.8502,0.000537
69.891,55.8174,0.000537
69.907,55.7862,0.000537
69.922,55.7562,0.000537
69.938,55.7237,0.000537
69.954,55.6926,0.000537
69.970,55.6623,0.000537
69.987,55.6312,0.000537
70.012,55.5811,0.000518
70.028,55.5518,0.000518
70.045,55.5206,0.000518
70.060,55.4917,0.000518
70.077,55.4604,0.000518
70.093,55.4320,0.000518
70.108,55.4028,0.000518
70.124,55.3741,0.000518
70.141,55.3427,0.000518
70.160,55.3095,0.000518
70.184,55.2656,0.000518
70.204,55.2310,0.000518
70.220,55.2026,0.000518
70.236,55.1760,0.000574
70.252,55.1483,0.000574
70.269,55.1189,0.000574
70.285,55.0922,0.000574
70.308,55.0534,0.000574
70.323,55.0260,0.000574
70.354,54.9765,0.000574
70.386,54.9245,0.000574
70.416,54.8765,0.000574
70.447,54.8263,0.000574
70.462,54.8031,0.000574
70.478,54.7785,0.000678
70.494,54.7550,0.000678
70.509,54.7317,0.000678
70.525,54.7081,0.000678
70.540,54.6845,0.000678
70.571,54.6386,0.000678
70.587,54.6148,0.000678
70.603,54.5921,0.000678
70.619,54.5693,0.000678
70.635,54.5449,0.000678
70.651,54.5233,0.000678
70.667,54.5004,0.000678
70.684,54.4768,0.000678
70.703,54.4506,0.000678
70.726,54.4197,0.000866
70.747,54.3907,0.000866
70.764,54.3685,0.000866
70.779,54.3479,0.000866
70.795,54.3277,0.000866
70.811,54.3069,0.000866
70.827,54.2854,0.000866
70.843,54.2660,0.000866
70.859,54.2456,0.000866
70.875,54.2255,0.000866
70.891,54.2054,0.000866
70.907,54.1861,0.000866
70.923,54.1662,0.000866
70.939,54.1470,0.000866
70.955,54.1282,0.000866
70.971,54.1096,0.001064
70.987,54.0907,0.001064
71.003,54.0711,0.001064
71.019,54.0541,0.001064
71.035,54.0359,0.001064
71.051,54.0180,0.001064
71.069,53.9979,0.001064
71.084,53.9817,0.001064
71.099,53.9657,0.001064
71.130,53.9320,0.001064
71.150,53.9094,0.001064
71.172,53.8886,0.001064
71.193,53.8670,0.001064
71.209,53.8510,0.001064
71.225,53.8358,0.001130
71.241,53.8201,0.001130
71.257,53.8050,0.001130
71.273,53.7898,0.001130
71.289,53.7743,0.001130
71.305,53.7596,0.001130
71.321,53.7448,0.001130
71.337,53.7302,0.001130
71.353,53.7167,0.001130
71.369,53.7025,0.001130
71.385,53.6883,0.001130
71.401,53.6751,0.001130
71.417,53.6612,0.001130
71.434,53.6472,0.001130
71.453,53.6317,0.001130
71.469,53.6188,0.001130
71.499,53.5950,0.001224
71.530,53.5717,0.001224
71.561,53.5487,0.001224
71.577,53.5373,0.001224
71.593,53.5263,0.001224
71.609,53.5151,0.001224
71.624,53.5040,0.001224
71.641,53.4929,0.001224
71.656,53.4829,0.001224
71.684,53.4655,0.001224
71.700,53.4551,0.001224
71.716,53.4455,0.001290
71.731,53.4359,0.001290
71.747,53.4264,0.001290
71.764,53.4169,0.001290
71.779,53.4082,0.001290
71.796,53.3990,0.001290
71.812,53.3902,0.001290
71.827,53.3822,0.001290
71.843,53.3735,0.001290
71.860,53.3657,0.001290
71.876,53.3574,0.001290
71.892,53.3499,0.001290
71.907,53.3426,0.001290
71.924,53.3350,0.001290
71.941,53.3273,0.001290
71.956,53.3208,0.001290
71.978,53.3112,0.001290
72.009,53.2989,0.001290
72.024,53.2932,0.001290
72.040,53.2874,0.001290
72.071,53.2766,0.001290
72.102,53.2662,0.001290
72.133,53.2570,0.001290
72.148,53.2528,0.001290
72.163,53.2485,0.001290
72.180,53.2440,0.001290
72.196,53.2400,0.001290
72.224,53.2335,0.001280
72.244,53.2292,0.001280
72.259,53.2260,0.001280
72.275,53.2229,0.001280
72.291,53.2201,0.001280
72.307,53.2173,0.001280
72.324,53.2149,0.001280
72.339,53.2126,0.001280
72.355,53.2104,0.001280
72.372,53.2085,0.001280
72.388,53.2068,0.001280
72.403,53.2053,0.001280
72.419,53.2041,0.001280
72.436,53.2028,0.001280
72.451,53.2020,0.001280
72.467,53.2012,0.001280
72.484,53.2006,0.001280
72.508,53.2002,0.001280
72.533,53.2001,0.001280
72.564,53.2001,0.001280
72.579,53.2001,0.001280
72.595,53.2001,0.001280
72.614,53.2001,0.001280
72.631,53.2001,0.001280
72.656,53.2001,0.001280
72.675,53.2001,0.001280
72.692,53.2001,0.001280
72.718,53.2006,0.001327
72.740,53.2013,0.001327
72.755,53.2021,0.001327
72.771,53.2031,0.001327
72.787,53.2043,0.001327
72.804,53.2057,0.001327
72.819,53.2072,0.001327
72.835,53.2089,0.001327
72.851,53.2108,0.001327
72.868,53.2131,0.001327
72.883,53.2152,0.001327
72.899,53.2177,0.001327
72.915,53.2206,0.001327
72.931,53.2234,0.001327
72.947,53.2265,0.001290
72.963,53.2297,0.001290
72.980,53.2336,0.001290
73.000,53.2384,0.001290
73.026,53.2449,0.001290
73.043,53.2493,0.001290
73.060,53.2539,0.001290
73.075,53.2585,0.001290
73.091,53.2631,0.001290
73.109,53.2688,0.001290
73.134,53.2771,0.001290
73.155,53.2846,0.001290
73.171,53.2906,0.001290
73.187,53.2965,0.001290
73.203,53.3027,0.001243
73.219,53.3089,0.001243
73.236,53.3158,0.001243
73.258,53.3255,0.001243
73.289,53.3398,0.001243
73.321,53.3544,0.001243
73.337,53.3618,0.001243
73.367,53.3772,0.001243
73.398,53.3935,0.001243
73.428,53.4104,0.001243
73.443,53.4188,0.001243
73.460,53.4288,0.001243
73.490,53.4465,0.001337
73.507,53.4573,0.001337
73.524,53.4677,0.001337
73.552,53.4861,0.001337
73.571,53.4986,0.001337
73.589,53.5112,0.001337
73.614,53.5281,0.001337
73.635,53.5429,0.001337
73.655,53.5587,0.001337
73.676,53.5738,0.001337
73.706,53.5960,0.001337
73.737,53.6207,0.001337
73.767,53.6451,0.001308
73.798,53.6706,0.001308
73.831,53.6998,0.001308
73.860,53.7246,0.001308
73.875,53.7384,0.001308
73.892,53.7537,0.001308
73.907,53.7674,0.001308
73.923,53.7821,0.001308
73.939,53.7970,0.001308
73.956,53.8143,0.001308
73.983,53.8396,0.001308
74.003,53.8598,0.001308
74.019,53.8764,0.001308
74.035,53.8922,0.001308
74.051,53.9091,0.001308
74.067,53.9260,0.001308
74.083,53.9426,0.001308
74.099,53.9589,0.001308
74.115,53.9762,0.001308
74.131,53.9934,0.001308
74.147,54.0120,0.001308
74.163,54.0290,0.001308
74.179,54.0473,0.001308
74.195,54.0653,0.001308
74.211,54.0838,0.001308
74.227,54.1022,0.001299
74.243,54.1213,0.001299
74.259,54.1403,0.001299
74.275,54.1592,0.001299
74.291,54.1796,0.001299
74.307,54.1986,0.001299
74.324,54.2201,0.001299
74.339,54.2388,0.001299
74.369,54.2760,0.001299
74.392,54.3076,0.001299
74.415,54.3365,0.001299
74.435,54.3615,0.001299
74.453,54.3884,0.001299
74.477,54.4200,0.001177
74.499,54.4485,0.001177
74.515,54.4715,0.001177
74.530,54.4922,0.001177
74.547,54.5156,0.001177
74.562,54.5373,0.001177
74.579,54.5608,0.001177
74.594,54.5835,0.001177
74.611,54.6071,0.001177
74.627,54.6306,0.001177
74.642,54.6545,0.001177
74.658,54.6776,0.001177
74.675,54.7019,0.001177
74.690,54.7258,0.001177
74.707,54.7516,0.001177
74.722,54.7746,0.001017
74.739,54.8001,0.001017
74.754,54.8243,0.001017
74.770,54.8496,0.001017
74.786,54.8749,0.001017
74.802,54.9003,0.001017
74.819,54.9269,0.001017
74.834,54.9533,0.001017
74.851,54.9793,0.001017
74.867,55.0064,0.001017
74.882,55.0338,0.001017
74.907,55.0722,0.001017
74.922,55.0979,0.001017
74.937,55.1241,0.001017
74.953,55.1515,0.001017
74.970,55.1804,0.001017
74.985,55.2066,0.000866
75.002,55.2353,0.000866
75.018,55.2636,0.000866
75.033,55.2913,0.000866
75.049,55.3202,0.000866
75.065,55.3486,0.000866
75.082,55.3781,0.000866
75.097,55.4069,0.000866
75.113,55.4357,0.000866
75.129,55.4668,0.000866
75.146,55.4959,0.000866
75.161,55.5250,0.000866
75.177,55.5553,0.000866
75.193,55.5858,0.000866
75.210,55.6171,0.000866
75.227,55.6492,0.000866
75.254,55.7026,0.000678
75.273,55.7413,0.000678
75.289,55.7722,0.000678
75.306,55.8046,0.000678
75.321,55.8347,0.000678
75.340,55.8728,0.000678
75.364,55.9217,0.000678
75.385,55.9641,0.000678
75.402,55.9986,0.000678
75.418,56.0321,0.000678
75.441,56.0783,0.000678
75.465,56.1310,0.000565
75.480,56.1623,0.000565
75.496,56.1956,0.000565
75.512,56.2307,0.000565
75.532,56.2714,0.000565
75.549,56.3089,0.000565
75.565,56.3417,0.000565
75.597,56.4057,0.000565
75.627,56.4689,0.000565
75.643,56.5001,0.000565
75.659,56.5332,0.000565
75.689,56.5938,0.000565
75.708,56.6317,0.000565
75.734,56.6819,0.000574
75.752,56.7174,0.000574
75.769,56.7490,0.000574
75.784,56.7788,0.000574
75.800,56.8092,0.000574
75.816,56.8401,0.000574
75.832,56.8695,0.000574
75.848,56.9000,0.000574
75.864,56.9300,0.000574
75.880,56.9594,0.000574
75.897,56.9889,0.000574
75.912,57.0172,0.000574
75.928,57.0472,0.000574
75.944,57.0750,0.000574
75.961,57.1058,0.000574
75.983,57.1443,0.000574
75.998,57.1711,0.000574
76.019,57.2077,0.000499
76.035,57.2361,0.000499
76.051,57.2625,0.000499
76.067,57.2898,0.000499
76.083,57.3179,0.000499
76.099,57.3446,0.000499
76.115,57.3704,0.000499
76.131,57.3978,0.000499
76.147,57.4246,0.000499
76.163,57.4493,0.000499
76.179,57.4759,0.000499
76.195,57.5020,0.000499
76.211,57.5272,0.000499
76.227,57.5522,0.000339
76.243,57.5773,0.000339
76.259,57.6028,0.000339
76.275,57.6280,0.000339
76.291,57.6525,0.000339
76.307,57.6764,0.000339
76.324,57.7022,0.000339
76.353,57.7458,0.000339
76.371,57.7719,0.000339
76.387,57.7960,0.000339
76.403,57.8181,0.000339
76.419,57.8417,0.000339
76.435,57.8643,0.000339
76.451,57.8878,0.000339
76.467,57.9106,0.000339
76.483,57.9321,0.000254
76.499,57.9543,0.000254
76.515,57.9767,0.000254
76.531,57.9975,0.000254
76.547,58.0198,0.000254
76.571,58.0517,0.000254
76.587,58.0716,0.000254
76.603,58.0925,0.000254
76.619,58.1137,0.000254
76.640,58.1411,0.000254
76.664,58.1706,0.000254
76.683,58.1935,0.000254
76.699,58.2139,0.000254
76.715,58.2325,0.000254
76.731,58.2518,0.000132
76.747,58.2717,0.000132
76.763,58.2900,0.000132
76.779,58.3083,0.000132
76.796,58.3286,0.000132
76.811,58.3458,0.000132
76.827,58.3637,0.000132
76.844,58.3823,0.000132
76.859,58.4002,0.000132
76.879,58.4220,0.000132
76.896,58.4402,0.000132
76.928,58.4731,0.000132
76.958,58.5055,0.000028
76.989,58.5360,0.000028
77.020,58.5671,0.000028
77.036,58.5823,0.000028
77.052,58.5981,0.000028
77.068,58.6129,0.000028
77.099,58.6415,0.000028
77.117,58.6582,0.000028
77.146,58.6839,0.000028
77.163,58.6987,0.000028
77.179,58.7136,0.000028
77.197,58.7284,0.000028
77.222,58.7494,0.000028
77.243,58.7663,0.000028
77.259,58.7795,0.000028
77.284,58.7988,0.000028
77.315,58.8230,0.000028
77.345,58.8454,0.000028
77.361,58.8568,0.000028
77.377,58.8682,0.000028
77.408,58.8898,0.000028
77.424,58.9003,0.000028
77.455,58.9213,-0.000019
77.471,58.9313,-0.000019
77.502,58.9511,-0.000019
77.518,58.9610,-0.000019
77.534,58.9698,-0.000019
77.564,58.9875,-0.000019
77.595,59.0050,-0.000019
77.611,59.0139,-0.000019
77.636,59.0264,-0.000019
77.651,59.0337,-0.000019
77.666,59.0419,-0.000019
77.683,59.0495,-0.000019
77.699,59.0570,-0.000019
77.715,59.0645,-0.000019
77.734,59.0731,-0.000056
77.749,59.0796,-0.000056
77.781,59.0927,-0.000056
77.811,59.1047,-0.000056
77.828,59.1107,-0.000056
77.858,59.1216,-0.000056
77.874,59.1271,-0.000056
77.892,59.1330,-0.000056
77.910,59.1385,-0.000056
77.935,59.1460,-0.000056
77.955,59.1514,-0.000056
77.971,59.1557,-0.000056
77.998,59.1623,-0.000226
78.018,59.1670,-0.000226
78.035,59.1707,-0.000226
78.050,59.1738,-0.000226
78.066,59.1769,-0.000226
78.083,59.1800,-0.000226
78.104,59.1835,-0.000226
78.120,59.1858,-0.000226
78.135,59.1882,-0.000226
78.161,59.1914,-0.000226
78.177,59.1930,-0.000226
78.192,59.1945,-0.000226
78.209,59.1960,-0.000226
78.225,59.1971,-0.000226
78.241,59.1981,-0.000574
78.256,59.1989,-0.000574
78.272,59.1995,-0.000574
78.289,59.1999,-0.000574
78.304,59.2001,-0.000574
78.323,59.2001,-0.000574
78.351,59.2001,-0.000574
78.368,59.2001,-0.000574
78.384,59.2001,-0.000574
78.401,59.2001,-0.000574
78.416,59.2001,-0.000574
78.432,59.2001,-0.000574
78.454,59.2001,-0.000574
78.470,59.2001,-0.000574
78.490,59.2001,-0.000574
78.521,59.2001,-0.000678
78.552,59.2001,-0.000678
78.583,59.2001,-0.000678
78.598,59.2001,-0.000678
78.614,59.2001,-0.000678
78.646,59.2001,-0.000678
78.677,59.2001,-0.000678
78.703,59.2001,-0.000678
78.718,59.2001,-0.000678
78.734,59.2001,-0.000499
78.750,59.2001,-0.000499
78.766,59.2001,-0.000499
78.782,59.2001,-0.000499
78.798,59.2001,-0.000499
78.815,59.2001,-0.000499
78.830,59.2001,-0.000499
78.846,59.2001,-0.000499
78.862,59.2001,-0.000499
78.878,59.2001,-0.000499
78.896,59.2001,-0.000499
78.923,59.2001,-0.000499
78.942,59.2001,-0.000499
78.958,59.2001,-0.000499
78.974,59.2001,-0.000499
78.990,59.2001,-0.000339
79.007,59.2001,-0.000339
79.022,59.2001,-0.000339
79.038,59.2001,-0.000339
79.054,59.2001,-0.000339
79.070,59.2001,-0.000339
79.086,59.2001,-0.000339
79.102,59.2001,-0.000339
79.118,59.2001,-0.000339
79.134,59.2001,-0.000339
79.150,59.2001,-0.000339
79.166,59.2001,-0.000339
79.182,59.2001,-0.000339
79.198,59.2001,-0.000339
79.214,59.2001,-0.000339
79.230,59.2001,-0.000339
79.246,59.2001,-0.000339
79.262,59.2001,-0.000282
79.278,59.2001,-0.000282
79.294,59.2001,-0.000282
79.310,59.2001,-0.000282
79.326,59.2001,-0.000282
79.342,59.2001,-0.000282
79.358,59.2001,-0.000282
79.374,59.2001,-0.000282
79.390,59.2001,-0.000282
79.406,59.2001,-0.000282
79.422,59.2001,-0.000282
79.438,59.2001,-0.000282
79.455,59.2001,-0.000282
79.470,59.2001,-0.000282
79.486,59.2001,-0.000217
79.502,59.2001,-0.000217
79.518,59.2001,-0.000217
79.534,59.2001,-0.000217
79.550,59.2001,-0.000217
79.566,59.2001,-0.000217
79.582,59.2001,-0.000217
79.598,59.2001,-0.000217
79.614,59.2001,-0.000217
79.630,59.2001,-0.000217
79.646,59.2001,-0.000217
79.662,59.2001,-0.000217
79.678,59.2001,-0.000217
79.694,59.2001,-0.000217
79.710,59.2001,-0.000217
79.726,59.2001,-0.000217
79.742,59.2001,-0.000217
79.758,59.2001,-0.000217
79.775,59.2001,-0.000217
79.790,59.2001,-0.000217
79.820,59.2001,-0.000217
79.836,59.2001,-0.000217
79.852,59.2001,-0.000217
79.868,59.2001,-0.000217
79.884,59.2001,-0.000217
79.900,59.2001,-0.000217
79.915,59.2001,-0.000217
79.932,59.2001,-0.000217
79.952,59.2001,-0.000217
79.974,59.2001,-0.000217
79.990,59.2001,-0.000273
80.013,59.2001,-0.000273
80.028,59.2001,-0.000273
80.044,59.2001,-0.000273
80.060,59.2001,-0.000273
80.076,59.2001,-0.000273
80.091,59.2001,-0.000273
80.107,59.2001,-0.000273
80.124,59.2001,-0.000273
80.148,59.2001,-0.000273
80.175,59.2001,-0.000273
80.190,59.2001,-0.000273
80.207,59.2001,-0.000273
80.237,59.2001,-0.000320
80.253,59.2001,-0.000320
80.268,59.2001,-0.000320
80.284,59.2001,-0.000320
80.299,59.2001,-0.000320
80.316,59.2001,-0.000320
80.332,59.2001,-0.000320
80.347,59.2001,-0.000320
80.376,59.2001,-0.000320
80.391,59.2001,-0.000320
80.408,59.2001,-0.000320
80.423,59.2001,-0.000320
80.439,59.2001,-0.000320
80.456,59.2001,-0.000320
80.471,59.2001,-0.000339
80.487,59.2001,-0.000339
80.504,59.2001,-0.000339
80.520,59.2001,-0.000339
80.536,59.2001,-0.000339
80.551,59.2001,-0.000339
80.567,59.2001,-0.000339
80.584,59.2001,-0.000339
80.600,59.2001,-0.000339
80.616,59.2001,-0.000339
80.632,59.2001,-0.000339
80.657,59.2001,-0.000339
80.688,59.2001,-0.000339
80.719,59.2001,-0.000339
80.735,59.2001,-0.000311
80.766,59.2001,-0.000311
80.781,59.2001,-0.000311
80.811,59.2001,-0.000311
80.842,59.2001,-0.000311
80.873,59.2001,-0.000311
80.888,59.2001,-0.000311
80.904,59.2001,-0.000311
80.934,59.2001,-0.000311
80.950,59.2001,-0.000311
80.965,59.2001,-0.000282
80.981,59.2001,-0.000282
81.000,59.2001,-0.000282
81.027,59.2001,-0.000282
81.045,59.2001,-0.000282
81.062,59.2001,-0.000282
81.077,59.2001,-0.000282
81.093,59.2001,-0.000282
81.109,59.2001,-0.000282
81.125,59.2001,-0.000282
81.142,59.2001,-0.000282
81.157,59.2001,-0.000282
81.173,59.2001,-0.000282
81.189,59.2001,-0.000282
81.206,59.2001,-0.000282
81.222,59.2001,-0.000320
81.237,59.2001,-0.000320
81.254,59.2001,-0.000320
81.270,59.2001,-0.000320
81.285,59.2001,-0.000320
81.301,59.2001,-0.000320
81.317,59.2001,-0.000320
81.333,59.2001,-0.000320
81.349,59.2001,-0.000320
81.365,59.2001,-0.000320
81.381,59.2001,-0.000320
81.398,59.2001,-0.000320
81.413,59.2001,-0.000320
81.430,59.2001,-0.000320
81.446,59.2001,-0.000320
81.461,59.2001,-0.000320
81.491,59.2001,-0.000292
81.507,59.2001,-0.000292
81.523,59.2001,-0.000292
81.539,59.2001,-0.000292
81.556,59.2001,-0.000292
81.571,59.2001,-0.000292
81.587,59.2001,-0.000292
81.603,59.2001,-0.000292
81.621,59.2001,-0.000292
81.648,59.2001,-0.000292
81.667,59.2001,-0.000292
81.683,59.2001,-0.000292
81.699,59.2001,-0.000292
81.715,59.2001,-0.000264
81.731,59.2001,-0.000264
81.747,59.2001,-0.000264
81.763,59.2001,-0.000264
81.779,59.2001,-0.000264
81.795,59.2001,-0.000264
81.811,59.2001,-0.000264
81.827,59.2001,-0.000264
81.843,59.2001,-0.000264
81.859,59.2001,-0.000264
81.875,59.2001,-0.000264
81.891,59.2001,-0.000264
81.907,59.2001,-0.000264
81.924,59.2001,-0.000264
81.942,59.2001,-0.000264
81.958,59.2001,-0.000292
81.974,59.2001,-0.000292
81.989,59.2001,-0.000292
82.007,59.2001,-0.000292
82.036,59.2001,-0.000292
82.067,59.2001,-0.000292
82.083,59.2001,-0.000292
82.099,59.2001,-0.000292
82.118,59.2001,-0.000292
82.145,59.2001,-0.000292
82.163,59.2001,-0.000292
82.179,59.2001,-0.000292
82.195,59.2001,-0.000292
82.211,59.2001,-0.000329
82.227,59.2001,-0.000329
82.245,59.2001,-0.000329
82.268,59.2001,-0.000329
82.299,59.2001,-0.000329
82.330,59.2001,-0.000329
82.360,59.2001,-0.000329
82.392,59.2001,-0.000329
82.407,59.2001,-0.000329
82.424,59.2001,-0.000329
82.454,59.2001,-0.000480
82.484,59.2001,-0.000480
82.501,59.2001,-0.000480
82.531,59.2001,-0.000480
82.548,59.2001,-0.000480
82.578,59.2001,-0.000480
82.611,59.2001,-0.000480
82.640,59.2001,-0.000480
82.658,59.2001,-0.000480
82.674,59.2000,-0.000480
82.690,59.1997,-0.000480
82.706,59.1991,-0.000584
82.722,59.1985,-0.000584
82.738,59.1975,-0.000584
82.754,59.1965,-0.000584
82.770,59.1953,-0.000584
82.786,59.1938,-0.000584
82.803,59.1919,-0.000584
82.825,59.1893,-0.000584
82.856,59.1851,-0.000584
82.871,59.1825,-0.000584
82.901,59.1774,-0.000584
82.932,59.1710,-0.000584
82.963,59.1643,-0.000584
82.979,59.1607,-0.000047
83.010,59.1526,-0.000047
83.026,59.1484,-0.000047
83.042,59.1434,-0.000047
83.058,59.1390,-0.000047
83.073,59.1341,-0.000047
83.089,59.1290,-0.000047
83.106,59.1235,-0.000047
83.122,59.1179,-0.000047
83.139,59.1119,-0.000047
83.163,59.1026,-0.000047
83.178,59.0968,-0.000047
83.196,59.0901,-0.000047
83.226,59.0770,0.002711
83.243,59.0696,0.002711
83.258,59.0628,0.002711
83.277,59.0541,0.002711
83.303,59.0417,0.002711
83.323,59.0319,0.002711
83.339,59.0234,0.002711
83.354,59.0156,0.002711
83.371,59.0066,0.002711
83.386,58.9983,0.002711
83.403,58.9885,0.002711
83.419,58.9798,0.002711
83.434,58.9709,0.002711
83.450,58.9614,0.002711
83.467,58.9511,0.002711
83.482,58.9415,0.002711
83.498,58.9311,0.005318
83.514,58.9213,0.005318
83.533,58.9090,0.005318
83.551,58.8969,0.005318
83.581,58.8757,0.005318
83.597,58.8646,0.005318
83.613,58.8535,0.005318
83.643,58.8314,0.005318
83.658,58.8194,0.005318
83.674,58.8077,0.005318
83.705,58.7838,0.005318
83.720,58.7712,0.005318
83.737,58.7578,0.007869
83.752,58.7453,0.007869
83.768,58.7317,0.007869
83.785,58.7178,0.007869
83.800,58.7045,0.007869
83.817,58.6902,0.007869
83.833,58.6759,0.007869
83.848,58.6621,0.007869
83.865,58.6473,0.007869
83.881,58.6322,0.007869
83.897,58.6168,0.007869
83.912,58.6029,0.007869
83.929,58.5873,0.007869
83.945,58.5717,0.007869
83.961,58.5559,0.007869
83.976,58.5404,0.007869
83.992,58.5246,0.013028
84.009,58.5077,0.013028
84.025,58.4913,0.013028
84.040,58.4749,0.013028
84.056,58.4583,0.013028
84.072,58.4407,0.013028
84.089,58.4233,0.013028
84.105,58.4060,0.013028
84.120,58.3885,0.013028
84.136,58.3706,0.013028
84.153,58.3525,0.013028
84.169,58.3337,0.013028
84.184,58.3159,0.013028
84.200,58.2975,0.013028
84.216,58.2789,0.013028
84.233,58.2590,0.013028
84.263,58.2222,0.008077
84.287,58.1933,0.008077
84.310,58.1648,0.008077
84.335,58.1331,0.008077
84.356,58.1052,0.008077
84.377,58.0799,0.008077
84.393,58.0590,0.008077
84.408,58.0381,0.008077
84.424,58.0172,0.008077
84.440,57.9955,0.008077
84.457,57.9715,0.008077
84.472,57.9516,0.008077
84.488,57.9299,0.000104
84.504,57.9078,0.000104
84.520,57.8841,0.000104
84.536,57.8623,0.000104
84.552,57.8396,0.000104
84.568,57.8165,0.000104
84.584,57.7933,0.000104
84.600,57.7700,0.000104
84.616,57.7454,0.000104
84.633,57.7204,0.000104
84.648,57.6983,0.000104
84.664,57.6730,0.000104
84.680,57.6493,0.000104
84.698,57.6218,0.000104
84.726,57.5784,0.000160
84.744,57.5497,0.000160
84.760,57.5236,0.000160
84.776,57.4981,0.000160
84.792,57.4725,0.000160
84.818,57.4305,0.000160
84.835,57.4029,0.000160
84.865,57.3528,0.000160
84.883,57.3229,0.000160
84.912,57.2728,0.000160
84.930,57.2431,0.000160
84.946,57.2152,0.000160
84.962,57.1877,0.000160
84.978,57.1597,0.000264
84.994,57.1314,0.000264
85.012,57.1001,0.000264
85.036,57.0569,0.000264
85.051,57.0276,0.000264
85.073,56.9903,0.000264
85.090,56.9583,0.000264
85.106,56.9280,0.000264
85.122,56.8991,0.000264
85.138,56.8678,0.000264
85.154,56.8382,0.000264
85.170,56.8084,0.000264
85.186,56.7779,0.000264
85.202,56.7468,0.000264
85.218,56.7164,0.000405
85.234,56.6848,0.000405
85.250,56.6538,0.000405
85.266,56.6219,0.000405
85.282,56.5905,0.000405
85.298,56.5567,0.000405
85.314,56.5268,0.000405
85.330,56.4921,0.000405
85.346,56.4608,0.000405
85.362,56.4293,0.000405
85.378,56.3953,0.000405
85.394,56.3625,0.000405
85.410,56.3303,0.000405
85.426,56.2967,0.000405
85.442,56.2625,0.000405
85.458,56.2289,0.000405
85.474,56.1948,0.000555
85.490,56.1610,0.000555
85.506,56.1261,0.000555
85.522,56.0915,0.000555
85.538,56.0596,0.000555
85.554,56.0254,0.000555
85.570,55.9906,0.000555
85.586,55.9591,0.000555
85.602,55.9269,0.000555
85.618,55.8931,0.000555
85.635,55.8597,0.000555
85.650,55.8292,0.000555
85.666,55.7972,0.000555
85.683,55.7624,0.000555
85.701,55.7256,0.000555
85.717,55.6947,0.000565
85.732,55.6657,0.000565
85.763,55.6047,0.000565
85.794,55.5450,0.000565
85.810,55.5143,0.000565
85.826,55.4867,0.000565
85.842,55.4568,0.000565
85.858,55.4261,0.000565
85.875,55.3952,0.000565
85.890,55.3667,0.000565
85.906,55.3388,0.000565
85.933,55.2873,0.000565
85.951,55.2565,0.000565
85.979,55.2072,0.000555
85.997,55.1759,0.000555
86.012,55.1483,0.000555
86.029,55.1204,0.000555
86.045,55.0931,0.000555
86.061,55.0645,0.000555
86.086,55.0220,0.000555
86.101,54.9955,0.000555
86.132,54.9460,0.000555
86.148,54.9192,0.000555
86.179,54.8695,0.000555
86.194,54.8444,0.000555
86.210,54.8192,0.000678
86.240,54.7717,0.000678
86.256,54.7459,0.000678
86.272,54.7216,0.000678
86.288,54.6963,0.000678
86.319,54.6509,0.000678
86.350,54.6044,0.000678
86.366,54.5805,0.000678
86.382,54.5574,0.000678
86.397,54.5360,0.000678
86.413,54.5128,0.000678
86.430,54.4878,0.000678
86.459,54.4463,0.000678
86.491,54.4028,0.000885
86.521,54.3618,0.000885
86.538,54.3393,0.000885
86.553,54.3172,0.000885
86.570,54.2963,0.000885
86.585,54.2763,0.000885
86.601,54.2554,0.000885
86.618,54.2338,0.000885
86.634,54.2140,0.000885
86.650,54.1933,0.000885
86.667,54.1724,0.000885
86.692,54.1412,0.000885
86.723,54.1024,0.001026
86.746,54.0758,0.001026
86.762,54.0575,0.001026
86.777,54.0396,0.001026
86.794,54.0204,0.001026
86.810,54.0022,0.001026
86.826,53.9837,0.001026
86.848,53.9588,0.001026
86.863,53.9425,0.001026
86.894,53.9090,0.001026
86.910,53.8917,0.001026
86.941,53.8597,0.001026
86.957,53.8435,0.001158
86.987,53.8123,0.001158
87.004,53.7958,0.001158
87.034,53.7666,0.001158
87.049,53.7514,0.001158
87.066,53.7360,0.001158
87.081,53.7219,0.001158
87.097,53.7072,0.001158
87.114,53.6911,0.001158
87.130,53.6772,0.001158
87.157,53.6535,0.001158
87.178,53.6354,0.001158
87.194,53.6217,0.001158
87.219,53.6009,0.001252
87.250,53.5751,0.001252
87.281,53.5511,0.001252
87.297,53.5389,0.001252
87.328,53.5150,0.001252
87.358,53.4934,0.001252
87.373,53.4819,0.001252
87.404,53.4608,0.001252
87.421,53.4498,0.001252
87.451,53.4293,0.001261
87.467,53.4195,0.001261
87.483,53.4093,0.001261
87.499,53.3992,0.001261
87.529,53.3806,0.001261
87.546,53.3711,0.001261
87.561,53.3627,0.001261
87.577,53.3535,0.001261
87.605,53.3379,0.001261
87.621,53.3293,0.001261
87.637,53.3216,0.001261
87.653,53.3135,0.001261
87.670,53.3055,0.001261
87.685,53.2978,0.001261
87.701,53.2908,0.001261
87.718,53.2827,0.001261
87.734,53.2760,0.001261
87.749,53.2694,0.001261
87.765,53.2627,0.001261
87.781,53.2562,0.001261
87.797,53.2497,0.001261
87.814,53.2433,0.001261
87.830,53.2374,0.001261
87.845,53.2321,0.001261
87.861,53.2264,0.001261
87.877,53.2209,0.001261
87.893,53.2160,0.001261
87.909,53.2110,0.001261
87.925,53.2063,0.001261
87.941,53.2017,0.001261
87.957,53.1972,0.001280
87.973,53.1930,0.001280
87.989,53.1891,0.001280
88.005,53.1852,0.001280
88.021,53.1816,0.001280
88.037,53.1784,0.001280
88.054,53.1750,0.001280
88.069,53.1721,0.001280
88.085,53.1692,0.001280
88.103,53.1665,0.001280
88.133,53.1619,0.001280
88.163,53.1583,0.001280
88.179,53.1566,0.001280
88.195,53.1551,0.001280
88.211,53.1538,0.001318
88.227,53.1527,0.001318
88.243,53.1519,0.001318
88.259,53.1511,0.001318
88.276,53.1506,0.001318
88.299,53.1501,0.001318
88.318,53.1501,0.001318
88.339,53.1501,0.001318
88.355,53.1501,0.001318
88.371,53.1501,0.001318
88.387,53.1501,0.001318
88.403,53.1501,0.001318
88.419,53.1501,0.001318
88.435,53.1501,0.001318
88.451,53.1501,0.001365
88.468,53.1501,0.001365
88.487,53.1501,0.001365
88.519,53.1502,0.001365
88.550,53.1509,0.001365
88.580,53.1522,0.001365
88.611,53.1543,0.001365
88.627,53.1557,0.001365
88.644,53.1574,0.001365
88.674,53.1609,0.001365
88.703,53.1649,0.001365
88.719,53.1674,0.001365
88.735,53.1701,0.001384
88.751,53.1728,0.001384
88.767,53.1762,0.001384
88.783,53.1794,0.001384
88.799,53.1826,0.001384
88.816,53.1866,0.001384
88.844,53.1935,0.001384
88.863,53.1986,0.001384
88.879,53.2028,0.001384
88.895,53.2075,0.001384
88.911,53.2124,0.001384
88.928,53.2176,0.001384
88.943,53.2224,0.001384
88.959,53.2279,0.001384
88.975,53.2335,0.001384
88.991,53.2393,0.001346
89.006,53.2451,0.001346
89.023,53.2514,0.001346
89.039,53.2578,0.001346
89.054,53.2641,0.001346
89.071,53.2710,0.001346
89.087,53.2782,0.001346
89.102,53.2849,0.001346
89.118,53.2923,0.001346
89.135,53.3003,0.001346
89.151,53.3078,0.001346
89.167,53.3154,0.001346
89.182,53.3235,0.001346
89.199,53.3321,0.001346
89.214,53.3404,0.001346
89.231,53.3494,0.001346
89.262,53.3667,0.001346
89.278,53.3761,0.001346
89.293,53.3851,0.001346
89.309,53.3947,0.001346
89.325,53.4050,0.001346
89.341,53.4145,0.001346
89.357,53.4247,0.001346
89.373,53.4351,0.001346
89.395,53.4505,0.001346
89.417,53.4650,0.001346
89.437,53.4789,0.001346
89.454,53.4904,0.001346
89.469,53.5017,0.001346
89.485,53.5134,0.001374
89.501,53.5254,0.001374
89.518,53.5382,0.001374
89.533,53.5498,0.001374
89.549,53.5625,0.001374
89.565,53.5751,0.001374
89.581,53.5885,0.001374
89.597,53.6012,0.001374
89.613,53.6146,0.001374
89.630,53.6286,0.001374
89.645,53.6420,0.001374
89.661,53.6555,0.001374
89.678,53.6702,0.001374
89.693,53.6842,0.001374
89.709,53.6984,0.001374
89.726,53.7139,0.001346
89.749,53.7358,0.001346
89.772,53.7578,0.001346
89.789,53.7740,0.001346
89.815,53.7993,0.001346
89.832,53.8155,0.001346
89.847,53.8313,0.001346
89.863,53.8478,0.001346
89.880,53.8654,0.001346
89.898,53.8846,0.001346
89.913,53.9002,0.001346
89.942,53.9305,0.001346
89.959,53.9497,0.001346
89.975,53.9676,0.001261
89.991,53.9857,0.001261
90.007,54.0041,0.001261
90.024,54.0225,0.001261
90.039,54.0402,0.001261
90.055,54.0590,0.001261
90.072,54.0783,0.001261
90.088,54.0974,0.001261
90.104,54.1170,0.001261
90.119,54.1352,0.001261
90.138,54.1591,0.001261
90.159,54.1850,0.001261
90.189,54.2233,0.001261
90.205,54.2433,0.001261
90.236,54.2846,0.001261
90.268,54.3252,0.001158
90.299,54.3679,0.001158
90.315,54.3885,0.001158
90.338,54.4217,0.001158
90.354,54.4439,0.001158
90.370,54.4666,0.001158
90.386,54.4891,0.001158
90.403,54.5134,0.001158
90.422,54.5402,0.001158
90.456,54.5902,0.001158
90.484,54.6308,0.001054
90.500,54.6584,0.001054
90.516,54.6792,0.001054
90.547,54.7271,0.001054
90.566,54.7571,0.001054
90.593,54.7990,0.001054
90.610,54.8263,0.001054
90.626,54.8537,0.001054
90.642,54.8784,0.001054
90.658,54.9038,0.001054
90.675,54.9315,0.001054
90.691,54.9571,0.001054
90.706,54.9826,0.001054
90.722,55.0100,0.000904
90.738,55.0363,0.000904
90.755,55.0652,0.000904
90.771,55.0933,0.000904
90.786,55.1181,0.000904
90.802,55.1465,0.000904
90.818,55.1737,0.000904
90.834,55.2016,0.000904
90.850,55.2306,0.000904
90.866,55.2596,0.000904
90.882,55.2873,0.000904
90.898,55.3162,0.000904
90.914,55.3465,0.000904
90.930,55.3752,0.000904
90.946,55.4041,0.000904
90.962,55.4351,0.000725
90.978,55.4634,0.000725
90.995,55.4961,0.000725
91.024,55.5501,0.000725
91.042,55.5853,0.000725
91.058,55.6158,0.000725
91.074,55.6470,0.000725
91.090,55.6778,0.000725
91.110,55.7173,0.000725
91.134,55.7640,0.000725
91.155,55.8063,0.000725
91.170,55.8363,0.000725
91.187,55.8711,0.000725
91.202,55.9028,0.000725
91.218,55.9344,0.000621
91.234,55.9679,0.000621
91.250,56.0015,0.000621
91.266,56.0334,0.000621
91.282,56.0668,0.000621
91.298,56.1015,0.000621
91.314,56.1354,0.000621
91.330,56.1689,0.000621
91.346,56.2023,0.000621
91.361,56.2359,0.000621
91.389,56.2929,0.000621
91.405,56.3281,0.000621
91.421,56.3589,0.000621
91.437,56.3931,0.000621
91.453,56.4240,0.000584
91.469,56.4566,0.000584
91.485,56.4886,0.000584
91.501,56.5222,0.000584
91.517,56.5525,0.000584
91.533,56.5843,0.000584
91.549,56.6157,0.000584
91.565,56.6472,0.000584
91.581,56.6785,0.000584
91.597,56.7097,0.000584
91.613,56.7401,0.000584
91.629,56.7702,0.000584
91.645,56.8006,0.000584
91.661,56.8315,0.000584
91.677,56.8608,0.000584
91.693,56.8909,0.000584
91.709,56.9202,0.000546
91.725,56.9504,0.000546
91.743,56.9837,0.000546
91.769,57.0298,0.000546
91.788,57.0637,0.000546
91.805,57.0931,0.000546
91.820,57.1204,0.000546
91.837,57.1498,0.000546
91.853,57.1759,0.000546
91.869,57.2047,0.000546
91.885,57.2314,0.000546
91.900,57.2578,0.000546
91.924,57.2975,0.000546
91.940,57.3251,0.000546
91.956,57.3508,0.000433
91.972,57.3767,0.000433
91.988,57.4033,0.000433
92.004,57.4293,0.000433
92.019,57.4542,0.000433
92.036,57.4800,0.000433
92.052,57.5067,0.000433
92.068,57.5308,0.000433
92.084,57.5556,0.000433
92.100,57.5817,0.000433
92.120,57.6124,0.000433
92.142,57.6439,0.000433
92.157,57.6677,0.000433
92.173,57.6929,0.000433
92.196,57.7246,0.000282
92.211,57.7474,0.000282
92.228,57.7719,0.000282
92.243,57.7941,0.000282
92.260,57.8177,0.000282
92.275,57.8392,0.000282
92.291,57.8618,0.000282
92.308,57.8845,0.000282
92.323,57.9060,0.000282
92.339,57.9281,0.000282
92.355,57.9500,0.000282
92.371,57.9712,0.000282
92.387,57.9924,0.000282
92.404,58.0136,0.000282
92.420,58.0360,0.000282
92.435,58.0550,0.000282
92.451,58.0756,0.000282
92.480,58.1119,0.000188
92.497,58.1333,0.000188
92.528,58.1708,0.000188
92.545,58.1922,0.000188
92.575,58.2271,0.000188
92.592,58.2479,0.000188
92.608,58.2666,0.000188
92.625,58.2852,0.000188
92.640,58.3028,0.000188
92.656,58.3210,0.000188
92.674,58.3411,0.000188
92.698,58.3675,0.000188
92.729,58.4015,0.000075
92.760,58.4331,0.000075
92.790,58.4653,0.000075
92.812,58.4872,0.000075
92.832,58.5062,0.000075
92.848,58.5219,0.000075
92.864,58.5377,0.000075
92.880,58.5528,0.000075
92.896,58.5680,0.000075
92.913,58.5840,0.000075
92.928,58.5985,0.000075
92.944,58.6121,0.000075
92.961,58.6269,0.000009
92.978,58.6422,0.000009
93.008,58.6688,0.000009
93.035,58.6907,0.000009
93.051,58.7041,0.000009
93.066,58.7167,0.000009
93.082,58.7297,0.000009
93.098,58.7422,0.000009
93.114,58.7546,0.000009
93.130,58.7668,0.000009
93.147,58.7799,0.000009
93.162,58.7913,0.000009
93.179,58.8032,0.000009
93.194,58.8141,0.000009
93.211,58.8263,0.000009
93.227,58.8367,0.000009
93.242,58.8475,-0.000009
93.258,58.8582,-0.000009
93.274,58.8690,-0.000009
93.290,58.8794,-0.000009
93.307,58.8898,-0.000009
93.322,58.8991,-0.000009
93.339,58.9094,-0.000009
93.354,58.9187,-0.000009
93.370,58.9280,-0.000009
93.386,58.9371,-0.000009
93.402,58.9465,-0.000009
93.418,58.9549,-0.000009
93.434,58.9633,-0.000009
93.450,58.9719,-0.000009
93.466,58.9800,-0.000009
93.483,58.9885,-0.000009
93.503,58.9987,-0.000104
93.534,59.0127,-0.000104
93.564,59.0260,-0.000104
93.594,59.0386,-0.000104
93.610,59.0452,-0.000104
93.626,59.0514,-0.000104
93.644,59.0587,-0.000104
93.671,59.0681,-0.000104
93.690,59.0748,-0.000104
93.706,59.0802,-0.000104
93.722,59.0851,-0.000104
93.738,59.0902,-0.000282
93.754,59.0948,-0.000282
93.770,59.0994,-0.000282
93.786,59.1037,-0.000282
93.802,59.1078,-0.000282
93.818,59.1118,-0.000282
93.835,59.1158,-0.000282
93.850,59.1192,-0.000282
93.866,59.1223,-0.000282
93.882,59.1257,-0.000282
93.898,59.1287,-0.000282
93.914,59.1314,-0.000282
93.930,59.1340,-0.000282
93.946,59.1365,-0.000282
93.962,59.1387,-0.000282
93.978,59.1406,-0.000593
93.994,59.1424,-0.000593
94.010,59.1440,-0.000593
94.027,59.1455,-0.000593
94.057,59.1478,-0.000593
94.075,59.1486,-0.000593
94.090,59.1494,-0.000593
94.106,59.1498,-0.000593
94.133,59.1501,-0.000593
94.149,59.1501,-0.000593
94.165,59.1501,-0.000593
94.181,59.1501,-0.000593
94.197,59.1501,-0.000593
94.213,59.1501,-0.000593
94.229,59.1501,-0.000715
94.245,59.1501,-0.000715
94.261,59.1501,-0.000715
94.277,59.1501,-0.000715
94.293,59.1501,-0.000715
94.309,59.1501,-0.000715
94.326,59.1501,-0.000715
94.354,59.1501,-0.000715
94.374,59.1501,-0.000715
94.390,59.1501,-0.000715
94.416,59.1501,-0.000715
94.437,59.1501,-0.000715
94.453,59.1501,-0.000715
94.469,59.1501,-0.000715
94.485,59.1501,-0.000527
94.501,59.1501,-0.000527
94.518,59.1501,-0.000527
94.533,59.1501,-0.000527
94.549,59.1501,-0.000527
94.564,59.1501,-0.000527
94.581,59.1501,-0.000527
94.597,59.1501,-0.000527
94.613,59.1501,-0.000527
94.629,59.1501,-0.000527
94.644,59.1501,-0.000527
94.661,59.1501,-0.000527
94.692,59.1501,-0.000527
94.709,59.1501,-0.000527
94.724,59.1501,-0.000339
94.740,59.1501,-0.000339
94.765,59.1501,-0.000339
94.788,59.1501,-0.000339
94.803,59.1501,-0.000339
94.820,59.1501,-0.000339
94.836,59.1501,-0.000339
