Elapsed Time (s),Position (mm),Force (N)
-0.013,82.8882,0.003933
0.019,82.8882,0.003933
0.051,82.8882,0.003933
0.081,82.8882,0.003933
0.111,82.8882,0.003962
0.142,82.8882,0.003962
0.174,82.8882,0.003962
0.206,82.8882,0.003962
0.237,82.8882,0.003962
0.268,82.8882,0.003962
0.299,82.8882,0.003962
0.330,82.8882,0.003962
0.361,82.8882,0.003962
0.391,82.8882,0.003886
0.423,82.8882,0.003886
0.455,82.8882,0.003886
0.486,82.8882,0.003886
0.517,82.8882,0.003886
0.547,82.8882,0.003886
0.579,82.8882,0.003886
0.609,82.8882,0.003886
0.640,82.8882,0.003877
0.671,82.8882,0.003877
0.703,82.8882,0.003877
0.734,82.8882,0.003877
0.765,82.8882,0.003877
0.797,82.8882,0.003877
0.828,82.8882,0.003877
0.859,82.8882,0.003877
0.890,82.8882,0.003858
0.922,82.8882,0.003858
0.952,82.8882,0.003858
0.982,82.8882,0.003858
1.013,82.8882,0.003858
1.044,82.8882,0.003858
1.075,82.8882,0.003858
1.106,82.8882,0.003858
1.137,82.8882,0.003858
1.169,82.8882,0.003858
1.200,82.8882,0.003858
1.232,82.8882,0.003858
1.263,82.8882,0.003858
1.294,82.8882,0.003858
1.324,82.8882,0.003858
1.356,82.8882,0.003858
1.386,82.8882,0.003849
1.417,82.8882,0.003849
1.448,82.8882,0.003849
1.479,82.8882,0.003849
1.510,82.8882,0.003849
1.541,82.8882,0.003849
1.572,82.8882,0.003849
1.603,82.8882,0.003867
1.634,82.8882,0.003867
1.664,82.8882,0.003867
1.695,82.8882,0.003867
1.726,82.8882,0.003867
1.757,82.8882,0.003867
1.789,82.8882,0.003867
1.819,82.8882,0.003867
1.851,82.8882,0.003905
1.882,82.8882,0.003905
1.913,82.8882,0.003905
1.943,82.8882,0.003905
1.975,82.8882,0.003905
2.005,82.8882,0.003905
2.036,82.8882,0.003905
2.067,82.8882,0.003905
2.098,82.8882,0.003858
2.130,82.8882,0.003858
2.162,82.8882,0.003858
2.192,82.8882,0.003858
2.223,82.8882,0.003858
2.253,82.8882,0.003858
2.285,82.8882,0.003858
2.316,82.8882,0.003858
2.347,82.8882,0.003858
2.378,82.8882,0.003858
2.408,82.8882,0.003820
2.440,82.8882,0.003820
2.470,82.8882,0.003820
2.501,82.8882,0.003820
2.532,82.8882,0.003820
2.563,82.8882,0.003820
2.594,82.8882,0.003820
2.626,82.8882,0.003811
2.657,82.8882,0.003811
2.688,82.8882,0.003811
2.719,82.8882,0.003811
2.750,82.8882,0.003811
2.781,82.8882,0.003811
2.812,82.8882,0.003811
2.843,82.8882,0.003811
2.873,82.8882,0.003820
2.905,82.8882,0.003820
2.936,82.8882,0.003820
2.967,82.8882,0.003820
3.001,82.8882,0.003820
3.029,82.8882,0.003820
3.061,82.8882,0.003820
3.091,82.8882,0.003811
3.123,82.8882,0.003811
3.155,82.8882,0.003811
3.185,82.8882,0.003811
3.217,82.8882,0.003811
3.248,82.8882,0.003811
3.279,82.8882,0.003811
3.311,82.8882,0.003811
3.341,82.8882,0.003811
3.373,82.8882,0.003877
3.403,82.8882,0.003877
3.434,82.8882,0.003877
3.465,82.8882,0.003877
3.496,82.8882,0.003877
3.527,82.8882,0.003877
3.557,82.8882,0.003877
3.588,82.8882,0.003877
3.620,82.8882,0.003896
3.651,82.8882,0.003896
3.682,82.8882,0.003896
3.713,82.8882,0.003896
3.745,82.8882,0.003896
3.777,82.8882,0.003896
3.807,82.8882,0.003896
3.838,82.8882,0.003896
3.869,82.8882,0.003924
3.900,82.8882,0.003924
3.930,82.8882,0.003924
3.961,82.8882,0.003924
3.992,82.8882,0.003924
4.023,82.8882,0.003924
4.054,82.8882,0.003924
4.085,82.8882,0.003924
4.116,82.8882,0.003952
4.147,82.8882,0.003952
4.177,82.8881,0.003952
4.208,82.8872,0.003952
4.240,82.8856,0.003952
4.271,82.8834,0.003952
4.302,82.8803,0.003952
4.333,82.8766,0.003952
4.363,82.8721,0.003952
4.394,82.8669,0.003933
4.425,82.8612,0.003933
4.455,82.8550,0.003933
4.486,82.8488,0.003933
4.517,82.8427,0.003933
4.548,82.8365,0.003933
4.578,82.8304,0.003933
4.609,82.8242,0.003933
4.640,82.8180,0.003971
4.671,82.8119,0.003971
4.702,82.8055,0.003971
4.733,82.7992,0.003971
4.764,82.7932,0.003971
4.795,82.7870,0.003971
4.826,82.7806,0.003971
4.859,82.7741,0.004018
4.889,82.7682,0.004018
4.922,82.7616,0.004018
4.953,82.7554,0.004018
4.984,82.7492,0.004018
5.016,82.7429,0.004018
5.048,82.7365,0.004018
5.078,82.7305,0.004018
5.110,82.7240,0.004093
5.139,82.7181,0.004093
5.170,82.7120,0.004093
5.201,82.7059,0.004093
5.233,82.6994,0.004093
5.265,82.6930,0.004093
5.296,82.6867,0.004093
5.327,82.6805,0.004093
5.358,82.6745,0.004093
5.390,82.6681,0.004159
5.419,82.6621,0.004159
5.450,82.6562,0.004159
5.481,82.6500,0.004159
5.511,82.6438,0.004159
5.541,82.6378,0.004159
5.573,82.6314,0.004159
5.603,82.6254,0.004159
5.634,82.6191,0.004197
5.665,82.6131,0.004197
5.696,82.6068,0.004197
5.727,82.6006,0.004197
5.758,82.5943,0.004197
5.789,82.5882,0.004197
5.821,82.5816,0.004197
5.852,82.5757,0.004234
5.884,82.5692,0.004234
5.915,82.5630,0.004234
5.947,82.5564,0.004234
5.978,82.5505,0.004234
6.009,82.5443,0.004234
6.039,82.5382,0.004234
6.070,82.5319,0.004234
6.101,82.5257,0.004319
6.132,82.5196,0.004319
6.163,82.5134,0.004319
6.194,82.5071,0.004319
6.225,82.5009,0.004319
6.256,82.4948,0.004319
6.287,82.4886,0.004319
6.318,82.4825,0.004319
6.349,82.4762,0.004319
6.380,82.4700,0.004432
6.411,82.4638,0.004432
6.443,82.4576,0.004432
6.474,82.4513,0.004432
6.505,82.4450,0.004432
6.537,82.4386,0.004432
6.568,82.4323,0.004432
6.599,82.4261,0.004432
6.631,82.4199,0.004479
6.661,82.4137,0.004479
6.692,82.4076,0.004479
6.724,82.4013,0.004479
6.754,82.3952,0.004479
6.785,82.3889,0.004479
6.818,82.3823,0.004479
6.848,82.3764,0.004479
6.879,82.3703,0.004545
6.910,82.3640,0.004545
6.940,82.3580,0.004545
6.971,82.3517,0.004545
7.002,82.3455,0.004545
7.033,82.3393,0.004545
7.064,82.3332,0.004545
7.095,82.3270,0.004564
7.127,82.3204,0.004564
7.159,82.3142,0.004564
7.189,82.3083,0.004564
7.220,82.3022,0.004564
7.251,82.2960,0.004564
7.282,82.2897,0.004564
7.313,82.2835,0.004564
7.344,82.2773,0.004564
7.375,82.2709,0.004564
7.407,82.2645,0.004611
7.437,82.2587,0.004611
7.468,82.2525,0.004611
7.499,82.2461,0.004611
7.530,82.2402,0.004611
7.561,82.2337,0.004611
7.592,82.2275,0.004611
7.624,82.2213,0.004696
7.655,82.2150,0.004696
7.685,82.2091,0.004696
7.716,82.2027,0.004696
7.747,82.1965,0.004696
7.778,82.1905,0.004696
7.809,82.1843,0.004696
7.840,82.1781,0.004696
7.871,82.1719,0.004799
7.901,82.1659,0.004799
7.931,82.1597,0.004799
7.962,82.1537,0.004799
7.993,82.1474,0.004799
8.024,82.1411,0.004799
8.055,82.1351,0.004799
8.086,82.1288,0.004799
8.117,82.1226,0.004940
8.148,82.1164,0.004940
8.179,82.1103,0.004940
8.210,82.1039,0.004940
8.242,82.0977,0.004940
8.272,82.0916,0.004940
8.303,82.0855,0.004940
8.334,82.0792,0.004940
8.365,82.0730,0.004940
8.396,82.0668,0.004987
8.427,82.0607,0.004987
8.459,82.0543,0.004987
8.490,82.0481,0.004987
8.522,82.0416,0.004987
8.553,82.0354,0.004987
8.585,82.0290,0.004987
8.617,82.0225,0.005034
8.648,82.0163,0.005034
8.680,82.0101,0.005034
8.711,82.0038,0.005034
8.742,81.9975,0.005034
8.774,81.9914,0.005034
8.805,81.9851,0.005034
8.836,81.9787,0.005034
8.862,81.9735,0.005072
8.899,81.9662,0.005072
8.930,81.9599,0.005072
8.961,81.9538,0.005072
8.992,81.9476,0.005072
9.022,81.9417,0.005072
9.053,81.9353,0.005072
9.084,81.9293,0.005157
9.115,81.9229,0.005157
9.146,81.9167,0.005157
9.171,81.9117,0.005157
9.208,81.9045,0.005157
9.240,81.8981,0.005157
9.270,81.8918,0.005157
9.300,81.8860,0.005157
9.331,81.8798,0.005157
9.362,81.8737,0.005298
9.393,81.8675,0.005298
9.424,81.8613,0.005298
9.455,81.8551,0.005298
9.485,81.8490,0.005298
9.517,81.8427,0.005298
9.548,81.8365,0.005298
9.579,81.8302,0.005298
9.611,81.8240,0.005439
9.641,81.8179,0.005439
9.672,81.8116,0.005439
9.703,81.8055,0.005439
9.734,81.7992,0.005439
9.765,81.7931,0.005439
9.796,81.7866,0.005439
9.827,81.7806,0.005439
9.859,81.7742,0.005524
9.890,81.7680,0.005524
9.922,81.7617,0.005524
9.952,81.7556,0.005524
9.984,81.7492,0.005524
10.015,81.7431,0.005524
10.046,81.7368,0.005524
10.076,81.7308,0.005524
10.106,81.7247,0.005524
10.137,81.7187,0.005580
10.168,81.7123,0.005580
10.199,81.7061,0.005580
10.230,81.6999,0.005580
10.262,81.6936,0.005580
10.293,81.6874,0.005580
10.323,81.6815,0.005580
10.354,81.6753,0.005580
10.385,81.6691,0.005618
10.415,81.6630,0.005618
10.446,81.6569,0.005618
10.477,81.6506,0.005618
10.509,81.6441,0.005618
10.539,81.6382,0.005618
10.570,81.6321,0.005618
10.601,81.6259,0.005618
10.631,81.6198,0.005712
10.662,81.6136,0.005712
10.692,81.6075,0.005712
10.723,81.6015,0.005712
10.753,81.5954,0.005712
10.785,81.5889,0.005712
10.816,81.5829,0.005712
10.847,81.5764,0.005712
10.878,81.5705,0.005900
10.909,81.5643,0.005900
10.941,81.5579,0.005900
10.971,81.5519,0.005900
11.003,81.5454,0.005900
11.034,81.5393,0.005900
11.065,81.5329,0.005900
11.096,81.5268,0.005994
11.127,81.5205,0.005994
11.159,81.5143,0.005994
11.189,81.5082,0.005994
11.220,81.5021,0.005994
11.251,81.4959,0.005994
11.281,81.4898,0.005994
11.313,81.4835,0.005994
11.344,81.4771,0.005994
11.375,81.4710,0.005994
11.406,81.4649,0.006041
11.438,81.4585,0.006041
11.469,81.4523,0.006041
11.500,81.4459,0.006041
11.531,81.4399,0.006041
11.563,81.4334,0.006041
11.595,81.4271,0.006041
11.625,81.4210,0.006041
11.658,81.4144,0.006098
11.687,81.4085,0.006098
11.718,81.4025,0.006098
11.749,81.3961,0.006098
11.781,81.3900,0.006098
11.812,81.3836,0.006098
11.843,81.3776,0.006098
11.874,81.3712,0.006098
11.905,81.3651,0.006182
11.936,81.3588,0.006182
11.967,81.3527,0.006182
11.998,81.3465,0.006182
12.030,81.3399,0.006182
12.059,81.3341,0.006182
12.091,81.3279,0.006182
12.122,81.3215,0.006258
12.154,81.3152,0.006258
12.185,81.3091,0.006258
12.216,81.3029,0.006258
12.247,81.2966,0.006258
12.277,81.2907,0.006258
12.309,81.2843,0.006258
12.340,81.2781,0.006258
12.371,81.2718,0.006361
12.403,81.2656,0.006361
12.434,81.2593,0.006361
12.465,81.2531,0.006361
12.495,81.2469,0.006361
12.526,81.2408,0.006361
12.557,81.2346,0.006361
12.591,81.2279,0.006361
12.620,81.2221,0.006361
12.651,81.2158,0.006455
12.682,81.2097,0.006455
12.715,81.2031,0.006455
12.745,81.1972,0.006455
12.775,81.1911,0.006455
12.805,81.1850,0.006455
12.836,81.1787,0.006455
12.868,81.1725,0.006455
12.899,81.1660,0.006493
12.931,81.1598,0.006493
12.962,81.1535,0.006493
12.994,81.1472,0.006493
13.026,81.1408,0.006493
13.057,81.1346,0.006493
13.089,81.1281,0.006493
13.120,81.1220,0.006493
13.152,81.1157,0.006587
13.184,81.1092,0.006587
13.211,81.1039,0.006587
13.246,81.0968,0.006587
13.278,81.0906,0.006587
13.308,81.0845,0.006587
13.340,81.0781,0.006587
13.370,81.0719,0.006653
13.401,81.0658,0.006653
13.432,81.0596,0.006653
13.463,81.0534,0.006653
13.495,81.0472,0.006653
13.525,81.0410,0.006653
13.556,81.0349,0.006653
13.587,81.0286,0.006653
13.619,81.0224,0.006700
13.649,81.0162,0.006700
13.680,81.0101,0.006700
13.711,81.0038,0.006700
13.742,80.9977,0.006700
13.773,80.9914,0.006700
13.804,80.9853,0.006700
13.835,80.9790,0.006700
13.866,80.9730,0.006813
13.897,80.9666,0.006813
13.929,80.9604,0.006813
13.960,80.9541,0.006813
13.991,80.9480,0.006813
14.023,80.9415,0.006813
14.053,80.9356,0.006813
14.083,80.9294,0.006813
14.115,80.9232,0.006794
14.145,80.9170,0.006794
14.176,80.9107,0.006794
14.207,80.9048,0.006794
14.238,80.8984,0.006794
14.269,80.8922,0.006794
14.300,80.8860,0.006794
14.331,80.8798,0.006794
14.362,80.8736,0.006794
14.394,80.8674,0.006832
14.425,80.8610,0.006832
14.456,80.8548,0.006832
14.487,80.8486,0.006832
14.518,80.8424,0.006832
14.550,80.8362,0.006832
14.581,80.8299,0.006832
14.612,80.8237,0.006916
14.643,80.8175,0.006916
14.673,80.8114,0.006916
14.704,80.8051,0.006916
14.735,80.7992,0.006916
14.766,80.7927,0.006916
14.798,80.7865,0.006916
14.830,80.7801,0.006916
14.861,80.7737,0.006916
14.893,80.7675,0.006916
14.922,80.7617,0.006916
14.953,80.7554,0.006916
14.984,80.7494,0.006916
15.015,80.7430,0.006916
15.047,80.7368,0.006916
15.078,80.7306,0.006916
15.109,80.7243,0.006982
15.140,80.7179,0.006982
15.171,80.7120,0.006982
15.202,80.7058,0.006982
15.232,80.6997,0.006982
15.263,80.6935,0.006982
15.294,80.6872,0.006982
15.326,80.6810,0.006982
15.357,80.6745,0.007057
15.388,80.6686,0.007057
15.419,80.6622,0.007057
15.450,80.6560,0.007057
15.481,80.6498,0.007057
15.512,80.6436,0.007057
15.544,80.6373,0.007057
15.575,80.6310,0.007057
15.607,80.6245,0.007114
15.637,80.6187,0.007114
15.670,80.6120,0.007114
15.699,80.6064,0.007114
15.730,80.6000,0.007114
15.762,80.5937,0.007114
15.792,80.5877,0.007114
15.823,80.5814,0.007114
15.854,80.5753,0.007104
15.885,80.5690,0.007104
15.916,80.5628,0.007104
15.946,80.5568,0.007104
15.978,80.5504,0.007104
16.010,80.5442,0.007104
16.042,80.5377,0.007104
16.073,80.5315,0.007104
16.103,80.5253,0.007104
16.134,80.5192,0.007123
16.165,80.5129,0.007123
16.197,80.5067,0.007123
16.228,80.5003,0.007123
16.260,80.4942,0.007123
16.290,80.4882,0.007123
16.320,80.4823,0.007123
16.351,80.4758,0.007123
16.382,80.4698,0.007189
16.413,80.4636,0.007189
16.445,80.4570,0.007189
16.474,80.4512,0.007189
16.505,80.4452,0.007189
16.536,80.4389,0.007189
16.568,80.4325,0.007189
16.599,80.4263,0.007189
16.630,80.4201,0.007227
16.661,80.4139,0.007227
16.692,80.4077,0.007227
16.723,80.4014,0.007227
16.755,80.3951,0.007227
16.787,80.3888,0.007227
16.819,80.3824,0.007227
16.849,80.3762,0.007227
16.880,80.3700,0.007274
16.912,80.3636,0.007274
16.943,80.3575,0.007274
16.975,80.3511,0.007274
17.009,80.3444,0.007274
17.038,80.3384,0.007274
17.070,80.3320,0.007274
17.101,80.3258,0.007274
17.132,80.3196,0.007293
17.163,80.3135,0.007293
17.195,80.3072,0.007293
17.226,80.3008,0.007293
17.257,80.2949,0.007293
17.288,80.2884,0.007293
17.319,80.2824,0.007293
17.350,80.2760,0.007311
17.380,80.2701,0.007311
17.411,80.2638,0.007311
17.442,80.2578,0.007311
17.473,80.2512,0.007311
17.504,80.2453,0.007311
17.536,80.2389,0.007311
17.567,80.2326,0.007311
17.597,80.2267,0.007311
17.628,80.2205,0.007227
17.658,80.2146,0.007227
17.689,80.2083,0.007227
17.720,80.2022,0.007227
17.750,80.1960,0.007227
17.782,80.1898,0.007227
17.813,80.1836,0.007227
17.844,80.1774,0.007133
17.875,80.1711,0.007133
17.907,80.1647,0.007133
17.937,80.1586,0.007133
17.969,80.1523,0.007133
18.000,80.1462,0.007133
18.033,80.1396,0.007133
18.061,80.1339,0.007133
18.093,80.1276,0.007133
18.124,80.1214,0.007133
18.155,80.1152,0.007170
18.186,80.1088,0.007170
18.217,80.1028,0.007170
18.248,80.0964,0.007170
18.278,80.0906,0.007170
18.309,80.0842,0.007170
18.341,80.0778,0.007170
18.371,80.0719,0.007170
18.402,80.0656,0.007161
18.433,80.0594,0.007161
18.464,80.0533,0.007161
18.495,80.0468,0.007161
18.527,80.0408,0.007161
18.558,80.0344,0.007161
18.589,80.0284,0.007161
18.620,80.0220,0.007161
18.650,80.0160,0.007142
18.681,80.0100,0.007142
18.712,80.0038,0.007142
18.743,79.9973,0.007142
18.775,79.9909,0.007142
18.805,79.9851,0.007142
18.837,79.9787,0.007142
18.867,79.9727,0.007142
18.898,79.9665,0.007076
18.930,79.9601,0.007076
18.961,79.9539,0.007076
18.992,79.9477,0.007076
19.024,79.9413,0.007076
19.055,79.9352,0.007076
19.086,79.9289,0.007076
19.116,79.9227,0.007020
19.147,79.9166,0.007020
19.178,79.9105,0.007020
19.209,79.9043,0.007020
19.240,79.8983,0.007020
19.270,79.8921,0.007020
19.302,79.8857,0.007020
19.332,79.8797,0.007020
19.364,79.8735,0.007010
19.395,79.8672,0.007010
19.425,79.8613,0.007010
19.457,79.8557,0.007010
19.488,79.8510,0.007010
19.520,79.8469,0.007010
19.551,79.8438,0.007010
19.582,79.8412,0.007010
19.614,79.8395,0.006869
19.645,79.8385,0.006869
19.675,79.8382,0.006869
19.707,79.8382,0.006869
19.738,79.8382,0.006869
19.769,79.8382,0.006869
19.800,79.8382,0.006869
19.831,79.8382,0.006869
19.862,79.8387,0.006869
19.893,79.8401,0.006681
19.924,79.8419,0.006681
19.955,79.8447,0.006681
19.986,79.8481,0.006681
20.018,79.8524,0.006681
20.049,79.8572,0.006681
20.080,79.8629,0.006681
20.111,79.8691,0.006587
20.143,79.8756,0.006587
20.173,79.8815,0.006587
20.204,79.8876,0.006587
20.235,79.8940,0.006587
20.266,79.9001,0.006587
20.297,79.9063,0.006587
20.328,79.9124,0.006587
20.358,79.9187,0.006615
20.389,79.9249,0.006615
20.421,79.9311,0.006615
20.452,79.9374,0.006615
20.484,79.9436,0.006615
20.514,79.9498,0.006615
20.546,79.9560,0.006615
20.576,79.9623,0.006615
20.608,79.9685,0.006615
20.639,79.9749,0.006747
20.671,79.9811,0.006747
20.703,79.9877,0.006747
20.735,79.9939,0.006747
20.765,80.0001,0.006747
20.797,80.0064,0.006747
20.829,80.0129,0.006747
20.860,80.0189,0.006747
20.891,80.0251,0.006897
20.923,80.0313,0.006897
20.953,80.0374,0.006897
20.984,80.0437,0.006897
21.014,80.0496,0.006897
21.044,80.0559,0.006897
21.075,80.0621,0.006897
21.106,80.0680,0.006897
21.137,80.0742,0.006963
21.168,80.0804,0.006963
21.199,80.0868,0.006963
21.231,80.0930,0.006963
21.262,80.0994,0.006963
21.294,80.1057,0.006963
21.325,80.1119,0.006963
21.357,80.1183,0.006963
21.388,80.1243,0.007057
21.419,80.1308,0.007057
21.450,80.1369,0.007057
21.482,80.1432,0.007057
21.513,80.1497,0.007057
21.544,80.1557,0.007057
21.575,80.1619,0.007057
21.606,80.1681,0.007057
21.636,80.1742,0.007142
21.667,80.1803,0.007142
21.698,80.1865,0.007142
21.728,80.1926,0.007142
21.761,80.1991,0.007142
21.791,80.2052,0.007142
21.822,80.2113,0.007142
21.853,80.2174,0.007142
21.884,80.2237,0.007142
21.916,80.2300,0.007142
21.946,80.2361,0.007142
21.978,80.2425,0.007142
22.008,80.2485,0.007142
22.039,80.2548,0.007142
22.070,80.2609,0.007142
22.101,80.2670,0.007189
22.132,80.2734,0.007189
22.163,80.2796,0.007189
22.194,80.2857,0.007189
22.225,80.2919,0.007189
22.257,80.2984,0.007189
22.288,80.3046,0.007189
22.319,80.3108,0.007189
22.350,80.3168,0.007189
22.382,80.3234,0.007246
22.413,80.3295,0.007246
22.444,80.3358,0.007246
22.475,80.3419,0.007246
22.506,80.3483,0.007246
22.536,80.3542,0.007246
22.567,80.3602,0.007246
22.598,80.3664,0.007246
22.628,80.3726,0.007217
22.660,80.3790,0.007217
22.690,80.3848,0.007217
22.721,80.3912,0.007217
22.752,80.3973,0.007217
22.782,80.4035,0.007217
22.813,80.4096,0.007217
22.845,80.4159,0.007180
22.876,80.4223,0.007180
22.907,80.4285,0.007180
22.939,80.4348,0.007180
22.970,80.4411,0.007180
23.001,80.4471,0.007180
23.032,80.4533,0.007180
23.063,80.4593,0.007180
23.094,80.4657,0.007180
23.125,80.4721,0.007180
23.156,80.4782,0.007180
23.187,80.4843,0.007180
23.219,80.4906,0.007180
23.249,80.4967,0.007180
23.280,80.5030,0.007180
23.311,80.5091,0.007180
23.342,80.5153,0.007180
23.373,80.5215,0.007180
23.405,80.5279,0.007180
23.436,80.5340,0.007180
23.467,80.5403,0.007180
23.499,80.5468,0.007180
23.530,80.5530,0.007180
23.561,80.5591,0.007180
23.593,80.5656,0.007180
23.623,80.5717,0.007086
23.653,80.5775,0.007086
23.684,80.5839,0.007086
23.716,80.5902,0.007086
23.747,80.5963,0.007086
23.777,80.6023,0.007086
23.809,80.6085,0.007086
23.841,80.6151,0.007086
23.871,80.6212,0.007057
23.903,80.6275,0.007057
23.934,80.6337,0.007057
23.964,80.6398,0.007057
23.995,80.6459,0.007057
24.027,80.6522,0.007057
24.058,80.6585,0.007057
24.089,80.6646,0.007057
24.119,80.6708,0.007067
24.151,80.6770,0.007067
24.182,80.6833,0.007067
24.215,80.6899,0.007067
24.244,80.6957,0.007067
24.275,80.7018,0.007067
24.306,80.7080,0.007067
24.337,80.7143,0.007067
24.368,80.7205,0.007001
24.399,80.7267,0.007001
24.430,80.7331,0.007001
24.462,80.7393,0.007001
24.492,80.7455,0.007001
24.522,80.7514,0.007001
24.553,80.7576,0.007001
24.584,80.7637,0.006992
24.615,80.7698,0.006992
24.646,80.7761,0.006992
24.677,80.7822,0.006992
24.708,80.7884,0.006992
24.740,80.7948,0.006992
24.770,80.8010,0.006992
24.801,80.8071,0.006992
24.832,80.8132,0.006992
24.863,80.8194,0.006992
24.895,80.8261,0.007010
24.925,80.8320,0.007010
24.957,80.8382,0.007010
24.987,80.8443,0.007010
25.019,80.8506,0.007010
25.050,80.8567,0.007010
25.081,80.8630,0.007010
25.113,80.8695,0.006954
25.145,80.8759,0.006954
25.175,80.8819,0.006954
25.205,80.8878,0.006954
25.235,80.8939,0.006954
25.267,80.9002,0.006954
25.298,80.9066,0.006954
25.328,80.9126,0.006954
25.361,80.9191,0.006954
25.391,80.9252,0.006869
25.421,80.9311,0.006869
25.454,80.9378,0.006869
25.484,80.9436,0.006869
25.515,80.9501,0.006869
25.547,80.9564,0.006869
25.579,80.9627,0.006869
25.609,80.9688,0.006869
25.641,80.9752,0.006813
25.672,80.9812,0.006813
25.704,80.9878,0.006813
25.735,80.9939,0.006813
25.767,81.0003,0.006813
25.798,81.0064,0.006813
25.829,81.0126,0.006813
25.859,81.0187,0.006813
25.890,81.0248,0.006785
25.920,81.0310,0.006785
25.951,81.0372,0.006785
25.982,81.0434,0.006785
26.013,81.0494,0.006785
26.043,81.0555,0.006785
26.075,81.0618,0.006785
26.105,81.0679,0.006785
26.136,81.0741,0.006728
26.166,81.0801,0.006728
26.198,81.0865,0.006728
26.229,81.0927,0.006728
26.260,81.0990,0.006728
26.291,81.1051,0.006728
26.322,81.1115,0.006728
26.353,81.1175,0.006728
26.384,81.1237,0.006728
26.414,81.1297,0.006672
26.445,81.1358,0.006672
26.476,81.1421,0.006672
26.506,81.1482,0.006672
26.538,81.1544,0.006672
26.569,81.1608,0.006672
26.600,81.1670,0.006662
26.631,81.1731,0.006662
26.663,81.1794,0.006662
26.694,81.1857,0.006662
26.726,81.1921,0.006662
26.756,81.1983,0.006662
26.788,81.2045,0.006662
26.819,81.2108,0.006662
26.850,81.2170,0.006662
26.883,81.2236,0.006530
26.913,81.2295,0.006530
26.943,81.2355,0.006530
26.974,81.2417,0.006530
27.005,81.2480,0.006530
27.037,81.2542,0.006530
27.068,81.2604,0.006530
27.099,81.2666,0.006530
27.132,81.2733,0.006455
27.162,81.2793,0.006455
27.193,81.2856,0.006455
27.223,81.2915,0.006455
27.254,81.2976,0.006455
27.285,81.3039,0.006455
27.316,81.3101,0.006455
27.347,81.3163,0.006455
27.378,81.3225,0.006436
27.409,81.3286,0.006436
27.440,81.3348,0.006436
27.470,81.3408,0.006436
27.500,81.3471,0.006436
27.532,81.3532,0.006436
27.564,81.3599,0.006436
27.595,81.3657,0.006323
27.626,81.3721,0.006323
27.658,81.3784,0.006323
27.689,81.3848,0.006323
27.721,81.3910,0.006323
27.752,81.3973,0.006323
27.783,81.4035,0.006323
27.814,81.4097,0.006323
27.845,81.4161,0.006323
27.877,81.4224,0.006323
27.907,81.4282,0.006323
27.938,81.4344,0.006323
27.969,81.4406,0.006323
28.000,81.4469,0.006323
28.030,81.4529,0.006323
28.061,81.4591,0.006323
28.092,81.4653,0.006323
28.123,81.4716,0.006201
28.153,81.4776,0.006201
28.185,81.4839,0.006201
28.216,81.4900,0.006201
28.246,81.4962,0.006201
28.277,81.5021,0.006201
28.308,81.5083,0.006201
28.339,81.5148,0.006116
28.371,81.5210,0.006116
28.402,81.5274,0.006116
28.432,81.5331,0.006116
28.463,81.5393,0.006116
28.493,81.5457,0.006116
28.523,81.5515,0.006116
28.554,81.5577,0.006116
28.586,81.5639,0.006116
28.617,81.5702,0.005994
28.648,81.5764,0.005994
28.680,81.5827,0.005994
28.710,81.5888,0.005994
28.741,81.5951,0.005994
28.773,81.6013,0.005994
28.804,81.6078,0.005994
28.835,81.6139,0.005994
28.866,81.6201,0.005862
28.897,81.6264,0.005862
28.928,81.6325,0.005862
28.959,81.6387,0.005862
28.989,81.6448,0.005862
29.020,81.6510,0.005862
29.051,81.6572,0.005862
29.083,81.6635,0.005862
29.114,81.6696,0.005825
29.145,81.6760,0.005825
29.177,81.6823,0.005825
29.208,81.6885,0.005825
29.239,81.6946,0.005825
29.270,81.7008,0.005825
29.301,81.7070,0.005825
29.332,81.7132,0.005825
29.362,81.7193,0.005721
29.394,81.7257,0.005721
29.426,81.7321,0.005721
29.456,81.7381,0.005721
29.487,81.7442,0.005721
29.518,81.7504,0.005721
29.549,81.7566,0.005721
29.580,81.7628,0.005721
29.611,81.7690,0.005721
29.642,81.7752,0.005655
29.673,81.7814,0.005655
29.704,81.7876,0.005655
29.733,81.7935,0.005655
29.765,81.7998,0.005655
29.796,81.8060,0.005655
29.826,81.8122,0.005655
29.858,81.8184,0.005655
29.889,81.8246,0.005552
29.920,81.8310,0.005552
29.952,81.8371,0.005552
29.983,81.8436,0.005552
30.014,81.8498,0.005552
30.045,81.8558,0.005552
30.076,81.8619,0.005552
30.106,81.8682,0.005552
30.138,81.8743,0.005552
30.168,81.8806,0.005467
30.199,81.8866,0.005467
30.229,81.8928,0.005467
30.260,81.8989,0.005467
30.291,81.9050,0.005467
30.322,81.9113,0.005467
30.353,81.9174,0.005467
30.384,81.9236,0.005364
30.415,81.9299,0.005364
30.446,81.9360,0.005364
30.476,81.9422,0.005364
30.508,81.9484,0.005364
30.538,81.9546,0.005364
30.569,81.9605,0.005364
30.599,81.9668,0.005364
30.630,81.9727,0.005364
30.661,81.9791,0.005298
30.691,81.9851,0.005298
30.722,81.9914,0.005298
30.753,81.9974,0.005298
30.784,82.0038,0.005298
30.816,82.0101,0.005298
30.848,82.0166,0.005298
30.879,82.0227,0.005175
30.911,82.0291,0.005175
30.943,82.0354,0.005175
30.973,82.0415,0.005175
31.004,82.0477,0.005175
31.035,82.0539,0.005175
31.066,82.0602,0.005175
31.097,82.0663,0.005175
31.128,82.0725,0.005081
31.159,82.0786,0.005081
31.190,82.0848,0.005081
31.221,82.0911,0.005081
31.252,82.0972,0.005081
31.283,82.1035,0.005081
31.314,82.1097,0.005081
31.345,82.1159,0.005081
31.376,82.1220,0.005015
31.407,82.1283,0.005015
31.439,82.1345,0.005015
31.469,82.1407,0.005015
31.501,82.1469,0.005015
31.531,82.1532,0.005015
31.562,82.1592,0.005015
31.593,82.1654,0.005015
31.624,82.1717,0.004912
31.655,82.1777,0.004912
31.686,82.1841,0.004912
31.716,82.1901,0.004912
31.747,82.1964,0.004912
31.778,82.2025,0.004912
31.809,82.2087,0.004912
31.841,82.2151,0.004912
31.871,82.2211,0.004790
31.902,82.2272,0.004790
31.933,82.2334,0.004790
31.964,82.2397,0.004790
31.995,82.2458,0.004790
32.026,82.2521,0.004790
32.057,82.2582,0.004790
32.088,82.2644,0.004790
32.119,82.2706,0.004686
32.150,82.2768,0.004686
32.180,82.2830,0.004686
32.212,82.2893,0.004686
32.243,82.2955,0.004686
32.274,82.3016,0.004686
32.305,82.3079,0.004686
32.336,82.3140,0.004686
32.367,82.3202,0.004686
32.398,82.3264,0.004573
32.429,82.3326,0.004573
32.460,82.3388,0.004573
32.491,82.3451,0.004573
32.522,82.3513,0.004573
32.554,82.3576,0.004573
32.585,82.3638,0.004573
32.616,82.3700,0.004479
32.647,82.3762,0.004479
32.678,82.3823,0.004479
32.709,82.3888,0.004479
32.741,82.3951,0.004479
32.772,82.4012,0.004479
32.803,82.4074,0.004479
32.834,82.4137,0.004479
32.865,82.4198,0.004394
32.896,82.4261,0.004394
32.926,82.4322,0.004394
32.957,82.4381,0.004394
32.988,82.4443,0.004394
33.019,82.4507,0.004394
33.051,82.4569,0.004394
33.081,82.4631,0.004394
33.113,82.4693,0.004291
33.144,82.4756,0.004291
33.176,82.4820,0.004291
33.206,82.4879,0.004291
33.237,82.4943,0.004291
33.267,82.5001,0.004291
33.297,82.5065,0.004291
33.329,82.5125,0.004291
33.361,82.5190,0.004206
33.392,82.5252,0.004206
33.422,82.5313,0.004206
33.453,82.5375,0.004206
33.485,82.5438,0.004206
33.516,82.5500,0.004206
33.548,82.5564,0.004206
33.579,82.5627,0.004206
33.611,82.5691,0.004206
33.641,82.5749,0.004206
33.672,82.5811,0.004206
33.703,82.5873,0.004206
33.734,82.5935,0.004206
33.765,82.5997,0.004206
33.796,82.6061,0.004206
33.827,82.6123,0.004206
33.858,82.6183,0.004206
33.889,82.6245,0.004187
33.920,82.6309,0.004187
33.951,82.6371,0.004187
33.984,82.6435,0.004187
34.015,82.6497,0.004187
34.046,82.6559,0.004187
34.077,82.6621,0.004187
34.108,82.6683,0.004187
34.138,82.6746,0.004150
34.169,82.6807,0.004150
34.200,82.6868,0.004150
34.231,82.6930,0.004150
34.263,82.6994,0.004150
34.295,82.7058,0.004150
34.325,82.7119,0.004150
34.357,82.7182,0.004150
34.388,82.7244,0.004131
34.419,82.7306,0.004131
34.451,82.7370,0.004131
34.481,82.7431,0.004131
34.513,82.7493,0.004131
34.544,82.7556,0.004131
34.575,82.7620,0.004131
34.606,82.7679,0.004131
34.637,82.7742,0.004037
34.669,82.7806,0.004037
34.700,82.7869,0.004037
34.731,82.7930,0.004037
34.762,82.7992,0.004037
34.793,82.8054,0.004037
34.824,82.8116,0.004037
34.855,82.8175,0.004037
34.885,82.8225,0.004046
34.917,82.8271,0.004046
34.948,82.8307,0.004046
34.980,82.8338,0.004046
35.011,82.8359,0.004046
35.041,82.8374,0.004046
35.073,82.8381,0.004046
35.103,82.8382,0.004046
35.134,82.8382,0.004103
35.166,82.8382,0.004103
35.196,82.8382,0.004103
35.226,82.8382,0.004103
35.257,82.8382,0.004103
35.288,82.8382,0.004103
35.320,82.8382,0.004103
35.350,82.8382,0.004046
35.380,82.8382,0.004046
35.411,82.8382,0.004046
35.442,82.8382,0.004046
35.473,82.8382,0.004046
35.504,82.8382,0.004046
35.534,82.8382,0.004046
35.566,82.8382,0.004046
35.597,82.8382,0.003962
35.627,82.8382,0.003962
35.658,82.8382,0.003962
35.688,82.8382,0.003962
35.719,82.8382,0.003962
35.750,82.8382,0.003962
35.783,82.8382,0.003962
35.813,82.8382,0.003962
35.845,82.8382,0.003962
35.876,82.8382,0.003962
35.907,82.8382,0.003943
35.939,82.8382,0.003943
35.971,82.8382,0.003943
36.001,82.8382,0.003943
36.032,82.8382,0.003943
36.063,82.8382,0.003943
36.094,82.8382,0.003943
36.124,82.8382,0.003943
36.155,82.8382,0.003943
36.188,82.8382,0.003943
36.217,82.8382,0.003943
36.248,82.8382,0.003943
36.280,82.8382,0.003943
36.311,82.8382,0.003943
36.342,82.8382,0.003943
36.372,82.8382,0.003943
36.404,82.8382,0.004046
36.436,82.8382,0.004046
36.467,82.8382,0.004046
36.498,82.8382,0.004046
36.529,82.8382,0.004046
36.561,82.8382,0.004046
36.592,82.8382,0.004046
36.624,82.8382,0.004037
36.655,82.8382,0.004037
36.686,82.8382,0.004037
36.717,82.8382,0.004037
36.747,82.8382,0.004037
36.779,82.8382,0.004037
36.810,82.8382,0.004037
36.841,82.8382,0.004037
36.872,82.8382,0.004037
36.902,82.8382,0.004065
36.933,82.8382,0.004065
36.964,82.8382,0.004065
36.994,82.8382,0.004065
37.026,82.8382,0.004065
37.055,82.8382,0.004065
37.088,82.8382,0.004065
37.118,82.8382,0.004065
37.149,82.8382,0.004065
37.180,82.8382,0.004065
37.212,82.8382,0.004065
37.242,82.8382,0.004065
37.273,82.8382,0.004065
37.303,82.8382,0.004065
37.335,82.8382,0.004065
37.365,82.8382,0.004009
37.397,82.8382,0.004009
37.428,82.8382,0.004009
37.460,82.8382,0.004009
37.491,82.8382,0.004009
37.523,82.8382,0.004009
37.553,82.8382,0.004009
37.584,82.8382,0.004009
37.615,82.8382,0.004027
37.647,82.8382,0.004027
37.678,82.8382,0.004027
37.709,82.8382,0.004027
37.739,82.8382,0.004027
37.770,82.8382,0.004027
37.800,82.8382,0.004027
37.831,82.8382,0.004027
37.862,82.8382,0.004027
37.893,82.8382,0.004027
37.924,82.8382,0.004027
37.955,82.8382,0.004027
37.986,82.8382,0.004027
38.017,82.8382,0.004027
38.049,82.8382,0.004027
38.079,82.8382,0.004027
38.110,82.8382,0.003999
38.142,82.8382,0.003999
38.173,82.8382,0.003999
38.205,82.8382,0.003999
38.236,82.8382,0.003999
38.267,82.8382,0.003999
38.298,82.8382,0.003999
38.329,82.8382,0.003999
38.360,82.8382,0.003999
38.390,82.8382,0.004018
38.421,82.8382,0.004018
38.453,82.8382,0.004018
38.484,82.8382,0.004018
38.515,82.8382,0.004018
38.546,82.8382,0.004018
38.577,82.8382,0.004018
38.608,82.8382,0.004037
38.639,82.8382,0.004037
38.671,82.8382,0.004037
38.701,82.8382,0.004037
38.733,82.8382,0.004037
38.764,82.8382,0.004037
38.796,82.8382,0.004037
38.825,82.8382,0.004037
38.857,82.8382,0.003999
38.888,82.8382,0.003999
38.919,82.8382,0.003999
38.950,82.8382,0.003999
38.981,82.8382,0.003999
39.012,82.8382,0.003999
39.043,82.8382,0.003999
39.074,82.8382,0.003999
39.105,82.8382,0.003999
39.136,82.8382,0.003990
39.167,82.8382,0.003990
39.197,82.8382,0.003990
39.228,82.8382,0.003990
39.259,82.8382,0.003990
39.291,82.8382,0.003990
39.322,82.8382,0.003990
39.353,82.8382,0.004018
39.384,82.8381,0.004018
39.415,82.8375,0.004018
39.446,82.8360,0.004018
39.476,82.8339,0.004018
39.507,82.8310,0.004018
39.538,82.8274,0.004018
39.569,82.8231,0.004018
39.600,82.8181,0.004122
39.630,82.8126,0.004122
39.661,82.8064,0.004122
39.692,82.8002,0.004122
39.724,82.7937,0.004122
39.755,82.7875,0.004122
39.785,82.7814,0.004122
39.817,82.7752,0.004122
39.847,82.7690,0.004140
39.878,82.7628,0.004140
39.909,82.7569,0.004140
39.940,82.7504,0.004140
39.970,82.7445,0.004140
40.002,82.7381,0.004140
40.033,82.7321,0.004140
40.064,82.7256,0.004140
40.095,82.7195,0.004169
40.127,82.7132,0.004169
40.157,82.7070,0.004169
40.189,82.7006,0.004169
40.220,82.6946,0.004169
40.251,82.6882,0.004169
40.281,82.6823,0.004169
40.312,82.6761,0.004169
40.343,82.6699,0.004169
40.375,82.6636,0.004169
40.406,82.6574,0.004206
40.436,82.6513,0.004206
40.468,82.6449,0.004206
40.499,82.6388,0.004206
40.530,82.6324,0.004206
40.561,82.6263,0.004206
40.592,82.6199,0.004206
40.623,82.6139,0.004244
40.654,82.6077,0.004244
40.685,82.6016,0.004244
40.717,82.5951,0.004244
40.748,82.5889,0.004244
40.779,82.5827,0.004244
40.810,82.5764,0.004244
40.840,82.5706,0.004244
40.871,82.5643,0.004357
40.902,82.5582,0.004357
40.933,82.5520,0.004357
40.964,82.5458,0.004357
40.995,82.5396,0.004357
41.025,82.5334,0.004357
41.056,82.5274,0.004357
41.088,82.5210,0.004357
41.119,82.5148,0.004357
41.149,82.5088,0.004404
41.181,82.5024,0.004404
41.211,82.4963,0.004404
41.243,82.4900,0.004404
41.274,82.4838,0.004404
41.305,82.4774,0.004404
41.336,82.4712,0.004404
41.367,82.4652,0.004432
41.398,82.4591,0.004432
41.428,82.4529,0.004432
41.459,82.4467,0.004432
41.490,82.4405,0.004432
41.521,82.4344,0.004432
41.552,82.4280,0.004432
41.583,82.4219,0.004432
41.613,82.4157,0.004432
41.644,82.4096,0.004526
41.674,82.4035,0.004526
41.706,82.3973,0.004526
41.736,82.3914,0.004526
41.767,82.3850,0.004526
41.799,82.3788,0.004526
41.830,82.3725,0.004526
41.861,82.3663,0.004611
41.893,82.3599,0.004611
41.923,82.3538,0.004611
41.954,82.3477,0.004611
41.985,82.3416,0.004611
42.016,82.3353,0.004611
42.047,82.3291,0.004611
42.077,82.3230,0.004611
42.109,82.3166,0.004667
42.141,82.3103,0.004667
42.171,82.3043,0.004667
42.202,82.2981,0.004667
42.232,82.2920,0.004667
42.264,82.2857,0.004667
42.294,82.2798,0.004667
42.325,82.2736,0.004667
42.356,82.2674,0.004780
42.387,82.2610,0.004780
42.418,82.2549,0.004780
42.450,82.2485,0.004780
42.481,82.2423,0.004780
42.513,82.2360,0.004780
42.544,82.2298,0.004780
42.575,82.2234,0.004780
42.606,82.2175,0.004837
42.636,82.2114,0.004837
42.667,82.2052,0.004837
42.698,82.1990,0.004837
42.729,82.1927,0.004837
42.760,82.1865,0.004837
42.792,82.1802,0.004837
42.822,82.1741,0.004837
42.853,82.1678,0.004893
42.884,82.1618,0.004893
42.914,82.1555,0.004893
42.945,82.1495,0.004893
42.979,82.1428,0.004893
43.008,82.1368,0.004893
43.040,82.1303,0.004893
43.071,82.1244,0.004893
43.102,82.1182,0.004893
43.133,82.1119,0.004950
43.164,82.1056,0.004950
43.197,82.0991,0.004950
43.228,82.0930,0.004950
43.261,82.0864,0.004950
43.291,82.0804,0.004950
43.321,82.0742,0.004950
43.352,82.0680,0.004950
43.383,82.0620,0.004987
43.414,82.0558,0.004987
43.446,82.0494,0.004987
43.477,82.0430,0.004987
43.508,82.0369,0.004987
43.539,82.0308,0.004987
43.569,82.0248,0.004987
43.601,82.0184,0.005100
43.632,82.0120,0.005100
43.663,82.0059,0.005100
43.694,81.9997,0.005100
43.725,81.9935,0.005100
43.756,81.9873,0.005100
43.787,81.9811,0.005100
43.818,81.9750,0.005100
43.849,81.9688,0.005100
43.880,81.9625,0.005232
43.912,81.9563,0.005232
43.943,81.9500,0.005232
43.973,81.9439,0.005232
44.005,81.9376,0.005232
44.036,81.9312,0.005232
44.067,81.9252,0.005232
44.098,81.9191,0.005326
44.128,81.9129,0.005326
44.160,81.9067,0.005326
44.190,81.9004,0.005326
44.221,81.8942,0.005326
44.253,81.8880,0.005326
44.283,81.8820,0.005326
44.314,81.8757,0.005326
44.345,81.8695,0.005326
44.376,81.8634,0.005326
44.406,81.8573,0.005401
44.438,81.8509,0.005401
44.467,81.8452,0.005401
44.498,81.8390,0.005401
44.530,81.8326,0.005401
44.560,81.8267,0.005401
44.590,81.8205,0.005495
44.621,81.8144,0.005495
44.652,81.8081,0.005495
44.682,81.8020,0.005495
44.713,81.7958,0.005495
44.745,81.7896,0.005495
44.776,81.7834,0.005495
44.806,81.7773,0.005495
44.837,81.7711,0.005495
44.869,81.7647,0.005561
44.898,81.7589,0.005561
44.929,81.7527,0.005561
44.961,81.7465,0.005561
44.993,81.7400,0.005561
45.024,81.7338,0.005561
45.055,81.7276,0.005561
45.086,81.7214,0.005561
45.116,81.7152,0.005561
45.147,81.7091,0.005637
45.178,81.7029,0.005637
45.211,81.6963,0.005637
45.241,81.6904,0.005637
45.273,81.6841,0.005637
45.302,81.6781,0.005637
45.334,81.6718,0.005637
45.365,81.6656,0.005637
45.395,81.6595,0.005759
45.426,81.6534,0.005759
45.457,81.6472,0.005759
45.487,81.6412,0.005759
45.519,81.6347,0.005759
45.550,81.6286,0.005759
45.582,81.6222,0.005759
45.612,81.6161,0.005853
45.643,81.6099,0.005853
45.673,81.6038,0.005853
45.705,81.5976,0.005853
45.735,81.5915,0.005853
45.766,81.5853,0.005853
45.797,81.5793,0.005853
45.827,81.5729,0.005853
45.858,81.5669,0.005919
45.890,81.5605,0.005919
45.920,81.5546,0.005919
45.951,81.5483,0.005919
45.981,81.5423,0.005919
46.013,81.5360,0.005919
46.044,81.5299,0.005919
46.075,81.5236,0.005919
46.106,81.5174,0.006079
46.137,81.5111,0.006079
46.168,81.5050,0.006079
46.199,81.4988,0.006079
46.230,81.4926,0.006079
46.262,81.4863,0.006079
46.292,81.4802,0.006079
46.323,81.4738,0.006079
46.355,81.4675,0.006182
46.386,81.4612,0.006182
46.416,81.4554,0.006182
46.448,81.4489,0.006182
46.479,81.4428,0.006182
46.511,81.4364,0.006182
46.541,81.4303,0.006182
46.572,81.4241,0.006182
46.602,81.4182,0.006192
46.634,81.4118,0.006192
46.665,81.4055,0.006192
46.696,81.3993,0.006192
46.727,81.3932,0.006192
46.758,81.3868,0.006192
46.789,81.3807,0.006192
46.820,81.3745,0.006192
46.851,81.3684,0.006258
46.882,81.3622,0.006258
46.913,81.3560,0.006258
46.943,81.3499,0.006258
46.975,81.3435,0.006258
47.006,81.3375,0.006258
47.037,81.3312,0.006258
47.067,81.3250,0.006258
47.098,81.3188,0.006258
47.131,81.3124,0.006370
47.161,81.3062,0.006370
47.192,81.3002,0.006370
47.224,81.2938,0.006370
47.255,81.2874,0.006370
47.287,81.2811,0.006370
47.318,81.2749,0.006370
47.349,81.2688,0.006455
47.379,81.2628,0.006455
47.410,81.2566,0.006455
47.441,81.2504,0.006455
47.472,81.2442,0.006455
47.503,81.2380,0.006455
47.534,81.2319,0.006455
47.565,81.2257,0.006455
47.595,81.2195,0.006455
47.628,81.2132,0.006502
47.658,81.2070,0.006502
47.689,81.2006,0.006502
47.720,81.1945,0.006502
47.751,81.1885,0.006502
47.783,81.1821,0.006502
47.813,81.1758,0.006502
47.845,81.1695,0.006587
47.878,81.1630,0.006587
47.907,81.1572,0.006587
47.938,81.1509,0.006587
47.969,81.1448,0.006587
47.999,81.1386,0.006587
48.031,81.1324,0.006587
48.062,81.1262,0.006587
48.093,81.1201,0.006587
48.124,81.1137,0.006587
48.155,81.1077,0.006587
48.187,81.1013,0.006662
48.218,81.0950,0.006662
48.248,81.0889,0.006662
48.279,81.0828,0.006662
48.310,81.0765,0.006662
48.342,81.0700,0.006662
48.374,81.0638,0.006662
48.405,81.0576,0.006709
48.436,81.0514,0.006709
48.467,81.0451,0.006709
48.498,81.0389,0.006709
48.529,81.0328,0.006709
48.560,81.0265,0.006709
48.591,81.0204,0.006709
48.622,81.0141,0.006756
48.653,81.0080,0.006756
48.685,81.0016,0.006756
48.716,80.9955,0.006756
48.747,80.9890,0.006756
48.779,80.9828,0.006756
48.810,80.9765,0.006756
48.841,80.9704,0.006756
48.872,80.9641,0.006756
48.903,80.9580,0.006813
48.934,80.9517,0.006813
48.965,80.9458,0.006813
48.996,80.9393,0.006813
49.027,80.9334,0.006813
49.059,80.9269,0.006813
49.090,80.9206,0.006813
49.120,80.9145,0.006813
49.151,80.9083,0.006897
49.182,80.9021,0.006897
49.213,80.8959,0.006897
49.244,80.8896,0.006897
49.275,80.8836,0.006897
49.306,80.8773,0.006897
49.337,80.8713,0.006897
49.369,80.8649,0.006897
49.399,80.8588,0.006973
49.431,80.8524,0.006973
49.461,80.8463,0.006973
49.493,80.8400,0.006973
49.524,80.8338,0.006973
49.555,80.8274,0.006973
49.586,80.8214,0.006973
49.617,80.8150,0.007039
49.647,80.8092,0.007039
49.678,80.8029,0.007039
49.709,80.7968,0.007039
49.740,80.7906,0.007039
49.771,80.7844,0.007039
49.803,80.7781,0.007039
49.834,80.7718,0.007039
49.865,80.7657,0.007039
49.896,80.7592,0.007095
49.927,80.7533,0.007095
49.957,80.7471,0.007095
49.988,80.7410,0.007095
50.019,80.7347,0.007095
50.050,80.7286,0.007095
50.082,80.7221,0.007095
50.113,80.7159,0.007123
50.144,80.7096,0.007123
50.175,80.7037,0.007123
50.206,80.6975,0.007123
50.237,80.6913,0.007123
50.268,80.6852,0.007123
50.299,80.6787,0.007123
50.330,80.6727,0.007123
50.360,80.6665,0.007123
50.393,80.6599,0.007114
50.422,80.6543,0.007114
50.451,80.6483,0.007114
50.483,80.6420,0.007114
50.514,80.6358,0.007114
50.544,80.6297,0.007114
50.575,80.6234,0.007114
50.606,80.6175,0.007151
50.637,80.6113,0.007151
50.668,80.6051,0.007151
50.699,80.5987,0.007151
50.730,80.5925,0.007151
50.762,80.5862,0.007151
50.793,80.5800,0.007151
50.823,80.5739,0.007151
50.855,80.5675,0.007208
50.886,80.5614,0.007208
50.917,80.5552,0.007208
50.948,80.5489,0.007208
50.980,80.5424,0.007208
51.011,80.5365,0.007208
51.042,80.5302,0.007208
51.073,80.5241,0.007208
51.104,80.5176,0.007208
51.135,80.5116,0.007255
51.167,80.5052,0.007255
51.197,80.4991,0.007255
51.228,80.4931,0.007255
51.260,80.4865,0.007255
51.290,80.4807,0.007255
51.322,80.4743,0.007255
51.351,80.4684,0.007255
51.383,80.4621,0.007236
51.414,80.4557,0.007236
51.445,80.4497,0.007236
51.476,80.4435,0.007236
51.505,80.4376,0.007236
51.537,80.4313,0.007236
51.568,80.4249,0.007236
51.600,80.4187,0.007227
51.631,80.4123,0.007227
51.661,80.4063,0.007227
51.693,80.3999,0.007227
51.724,80.3939,0.007227
51.755,80.3877,0.007227
51.786,80.3813,0.007227
51.817,80.3751,0.007227
51.849,80.3689,0.007283
51.879,80.3627,0.007283
51.910,80.3565,0.007283
51.942,80.3502,0.007283
51.972,80.3440,0.007283
52.004,80.3379,0.007283
52.035,80.3316,0.007283
52.066,80.3255,0.007283
52.097,80.3192,0.007283
52.128,80.3129,0.007283
52.159,80.3068,0.007283
52.190,80.3006,0.007283
52.221,80.2944,0.007283
52.252,80.2883,0.007283
52.282,80.2822,0.007283
52.313,80.2760,0.007283
52.344,80.2700,0.007283
52.374,80.2636,0.007283
52.406,80.2574,0.007283
52.438,80.2510,0.007283
52.469,80.2449,0.007283
52.500,80.2386,0.007283
52.531,80.2324,0.007283
52.562,80.2260,0.007283
52.592,80.2202,0.007283
52.623,80.2140,0.007264
52.654,80.2079,0.007264
52.685,80.2017,0.007264
52.715,80.1957,0.007264
52.747,80.1892,0.007264
52.778,80.1830,0.007264
52.810,80.1767,0.007264
52.841,80.1702,0.007264
52.873,80.1640,0.007274
52.905,80.1577,0.007274
52.936,80.1515,0.007274
52.967,80.1451,0.007274
52.999,80.1387,0.007274
53.030,80.1327,0.007274
53.061,80.1266,0.007274
53.091,80.1204,0.007274
53.122,80.1143,0.007274
53.152,80.1082,0.007330
53.184,80.1019,0.007330
53.215,80.0956,0.007330
53.247,80.0893,0.007330
53.278,80.0830,0.007330
53.309,80.0768,0.007330
53.341,80.0704,0.007330
53.373,80.0641,0.007302
53.404,80.0577,0.007302
53.435,80.0517,0.007302
53.467,80.0453,0.007302
53.498,80.0389,0.007302
53.529,80.0328,0.007302
53.560,80.0266,0.007302
53.591,80.0204,0.007302
53.623,80.0141,0.007302
53.654,80.0079,0.007255
53.684,80.0018,0.007255
53.714,79.9957,0.007255
53.745,79.9898,0.007255
53.775,79.9835,0.007255
53.807,79.9774,0.007255
53.838,79.9709,0.007255
53.870,79.9646,0.007180
53.902,79.9582,0.007180
53.934,79.9520,0.007180
53.965,79.9456,0.007180
53.995,79.9397,0.007180
54.026,79.9334,0.007180
54.057,79.9272,0.007180
54.088,79.9210,0.007180
54.120,79.9146,0.007123
54.151,79.9085,0.007123
54.182,79.9023,0.007123
54.212,79.8961,0.007123
54.243,79.8899,0.007123
54.274,79.8837,0.007123
54.305,79.8777,0.007123
54.336,79.8715,0.007123
54.368,79.8651,0.007029
54.398,79.8589,0.007029
54.429,79.8529,0.007029
54.459,79.8467,0.007029
54.491,79.8406,0.007029
54.522,79.8341,0.007029
54.553,79.8281,0.007029
54.583,79.8220,0.006935
54.615,79.8157,0.006935
54.645,79.8100,0.006935
54.676,79.8046,0.006935
54.707,79.8002,0.006935
54.738,79.7963,0.006935
54.769,79.7932,0.006935
54.801,79.7909,0.006935
54.831,79.7894,0.006935
54.862,79.7884,0.006935
54.892,79.7882,0.006747
54.924,79.7882,0.006747
54.955,79.7882,0.006747
54.987,79.7882,0.006747
55.018,79.7882,0.006747
55.049,79.7882,0.006747
55.079,79.7882,0.006747
55.110,79.7885,0.006747
55.142,79.7895,0.006625
55.174,79.7913,0.006625
55.204,79.7938,0.006625
55.235,79.7971,0.006625
55.265,79.8008,0.006625
55.297,79.8056,0.006625
55.328,79.8109,0.006625
55.358,79.8170,0.006625
55.389,79.8230,0.006540
55.421,79.8294,0.006540
55.453,79.8357,0.006540
55.484,79.8421,0.006540
55.515,79.8483,0.006540
55.546,79.8544,0.006540
55.577,79.8606,0.006540
55.608,79.8669,0.006540
55.639,79.8732,0.006502
55.671,79.8793,0.006502
55.702,79.8855,0.006502
55.733,79.8918,0.006502
55.765,79.8981,0.006502
55.796,79.9045,0.006502
55.827,79.9105,0.006502
55.858,79.9169,0.006643
55.889,79.9229,0.006643
55.921,79.9294,0.006643
55.952,79.9356,0.006643
55.984,79.9420,0.006643
56.015,79.9481,0.006643
56.046,79.9544,0.006643
56.076,79.9604,0.006643
56.108,79.9668,0.006643
56.139,79.9730,0.006813
56.171,79.9795,0.006813
56.202,79.9856,0.006813
56.233,79.9918,0.006813
56.263,79.9978,0.006813
56.294,80.0039,0.006813
56.325,80.0102,0.006813
56.356,80.0163,0.006813
56.387,80.0225,0.006813
56.417,80.0287,0.006973
56.449,80.0349,0.006973
56.479,80.0410,0.006973
56.511,80.0473,0.006973
56.542,80.0535,0.006973
56.572,80.0596,0.006973
56.604,80.0659,0.006973
56.635,80.0721,0.007067
56.666,80.0785,0.007067
56.697,80.0845,0.007067
56.727,80.0909,0.007067
56.759,80.0971,0.007067
56.790,80.1034,0.007067
56.821,80.1095,0.007067
56.853,80.1157,0.007104
56.884,80.1221,0.007104
56.915,80.1281,0.007104
56.946,80.1344,0.007104
56.976,80.1403,0.007104
57.007,80.1465,0.007104
57.037,80.1525,0.007104
57.068,80.1587,0.007104
57.097,80.1647,0.007170
57.128,80.1709,0.007170
57.160,80.1772,0.007170
57.191,80.1834,0.007170
57.223,80.1896,0.007170
57.254,80.1958,0.007170
57.285,80.2022,0.007170
57.316,80.2086,0.007170
57.348,80.2146,0.007264
57.379,80.2210,0.007264
57.409,80.2270,0.007264
57.440,80.2332,0.007264
57.471,80.2394,0.007264
57.503,80.2458,0.007264
57.533,80.2517,0.007264
57.563,80.2578,0.007264
57.594,80.2640,0.007255
57.626,80.2704,0.007255
57.655,80.2764,0.007255
57.687,80.2825,0.007255
57.717,80.2886,0.007255
57.748,80.2949,0.007255
57.779,80.3010,0.007255
57.810,80.3073,0.007255
57.841,80.3134,0.007255
57.873,80.3198,0.007302
57.904,80.3259,0.007302
57.935,80.3323,0.007302
57.967,80.3384,0.007302
57.999,80.3450,0.007302
58.030,80.3512,0.007302
58.060,80.3573,0.007302
58.090,80.3632,0.007302
58.122,80.3697,0.007321
58.154,80.3760,0.007321
58.186,80.3824,0.007321
58.217,80.3886,0.007321
58.249,80.3952,0.007321
58.281,80.4014,0.007321
58.312,80.4077,0.007321
58.344,80.4139,0.007321
58.375,80.4203,0.007255
58.406,80.4263,0.007255
58.437,80.4325,0.007255
58.468,80.4389,0.007255
58.500,80.4451,0.007255
58.531,80.4513,0.007255
58.561,80.4572,0.007255
58.591,80.4633,0.007255
58.621,80.4694,0.007255
58.652,80.4756,0.007264
58.683,80.4817,0.007264
58.714,80.4880,0.007264
58.744,80.4941,0.007264
58.776,80.5004,0.007264
58.806,80.5063,0.007264
58.838,80.5127,0.007264
58.868,80.5190,0.007274
58.899,80.5249,0.007274
58.930,80.5311,0.007274
58.961,80.5373,0.007274
58.992,80.5435,0.007274
59.023,80.5499,0.007274
59.054,80.5561,0.007274
59.086,80.5624,0.007274
59.117,80.5685,0.007274
59.147,80.5748,0.007180
59.179,80.5809,0.007180
59.211,80.5873,0.007180
59.242,80.5935,0.007180
59.274,80.6000,0.007180
59.304,80.6059,0.007180
59.336,80.6124,0.007180
59.367,80.6185,0.007180
59.398,80.6249,0.007180
59.429,80.6310,0.007180
59.460,80.6372,0.007180
59.491,80.6433,0.007180
59.521,80.6495,0.007180
59.552,80.6557,0.007180
59.584,80.6619,0.007180
59.615,80.6683,0.007180
59.646,80.6743,0.007180
59.676,80.6806,0.007180
59.708,80.6867,0.007180
59.739,80.6929,0.007180
59.769,80.6990,0.007180
59.800,80.7050,0.007180
59.830,80.7112,0.007180
59.862,80.7176,0.007095
59.894,80.7239,0.007095
59.924,80.7301,0.007095
59.955,80.7362,0.007095
59.986,80.7424,0.007095
60.017,80.7486,0.007095
60.049,80.7549,0.007095
60.080,80.7612,0.007095
60.112,80.7675,0.007095
60.143,80.7737,0.007029
60.174,80.7799,0.007029
60.205,80.7861,0.007029
60.236,80.7923,0.007029
60.266,80.7984,0.007029
60.298,80.8047,0.007029
60.329,80.8109,0.007029
60.360,80.8171,0.007029
60.391,80.8232,0.006992
60.423,80.8297,0.006992
60.454,80.8360,0.006992
60.485,80.8422,0.006992
60.516,80.8483,0.006992
60.547,80.8546,0.006992
60.578,80.8609,0.006992
60.608,80.8669,0.006992
60.639,80.8730,0.006963
60.670,80.8793,0.006963
60.704,80.8859,0.006963
60.734,80.8919,0.006963
60.764,80.8979,0.006963
60.797,80.9046,0.006963
60.825,80.9102,0.006963
60.857,80.9166,0.006963
60.889,80.9228,0.006973
60.920,80.9293,0.006973
60.952,80.9357,0.006973
60.982,80.9417,0.006973
61.013,80.9477,0.006973
61.045,80.9542,0.006973
61.077,80.9605,0.006973
61.108,80.9668,0.006973
61.139,80.9730,0.006944
61.170,80.9792,0.006944
61.202,80.9854,0.006944
61.234,80.9919,0.006944
61.264,80.9980,0.006944
61.296,81.0043,0.006944
61.326,81.0105,0.006944
61.358,81.0167,0.006944
61.390,81.0233,0.006832
61.420,81.0291,0.006832
61.451,81.0354,0.006832
61.482,81.0415,0.006832
61.514,81.0480,0.006832
61.544,81.0540,0.006832
61.576,81.0604,0.006832
61.607,81.0666,0.006794
61.638,81.0726,0.006794
61.669,81.0788,0.006794
61.701,81.0853,0.006794
61.732,81.0915,0.006794
61.763,81.0978,0.006794
61.794,81.1039,0.006794
61.826,81.1103,0.006794
61.856,81.1165,0.006813
61.888,81.1227,0.006813
61.919,81.1288,0.006813
61.949,81.1351,0.006813
61.980,81.1411,0.006813
62.010,81.1473,0.006813
62.042,81.1535,0.006813
62.073,81.1598,0.006813
62.105,81.1660,0.006737
62.136,81.1723,0.006737
62.166,81.1784,0.006737
62.197,81.1846,0.006737
62.228,81.1907,0.006737
62.259,81.1969,0.006737
62.290,81.2034,0.006737
62.322,81.2094,0.006737
62.353,81.2158,0.006643
62.383,81.2218,0.006643
62.414,81.2280,0.006643
62.446,81.2345,0.006643
62.477,81.2404,0.006643
62.507,81.2465,0.006643
62.539,81.2530,0.006643
62.569,81.2589,0.006643
62.600,81.2652,0.006540
62.631,81.2714,0.006540
62.664,81.2780,0.006540
62.693,81.2837,0.006540
62.725,81.2900,0.006540
62.756,81.2964,0.006540
62.789,81.3028,0.006540
62.818,81.3088,0.006540
62.850,81.3151,0.006436
62.881,81.3214,0.006436
62.913,81.3277,0.006436
62.942,81.3336,0.006436
62.973,81.3399,0.006436
63.004,81.3461,0.006436
63.035,81.3521,0.006436
63.066,81.3583,0.006436
63.099,81.3650,0.006436
63.128,81.3707,0.006436
63.160,81.3772,0.006418
63.190,81.3832,0.006418
63.221,81.3893,0.006418
63.252,81.3956,0.006418
63.284,81.4019,0.006418
63.315,81.4081,0.006418
63.347,81.4146,0.006418
63.377,81.4206,0.006418
63.408,81.4267,0.006389
63.439,81.4329,0.006389
63.472,81.4395,0.006389
63.502,81.4454,0.006389
63.532,81.4516,0.006389
63.563,81.4578,0.006389
63.595,81.4642,0.006389
63.625,81.4701,0.006323
63.656,81.4765,0.006323
63.688,81.4828,0.006323
63.720,81.4891,0.006323
63.751,81.4953,0.006323
63.782,81.5016,0.006323
63.813,81.5078,0.006323
63.845,81.5142,0.006323
63.876,81.5202,0.006220
63.907,81.5266,0.006220
63.938,81.5329,0.006220
63.969,81.5388,0.006220
64.000,81.5450,0.006220
64.031,81.5514,0.006220
64.062,81.5574,0.006220
64.094,81.5639,0.006220
64.125,81.5702,0.006126
64.156,81.5763,0.006126
64.187,81.5826,0.006126
64.218,81.5887,0.006126
64.248,81.5949,0.006126
64.279,81.6010,0.006126
64.311,81.6073,0.006126
64.341,81.6135,0.006060
64.371,81.6195,0.006060
64.403,81.6258,0.006060
64.434,81.6319,0.006060
64.465,81.6381,0.006060
64.497,81.6446,0.006060
64.527,81.6505,0.006060
64.558,81.6567,0.006060
64.588,81.6627,0.006060
64.619,81.6691,0.006060
64.650,81.6750,0.005919
64.680,81.6812,0.005919
64.710,81.6873,0.005919
64.742,81.6936,0.005919
64.773,81.6997,0.005919
64.804,81.7058,0.005919
64.835,81.7121,0.005919
64.865,81.7182,0.005872
64.896,81.7244,0.005872
64.927,81.7306,0.005872
64.958,81.7369,0.005872
64.989,81.7429,0.005872
65.020,81.7492,0.005872
65.051,81.7553,0.005872
65.082,81.7616,0.005872
65.113,81.7675,0.005825
65.143,81.7739,0.005825
65.175,81.7801,0.005825
65.206,81.7863,0.005825
65.236,81.7923,0.005825
65.267,81.7984,0.005825
65.297,81.8046,0.005825
65.328,81.8107,0.005825
65.358,81.8168,0.005825
65.389,81.8230,0.005825
65.419,81.8291,0.005674
65.451,81.8354,0.005674
65.481,81.8415,0.005674
65.512,81.8475,0.005674
65.543,81.8537,0.005674
65.573,81.8597,0.005674
65.605,81.8660,0.005674
65.634,81.8720,0.005542
65.665,81.8782,0.005542
65.698,81.8847,0.005542
65.728,81.8908,0.005542
65.759,81.8969,0.005542
65.789,81.9030,0.005542
65.819,81.9090,0.005542
65.851,81.9152,0.005420
65.882,81.9214,0.005420
65.913,81.9277,0.005420
65.945,81.9340,0.005420
65.976,81.9402,0.005420
66.006,81.9464,0.005420
66.037,81.9526,0.005420
66.069,81.9589,0.005420
66.100,81.9650,0.005364
66.130,81.9713,0.005364
66.160,81.9771,0.005364
66.193,81.9837,0.005364
66.223,81.9899,0.005364
66.255,81.9961,0.005364
66.284,82.0021,0.005364
66.315,82.0081,0.005364
66.346,82.0145,0.005364
66.377,82.0205,0.005364
66.408,82.0269,0.005241
66.440,82.0331,0.005241
66.470,82.0391,0.005241
66.502,82.0453,0.005241
66.533,82.0517,0.005241
66.565,82.0580,0.005241
66.597,82.0646,0.005241
66.627,82.0705,0.005185
66.659,82.0770,0.005185
66.690,82.0833,0.005185
66.723,82.0896,0.005185
66.753,82.0958,0.005185
66.784,82.1019,0.005185
66.815,82.1080,0.005185
66.845,82.1143,0.005185
66.876,82.1203,0.005119
66.906,82.1265,0.005119
66.937,82.1325,0.005119
66.968,82.1387,0.005119
66.998,82.1448,0.005119
67.029,82.1510,0.005119
67.060,82.1572,0.005119
67.093,82.1637,0.005119
67.124,82.1699,0.004987
67.156,82.1764,0.004987
67.187,82.1825,0.004987
67.218,82.1887,0.004987
67.250,82.1950,0.004987
67.282,82.2014,0.004987
67.312,82.2073,0.004987
67.343,82.2138,0.004987
67.374,82.2200,0.004874
67.406,82.2263,0.004874
67.437,82.2324,0.004874
67.468,82.2387,0.004874
67.499,82.2449,0.004874
67.530,82.2511,0.004874
67.561,82.2572,0.004874
67.592,82.2638,0.004874
67.624,82.2700,0.004752
67.654,82.2759,0.004752
67.685,82.2821,0.004752
67.717,82.2886,0.004752
67.749,82.2949,0.004752
67.781,82.3013,0.004752
67.810,82.3072,0.004752
67.842,82.3135,0.004752
67.874,82.3199,0.004667
67.904,82.3259,0.004667
67.935,82.3322,0.004667
67.967,82.3385,0.004667
67.997,82.3446,0.004667
68.029,82.3508,0.004667
68.060,82.3570,0.004667
68.090,82.3631,0.004611
68.121,82.3694,0.004611
68.153,82.3756,0.004611
68.182,82.3816,0.004611
68.214,82.3878,0.004611
68.244,82.3939,0.004611
68.275,82.4001,0.004611
68.306,82.4064,0.004611
68.336,82.4123,0.004611
68.368,82.4187,0.004611
68.398,82.4246,0.004536
68.429,82.4309,0.004536
68.461,82.4374,0.004536
68.492,82.4435,0.004536
68.523,82.4498,0.004536
68.554,82.4557,0.004536
68.585,82.4622,0.004536
68.616,82.4683,0.004460
68.648,82.4746,0.004460
68.677,82.4807,0.004460
68.708,82.4867,0.004460
68.740,82.4931,0.004460
68.770,82.4992,0.004460
68.801,82.5055,0.004460
68.832,82.5117,0.004460
68.863,82.5179,0.004460
68.895,82.5240,0.004357
68.925,82.5302,0.004357
68.957,82.5364,0.004357
68.987,82.5424,0.004357
69.019,82.5489,0.004357
69.050,82.5551,0.004357
69.081,82.5614,0.004357
69.112,82.5674,0.004310
69.143,82.5738,0.004310
69.174,82.5799,0.004310
69.205,82.5862,0.004310
69.237,82.5924,0.004310
69.268,82.5986,0.004310
69.299,82.6049,0.004310
69.330,82.6110,0.004310
69.360,82.6172,0.004310
69.391,82.6234,0.004253
69.423,82.6296,0.004253
69.453,82.6357,0.004253
69.484,82.6419,0.004253
69.514,82.6479,0.004253
69.546,82.6544,0.004253
69.578,82.6606,0.004253
69.610,82.6672,0.004197
69.641,82.6733,0.004197
69.672,82.6796,0.004197
69.703,82.6857,0.004197
69.734,82.6919,0.004197
69.764,82.6980,0.004197
69.796,82.7043,0.004197
69.827,82.7106,0.004197
69.857,82.7167,0.004206
69.889,82.7228,0.004206
69.920,82.7290,0.004206
69.951,82.7354,0.004206
69.981,82.7414,0.004206
70.013,82.7477,0.004206
70.044,82.7539,0.004206
70.074,82.7600,0.004206
70.105,82.7659,0.004150
70.137,82.7715,0.004150
70.169,82.7761,0.004150
70.200,82.7799,0.004150
70.232,82.7832,0.004150
70.263,82.7855,0.004150
70.294,82.7871,0.004150
70.325,82.7880,0.004150
70.357,82.7882,0.004206
70.387,82.7882,0.004206
70.419,82.7882,0.004206
70.451,82.7882,0.004206
70.481,82.7882,0.004206
70.512,82.7882,0.004206
70.542,82.7882,0.004206
70.575,82.7882,0.004206
70.606,82.7882,0.004206
70.637,82.7882,0.004216
70.668,82.7882,0.004216
70.700,82.7882,0.004216
70.732,82.7882,0.004216
70.764,82.7882,0.004216
70.794,82.7882,0.004216
70.825,82.7882,0.004216
70.856,82.7882,0.004216
70.887,82.7882,0.004178
70.918,82.7882,0.004178
70.948,82.7882,0.004178
70.979,82.7882,0.004178
71.010,82.7882,0.004178
71.041,82.7882,0.004178
71.075,82.7882,0.004178
71.104,82.7882,0.004178
71.135,82.7882,0.004178
71.166,82.7882,0.004178
71.197,82.7882,0.004178
71.228,82.7882,0.004178
71.259,82.7882,0.004178
71.290,82.7882,0.004178
71.321,82.7882,0.004178
71.352,82.7882,0.004169
71.383,82.7882,0.004169
71.414,82.7882,0.004169
71.446,82.7882,0.004169
71.478,82.7882,0.004169
71.507,82.7882,0.004169
71.538,82.7882,0.004169
71.569,82.7882,0.004169
71.600,82.7882,0.004169
71.630,82.7882,0.004206
71.661,82.7882,0.004206
71.692,82.7882,0.004206
71.724,82.7882,0.004206
71.755,82.7882,0.004206
71.787,82.7882,0.004206
71.817,82.7882,0.004206
71.848,82.7882,0.004206
71.879,82.7882,0.004272
71.911,82.7882,0.004272
71.942,82.7882,0.004272
71.973,82.7882,0.004272
72.003,82.7882,0.004272
72.034,82.7882,0.004272
72.065,82.7882,0.004272
72.096,82.7882,0.004272
72.127,82.7882,0.004272
72.158,82.7882,0.004225
72.189,82.7882,0.004225
72.221,82.7882,0.004225
72.252,82.7882,0.004225
72.283,82.7882,0.004225
72.314,82.7882,0.004225
72.346,82.7882,0.004225
72.377,82.7882,0.004169
72.408,82.7882,0.004169
72.440,82.7882,0.004169
72.469,82.7882,0.004169
72.500,82.7882,0.004169
72.532,82.7882,0.004169
72.563,82.7882,0.004169
72.594,82.7882,0.004169
72.624,82.7882,0.004169
72.656,82.7882,0.004206
72.688,82.7882,0.004206
72.719,82.7882,0.004206
72.751,82.7882,0.004206
72.782,82.7882,0.004206
72.812,82.7882,0.004206
72.843,82.7882,0.004206
72.874,82.7882,0.004178
72.906,82.7882,0.004178
72.939,82.7882,0.004178
72.969,82.7882,0.004178
72.999,82.7882,0.004178
73.031,82.7882,0.004178
73.062,82.7882,0.004178
73.092,82.7882,0.004178
73.124,82.7882,0.004150
73.154,82.7882,0.004150
73.185,82.7882,0.004150
73.216,82.7882,0.004150
73.247,82.7882,0.004150
73.278,82.7882,0.004150
73.309,82.7882,0.004150
73.339,82.7882,0.004150
73.370,82.7882,0.004131
73.401,82.7882,0.004131
73.431,82.7882,0.004131
73.462,82.7882,0.004131
73.494,82.7882,0.004131
73.526,82.7882,0.004131
73.556,82.7882,0.004131
73.587,82.7882,0.004169
73.618,82.7882,0.004169
73.649,82.7882,0.004169
73.680,82.7882,0.004169
73.711,82.7882,0.004169
73.742,82.7882,0.004169
73.773,82.7882,0.004169
73.804,82.7882,0.004169
73.835,82.7882,0.004169
73.865,82.7882,0.004197
73.896,82.7882,0.004197
73.927,82.7882,0.004197
73.960,82.7882,0.004197
73.989,82.7882,0.004197
74.020,82.7882,0.004197
74.051,82.7882,0.004197
74.083,82.7882,0.004197
74.113,82.7882,0.004159
74.144,82.7882,0.004159
74.176,82.7882,0.004159
74.206,82.7882,0.004159
74.237,82.7882,0.004159
74.268,82.7882,0.004159
74.299,82.7882,0.004159
74.330,82.7882,0.004159
74.361,82.7882,0.004140
74.393,82.7882,0.004140
74.424,82.7882,0.004140
74.455,82.7882,0.004140
74.486,82.7882,0.004140
74.516,82.7882,0.004140
74.548,82.7882,0.004140
74.580,82.7882,0.004140
74.610,82.7882,0.004159
74.641,82.7882,0.004159
74.673,82.7882,0.004159
74.704,82.7882,0.004159
74.735,82.7882,0.004159
74.765,82.7882,0.004159
74.797,82.7882,0.004159
74.828,82.7882,0.004159
74.858,82.7882,0.004159
74.891,82.7882,0.004187
74.921,82.7882,0.004187
74.953,82.7882,0.004187
74.984,82.7882,0.004187
75.014,82.7882,0.004187
75.046,82.7882,0.004187
75.076,82.7879,0.004187
75.107,82.7869,0.004178
75.138,82.7850,0.004178
75.170,82.7824,0.004178
75.201,82.7792,0.004178
75.232,82.7751,0.004178
75.263,82.7705,0.004178
75.294,82.7649,0.004178
75.325,82.7590,0.004178
75.355,82.7528,0.004178
75.387,82.7466,0.004178
75.418,82.7403,0.004329
75.449,82.7342,0.004329
75.480,82.7278,0.004329
75.511,82.7219,0.004329
75.542,82.7154,0.004329
75.573,82.7094,0.004329
75.604,82.7029,0.004329
75.634,82.6971,0.004413
75.664,82.6910,0.004413
75.695,82.6849,0.004413
75.726,82.6786,0.004413
75.757,82.6724,0.004413
75.787,82.6665,0.004413
75.818,82.6603,0.004413
75.849,82.6542,0.004413
75.880,82.6479,0.004413
75.911,82.6418,0.004376
75.942,82.6355,0.004376
75.973,82.6294,0.004376
76.004,82.6232,0.004376
76.035,82.6168,0.004376
76.067,82.6105,0.004376
76.099,82.6042,0.004376
76.130,82.5980,0.004432
76.161,82.5917,0.004432
76.191,82.5856,0.004432
76.223,82.5793,0.004432
76.253,82.5733,0.004432
76.284,82.5672,0.004432
76.315,82.5609,0.004432
76.346,82.5547,0.004432
76.377,82.5484,0.004479
76.408,82.5424,0.004479
76.440,82.5360,0.004479
76.471,82.5298,0.004479
76.502,82.5236,0.004479
76.532,82.5176,0.004479
76.563,82.5113,0.004479
76.595,82.5050,0.004479
76.625,82.4988,0.004554
76.658,82.4923,0.004554
76.689,82.4863,0.004554
76.720,82.4799,0.004554
76.750,82.4737,0.004554
76.781,82.4676,0.004554
76.812,82.4614,0.004554
76.844,82.4551,0.004573
76.876,82.4489,0.004573
76.907,82.4423,0.004573
76.937,82.4365,0.004573
76.968,82.4303,0.004573
76.999,82.4240,0.004573
77.029,82.4182,0.004573
77.061,82.4117,0.004573
77.091,82.4058,0.004573
77.123,82.3993,0.004573
77.154,82.3932,0.004611
77.185,82.3868,0.004611
77.216,82.3807,0.004611
77.247,82.3744,0.004611
77.279,82.3681,0.004611
77.311,82.3617,0.004611
77.341,82.3558,0.004611
77.372,82.3496,0.004658
77.403,82.3434,0.004658
77.434,82.3372,0.004658
77.465,82.3310,0.004658
77.496,82.3246,0.004658
77.526,82.3186,0.004658
77.558,82.3124,0.004658
77.589,82.3062,0.004658
77.620,82.3000,0.004705
77.652,82.2934,0.004705
77.683,82.2874,0.004705
77.714,82.2812,0.004705
77.744,82.2752,0.004705
77.776,82.2687,0.004705
77.808,82.2625,0.004705
77.838,82.2564,0.004705
77.868,82.2504,0.004771
77.900,82.2439,0.004771
77.932,82.2376,0.004771
77.964,82.2311,0.004771
77.996,82.2247,0.004771
78.026,82.2187,0.004771
78.057,82.2127,0.004771
78.089,82.2062,0.004771
78.119,82.2001,0.004903
78.150,82.1938,0.004903
78.181,82.1877,0.004903
78.212,82.1815,0.004903
78.243,82.1753,0.004903
78.274,82.1690,0.004903
78.305,82.1630,0.004903
78.336,82.1566,0.004903
78.367,82.1506,0.005015
78.397,82.1446,0.005015
78.429,82.1382,0.005015
78.460,82.1319,0.005015
78.491,82.1256,0.005015
78.522,82.1195,0.005015
78.553,82.1134,0.005015
78.583,82.1074,0.005015
78.614,82.1012,0.005063
78.644,82.0950,0.005063
78.675,82.0889,0.005063
78.706,82.0826,0.005063
78.738,82.0762,0.005063
78.769,82.0700,0.005063
78.800,82.0638,0.005063
78.832,82.0575,0.005063
78.864,82.0512,0.005063
78.896,82.0447,0.005138
78.927,82.0384,0.005138
78.959,82.0320,0.005138
78.989,82.0261,0.005138
79.020,82.0200,0.005138
79.051,82.0138,0.005138
79.082,82.0076,0.005138
79.113,82.0013,0.005138
79.143,81.9954,0.005204
79.174,81.9890,0.005204
79.206,81.9827,0.005204
79.236,81.9768,0.005204
79.268,81.9704,0.005204
79.298,81.9642,0.005204
79.329,81.9582,0.005204
79.360,81.9518,0.005204
79.391,81.9459,0.005298
79.422,81.9397,0.005298
79.453,81.9335,0.005298
79.484,81.9270,0.005298
79.515,81.9208,0.005298
79.546,81.9146,0.005298
79.578,81.9084,0.005298
79.609,81.9022,0.005298
79.640,81.8960,0.005392
79.671,81.8897,0.005392
79.702,81.8835,0.005392
79.733,81.8773,0.005392
79.764,81.8711,0.005392
79.795,81.8649,0.005392
79.826,81.8588,0.005392
79.857,81.8525,0.005392
79.888,81.8464,0.005495
79.920,81.8401,0.005495
79.951,81.8338,0.005495
79.982,81.8276,0.005495
80.013,81.8214,0.005495
80.044,81.8153,0.005495
80.074,81.8091,0.005495
80.105,81.8030,0.005495
80.137,81.7964,0.005599
80.167,81.7904,0.005599
80.198,81.7843,0.005599
80.229,81.7780,0.005599
80.261,81.7719,0.005599
80.291,81.7656,0.005599
80.322,81.7596,0.005599
80.353,81.7533,0.005599
80.385,81.7469,0.005665
80.415,81.7409,0.005665
80.446,81.7348,0.005665
80.478,81.7283,0.005665
80.508,81.7224,0.005665
80.540,81.7159,0.005665
80.572,81.7096,0.005665
80.603,81.7034,0.005665
80.634,81.6971,0.005815
80.666,81.6909,0.005815
80.696,81.6846,0.005815
80.728,81.6785,0.005815
80.759,81.6722,0.005815
80.791,81.6658,0.005815
80.822,81.6596,0.005815
80.854,81.6532,0.005815
80.883,81.6474,0.005891
80.914,81.6412,0.005891
80.945,81.6350,0.005891
80.976,81.6288,0.005891
81.007,81.6226,0.005891
81.039,81.6162,0.005891
81.069,81.6102,0.005891
81.101,81.6038,0.005891
81.132,81.5976,0.005956
81.164,81.5912,0.005956
81.195,81.5851,0.005956
81.227,81.5786,0.005956
81.257,81.5724,0.005956
81.287,81.5665,0.005956
81.320,81.5599,0.005956
81.350,81.5540,0.005956
81.381,81.5479,0.006051
81.412,81.5414,0.006051
81.443,81.5352,0.006051
81.474,81.5290,0.006051
81.505,81.5231,0.006051
81.535,81.5168,0.006051
81.566,81.5107,0.006051
81.597,81.5045,0.006173
81.629,81.4983,0.006173
81.661,81.4917,0.006173
81.692,81.4855,0.006173
81.724,81.4792,0.006173
81.755,81.4730,0.006173
81.786,81.4667,0.006173
81.817,81.4606,0.006173
81.848,81.4544,0.006267
81.878,81.4483,0.006267
81.909,81.4422,0.006267
81.941,81.4358,0.006267
81.972,81.4297,0.006267
82.003,81.4232,0.006267
82.034,81.4173,0.006267
82.066,81.4107,0.006267
82.097,81.4045,0.006305
82.128,81.3982,0.006305
82.161,81.3919,0.006305
82.190,81.3860,0.006305
82.221,81.3798,0.006305
82.253,81.3734,0.006305
82.284,81.3671,0.006305
82.315,81.3611,0.006305
82.346,81.3548,0.006389
82.377,81.3486,0.006389
82.408,81.3423,0.006389
82.439,81.3362,0.006389
82.469,81.3302,0.006389
82.501,81.3237,0.006389
82.531,81.3177,0.006389
82.562,81.3115,0.006389
82.593,81.3053,0.006389
82.625,81.2989,0.006465
82.656,81.2929,0.006465
82.687,81.2864,0.006465
82.719,81.2804,0.006465
82.750,81.2739,0.006465
82.781,81.2678,0.006465
82.812,81.2614,0.006465
82.844,81.2552,0.006465
82.876,81.2487,0.006465
82.907,81.2427,0.006521
82.938,81.2363,0.006521
82.969,81.2303,0.006521
82.999,81.2241,0.006521
83.030,81.2180,0.006521
83.060,81.2118,0.006521
83.092,81.2056,0.006521
83.122,81.1995,0.006521
83.153,81.1933,0.006643
83.185,81.1871,0.006643
83.215,81.1809,0.006643
83.247,81.1747,0.006643
83.278,81.1685,0.006643
83.309,81.1623,0.006643
83.341,81.1557,0.006643
83.372,81.1497,0.006737
83.404,81.1432,0.006737
83.434,81.1371,0.006737
83.467,81.1307,0.006737
83.496,81.1246,0.006737
83.528,81.1184,0.006737
83.559,81.1122,0.006737
83.590,81.1061,0.006737
83.622,81.0995,0.006813
83.651,81.0936,0.006813
83.683,81.0875,0.006813
83.715,81.0809,0.006813
83.746,81.0749,0.006813
83.777,81.0684,0.006813
83.808,81.0623,0.006813
83.839,81.0560,0.006813
83.871,81.0497,0.006841
83.902,81.0436,0.006841
83.932,81.0377,0.006841
83.962,81.0315,0.006841
83.994,81.0253,0.006841
84.026,81.0188,0.006841
84.057,81.0126,0.006841
84.087,81.0065,0.006841
84.120,81.0001,0.006841
84.150,80.9940,0.006860
84.181,80.9876,0.006860
84.213,80.9814,0.006860
84.245,80.9750,0.006860
84.276,80.9687,0.006860
84.308,80.9624,0.006860
84.339,80.9562,0.006860
84.369,80.9502,0.006954
84.400,80.9440,0.006954
84.431,80.9378,0.006954
84.462,80.9316,0.006954
84.493,80.9254,0.006954
84.524,80.9191,0.006954
84.556,80.9129,0.006954
84.587,80.9064,0.006954
84.618,80.9004,0.006954
84.649,80.8940,0.007010
84.680,80.8880,0.007010
84.711,80.8816,0.007010
84.743,80.8754,0.007010
84.774,80.8692,0.007010
84.805,80.8630,0.007010
84.836,80.8566,0.007010
84.867,80.8508,0.007039
84.898,80.8443,0.007039
84.928,80.8384,0.007039
84.960,80.8320,0.007039
84.990,80.8260,0.007039
85.021,80.8197,0.007039
85.053,80.8134,0.007039
85.084,80.8072,0.007039
85.115,80.8010,0.007123
85.147,80.7946,0.007123
85.178,80.7884,0.007123
85.209,80.7822,0.007123
85.240,80.7761,0.007123
85.271,80.7699,0.007123
85.302,80.7636,0.007123
85.333,80.7574,0.007123
85.364,80.7512,0.007151
85.395,80.7450,0.007151
85.426,80.7388,0.007151
85.457,80.7324,0.007151
85.489,80.7262,0.007151
85.520,80.7200,0.007151
85.551,80.7138,0.007151
85.582,80.7076,0.007151
85.613,80.7014,0.007180
85.644,80.6952,0.007180
85.675,80.6888,0.007180
85.706,80.6830,0.007180
85.738,80.6765,0.007180
85.768,80.6704,0.007180
85.799,80.6641,0.007180
85.831,80.6579,0.007180
85.862,80.6516,0.007180
85.893,80.6455,0.007217
85.924,80.6390,0.007217
85.955,80.6331,0.007217
85.986,80.6269,0.007217
86.016,80.6208,0.007217
86.047,80.6145,0.007217
86.079,80.6082,0.007217
86.110,80.6021,0.007217
86.141,80.5959,0.007208
86.172,80.5897,0.007208
86.203,80.5835,0.007208
86.233,80.5773,0.007208
86.265,80.5711,0.007208
86.296,80.5649,0.007208
86.325,80.5591,0.007208
86.356,80.5527,0.007208
86.388,80.5465,0.007217
86.419,80.5403,0.007217
86.449,80.5342,0.007217
86.480,80.5278,0.007217
86.512,80.5217,0.007217
86.543,80.5155,0.007217
86.574,80.5093,0.007217
86.604,80.5031,0.007217
86.636,80.4968,0.007311
86.666,80.4907,0.007311
86.697,80.4844,0.007311
86.728,80.4784,0.007311
86.760,80.4720,0.007311
86.791,80.4659,0.007311
86.821,80.4596,0.007311
86.853,80.4536,0.007311
86.884,80.4472,0.007311
86.914,80.4412,0.007330
86.944,80.4352,0.007330
86.976,80.4288,0.007330
87.006,80.4227,0.007330
87.037,80.4164,0.007330
87.069,80.4102,0.007330
87.100,80.4039,0.007330
87.130,80.3979,0.007340
87.162,80.3916,0.007340
87.192,80.3855,0.007340
87.222,80.3796,0.007340
87.254,80.3733,0.007340
87.284,80.3673,0.007340
87.315,80.3609,0.007340
87.346,80.3548,0.007340
87.378,80.3483,0.007349
87.407,80.3425,0.007349
87.439,80.3361,0.007349
87.470,80.3300,0.007349
87.501,80.3239,0.007349
87.532,80.3176,0.007349
87.564,80.3113,0.007349
87.594,80.3053,0.007359
87.626,80.2989,0.007359
87.656,80.2926,0.007359
87.688,80.2864,0.007359
87.718,80.2805,0.007359
87.749,80.2743,0.007359
87.780,80.2681,0.007359
87.810,80.2619,0.007359
87.841,80.2558,0.007359
87.872,80.2496,0.007359
87.903,80.2435,0.007368
87.934,80.2373,0.007368
87.964,80.2311,0.007368
87.997,80.2247,0.007368
88.028,80.2184,0.007368
88.059,80.2122,0.007368
88.091,80.2060,0.007368
88.121,80.1999,0.007349
88.152,80.1936,0.007349
88.184,80.1871,0.007349
88.214,80.1812,0.007349
88.246,80.1746,0.007349
88.276,80.1687,0.007349
88.307,80.1625,0.007349
88.338,80.1563,0.007349
88.369,80.1501,0.007377
88.401,80.1438,0.007377
88.432,80.1376,0.007377
88.464,80.1313,0.007377
88.494,80.1252,0.007377
88.526,80.1189,0.007377
88.557,80.1126,0.007377
88.589,80.1062,0.007377
88.620,80.1000,0.007340
88.651,80.0940,0.007340
88.681,80.0876,0.007340
88.712,80.0816,0.007340
88.742,80.0756,0.007340
88.773,80.0695,0.007340
88.804,80.0633,0.007340
88.835,80.0570,0.007340
88.866,80.0508,0.007293
88.897,80.0447,0.007293
88.927,80.0385,0.007293
88.958,80.0322,0.007293
88.990,80.0261,0.007293
89.020,80.0200,0.007293
89.052,80.0137,0.007293
89.082,80.0075,0.007293
89.114,80.0012,0.007255
89.145,79.9950,0.007255
89.177,79.9887,0.007255
89.208,79.9825,0.007255
89.239,79.9763,0.007255
89.270,79.9699,0.007255
89.301,79.9639,0.007255
89.332,79.9577,0.007255
89.362,79.9517,0.007302
89.394,79.9453,0.007302
89.425,79.9391,0.007302
89.456,79.9329,0.007302
89.487,79.9265,0.007302
89.518,79.9205,0.007302
89.549,79.9143,0.007302
89.579,79.9082,0.007302
89.610,79.9019,0.007255
89.642,79.8958,0.007255
89.672,79.8894,0.007255
89.704,79.8832,0.007255
89.735,79.8768,0.007255
89.767,79.8706,0.007255
89.798,79.8645,0.007255
89.830,79.8582,0.007255
89.860,79.8521,0.007114
89.891,79.8458,0.007114
89.922,79.8396,0.007114
89.953,79.8334,0.007114
89.985,79.8272,0.007114
90.015,79.8210,0.007114
90.046,79.8149,0.007114
90.077,79.8086,0.007114
90.108,79.8024,0.006992
90.139,79.7963,0.006992
90.170,79.7901,0.006992
90.202,79.7838,0.006992
90.234,79.7773,0.006992
90.265,79.7710,0.006992
90.296,79.7649,0.006992
90.327,79.7590,0.006992
90.360,79.7535,0.006803
90.391,79.7492,0.006803
90.423,79.7455,0.006803
90.454,79.7426,0.006803
90.485,79.7404,0.006803
90.516,79.7390,0.006803
90.548,79.7384,0.006803
90.578,79.7383,0.006803
90.610,79.7383,0.006803
90.640,79.7383,0.006549
90.671,79.7384,0.006549
90.701,79.7393,0.006549
90.732,79.7409,0.006549
90.763,79.7431,0.006549
90.795,79.7463,0.006549
90.825,79.7499,0.006549
90.857,79.7548,0.006549
90.888,79.7598,0.006323
90.920,79.7662,0.006323
90.952,79.7725,0.006323
90.982,79.7787,0.006323
91.014,79.7848,0.006323
91.045,79.7911,0.006323
91.075,79.7971,0.006323
91.107,79.8035,0.006323
91.137,79.8095,0.006342
91.168,79.8157,0.006342
91.198,79.8219,0.006342
91.230,79.8279,0.006342
91.262,79.8345,0.006342
91.293,79.8406,0.006342
91.325,79.8470,0.006342
91.355,79.8531,0.006342
91.386,79.8594,0.006446
91.417,79.8654,0.006446
91.448,79.8718,0.006446
91.481,79.8783,0.006446
91.511,79.8842,0.006446
91.541,79.8902,0.006446
91.571,79.8964,0.006446
91.603,79.9026,0.006446
91.634,79.9088,0.006606
91.665,79.9151,0.006606
91.696,79.9212,0.006606
91.727,79.9274,0.006606
91.757,79.9336,0.006606
91.788,79.9396,0.006606
91.818,79.9456,0.006606
91.850,79.9520,0.006606
91.881,79.9582,0.006803
91.913,79.9646,0.006803
91.944,79.9709,0.006803
91.975,79.9771,0.006803
92.006,79.9833,0.006803
92.037,79.9895,0.006803
92.068,79.9957,0.006803
92.100,80.0021,0.006803
92.132,80.0085,0.006963
92.163,80.0147,0.006963
92.194,80.0208,0.006963
92.228,80.0275,0.006963
92.255,80.0331,0.006963
92.286,80.0393,0.006963
92.318,80.0456,0.006963
92.350,80.0520,0.006963
92.381,80.0582,0.007123
92.412,80.0643,0.007123
92.443,80.0706,0.007123
92.474,80.0770,0.007123
92.505,80.0830,0.007123
92.536,80.0893,0.007123
92.566,80.0953,0.007123
92.598,80.1017,0.007123
92.629,80.1080,0.007217
92.660,80.1139,0.007217
92.690,80.1201,0.007217
92.722,80.1265,0.007217
92.753,80.1328,0.007217
92.785,80.1390,0.007217
92.815,80.1449,0.007217
92.846,80.1511,0.007217
92.876,80.1573,0.007293
92.908,80.1635,0.007293
92.939,80.1699,0.007293
92.971,80.1762,0.007293
93.003,80.1825,0.007293
93.034,80.1888,0.007293
93.065,80.1950,0.007293
93.096,80.2012,0.007293
93.126,80.2073,0.007311
93.158,80.2136,0.007311
93.189,80.2197,0.007311
93.220,80.2262,0.007311
93.253,80.2327,0.007311
93.284,80.2388,0.007311
93.314,80.2449,0.007311
93.344,80.2510,0.007311
93.376,80.2572,0.007321
93.406,80.2634,0.007321
93.437,80.2696,0.007321
93.468,80.2755,0.007321
93.499,80.2820,0.007321
93.531,80.2882,0.007321
93.561,80.2944,0.007321
93.592,80.3005,0.007321
93.623,80.3069,0.007321
93.655,80.3130,0.007321
93.685,80.3192,0.007321
93.717,80.3255,0.007321
93.749,80.3318,0.007321
93.779,80.3380,0.007321
93.811,80.3442,0.007321
93.841,80.3503,0.007321
93.872,80.3564,0.007321
93.904,80.3628,0.007311
93.934,80.3688,0.007311
93.966,80.3752,0.007311
93.997,80.3813,0.007311
94.029,80.3878,0.007311
94.060,80.3940,0.007311
94.090,80.4001,0.007311
94.121,80.4061,0.007321
94.152,80.4125,0.007321
94.184,80.4187,0.007321
94.214,80.4249,0.007321
94.246,80.4313,0.007321
94.277,80.4376,0.007321
94.308,80.4437,0.007321
94.341,80.4502,0.007321
94.371,80.4562,0.007321
94.403,80.4627,0.007311
94.433,80.4688,0.007311
94.464,80.4750,0.007311
94.496,80.4812,0.007311
94.527,80.4876,0.007311
94.558,80.4937,0.007311
94.590,80.5003,0.007311
94.622,80.5063,0.007330
94.653,80.5128,0.007330
94.685,80.5190,0.007330
94.716,80.5253,0.007330
94.747,80.5315,0.007330
94.778,80.5376,0.007330
94.810,80.5440,0.007330
94.841,80.5501,0.007330
94.872,80.5564,0.007283
94.902,80.5624,0.007283
94.933,80.5686,0.007283
94.965,80.5749,0.007283
94.995,80.5810,0.007283
95.026,80.5872,0.007283
95.057,80.5934,0.007283
95.089,80.5997,0.007283
95.120,80.6059,0.007236
95.150,80.6120,0.007236
95.181,80.6182,0.007236
95.213,80.6247,0.007236
95.244,80.6309,0.007236
95.275,80.6371,0.007236
95.305,80.6431,0.007236
95.337,80.6493,0.007236
95.368,80.6555,0.007246
95.398,80.6616,0.007246
95.429,80.6679,0.007246
95.459,80.6739,0.007246
95.490,80.6802,0.007246
95.522,80.6864,0.007246
95.552,80.6926,0.007246
95.583,80.6986,0.007246
95.613,80.7048,0.007217
95.644,80.7109,0.007217
95.676,80.7174,0.007217
95.708,80.7235,0.007217
95.740,80.7301,0.007217
95.771,80.7362,0.007217
95.803,80.7427,0.007217
95.834,80.7488,0.007217
95.865,80.7549,0.007161
95.896,80.7611,0.007161
95.927,80.7674,0.007161
95.957,80.7736,0.007161
95.989,80.7798,0.007161
96.020,80.7861,0.007161
96.052,80.7923,0.007161
96.084,80.7989,0.007161
96.114,80.8049,0.007161
96.145,80.8109,0.007142
96.175,80.8169,0.007142
96.206,80.8232,0.007142
96.237,80.8294,0.007142
96.269,80.8357,0.007142
96.300,80.8421,0.007142
96.330,80.8480,0.007142
96.361,80.8544,0.007067
96.392,80.8603,0.007067
96.424,80.8668,0.007067
96.455,80.8731,0.007067
96.486,80.8792,0.007067
96.517,80.8855,0.007067
96.547,80.8916,0.007067
96.578,80.8976,0.007067
96.608,80.9037,0.007067
96.640,80.9100,0.007020
96.671,80.9162,0.007020
96.702,80.9224,0.007020
96.733,80.9285,0.007020
96.764,80.9348,0.007020
96.795,80.9409,0.007020
96.826,80.9474,0.007020
96.856,80.9532,0.007057
96.887,80.9594,0.007057
96.918,80.9655,0.007057
96.949,80.9718,0.007057
96.980,80.9781,0.007057
97.011,80.9843,0.007057
97.043,80.9907,0.007057
97.074,80.9969,0.007057
97.106,81.0032,0.007039
97.137,81.0095,0.007039
97.168,81.0158,0.007039
97.200,81.0222,0.007039
97.232,81.0284,0.007039
97.263,81.0346,0.007039
97.294,81.0409,0.007039
97.326,81.0472,0.007039
97.356,81.0534,0.006982
97.388,81.0596,0.006982
97.419,81.0661,0.006982
97.451,81.0723,0.006982
97.483,81.0787,0.006982
97.515,81.0849,0.006982
97.546,81.0914,0.006982
97.577,81.0973,0.006982
97.607,81.1034,0.006897
97.639,81.1097,0.006897
97.670,81.1160,0.006897
97.701,81.1222,0.006897
97.732,81.1283,0.006897
97.763,81.1346,0.006897
97.794,81.1410,0.006897
97.824,81.1468,0.006897
97.855,81.1529,0.006813
97.885,81.1591,0.006813
97.916,81.1652,0.006813
97.946,81.1712,0.006813
97.977,81.1773,0.006813
98.008,81.1838,0.006813
98.039,81.1898,0.006813
98.070,81.1960,0.006813
98.101,81.2022,0.006813
98.131,81.2083,0.006766
98.162,81.2144,0.006766
98.194,81.2208,0.006766
98.225,81.2269,0.006766
98.256,81.2331,0.006766
98.286,81.2393,0.006766
98.318,81.2455,0.006766
98.348,81.2516,0.006766
98.379,81.2579,0.006662
98.410,81.2639,0.006662
98.440,81.2702,0.006662
98.471,81.2764,0.006662
98.502,81.2824,0.006662
98.533,81.2886,0.006662
98.564,81.2949,0.006662
98.596,81.3012,0.006662
98.627,81.3073,0.006530
98.658,81.3135,0.006530
98.688,81.3197,0.006530
98.719,81.3259,0.006530
98.750,81.3320,0.006530
98.781,81.3382,0.006530
98.812,81.3444,0.006530
98.843,81.3507,0.006530
98.874,81.3568,0.006530
98.905,81.3630,0.006493
98.935,81.3689,0.006493
98.968,81.3755,0.006493
99.000,81.3819,0.006493
99.031,81.3883,0.006493
99.060,81.3941,0.006493
99.092,81.4004,0.006493
99.123,81.4065,0.006474
99.153,81.4126,0.006474
99.184,81.4188,0.006474
99.215,81.4250,0.006474
99.246,81.4313,0.006474
99.277,81.4374,0.006474
99.308,81.4436,0.006474
99.339,81.4499,0.006474
99.371,81.4561,0.006399
99.401,81.4623,0.006399
99.432,81.4684,0.006399
99.463,81.4746,0.006399
99.494,81.4809,0.006399
99.527,81.4874,0.006399
99.557,81.4933,0.006399
99.588,81.4995,0.006399
99.618,81.5057,0.006399
99.649,81.5117,0.006286
99.680,81.5180,0.006286
99.710,81.5241,0.006286
99.741,81.5302,0.006286
99.772,81.5366,0.006286
99.803,81.5426,0.006286
99.834,81.5490,0.006286
99.865,81.5550,0.006286
99.896,81.5613,0.006248
99.926,81.5674,0.006248
99.957,81.5736,0.006248
99.989,81.5798,0.006248
100.020,81.5860,0.006248
100.051,81.5920,0.006248
100.081,81.5982,0.006248
100.113,81.6046,0.006182
100.144,81.6108,0.006182
100.175,81.6171,0.006182
100.206,81.6233,0.006182
100.238,81.6295,0.006182
100.268,81.6357,0.006182
100.299,81.6418,0.006182
100.330,81.6480,0.006182
100.361,81.6542,0.006032
100.392,81.6604,0.006032
100.423,81.6665,0.006032
100.455,81.6730,0.006032
100.485,81.6790,0.006032
100.516,81.6851,0.006032
100.547,81.6913,0.006032
100.578,81.6976,0.006032
100.610,81.7039,0.005956
100.640,81.7101,0.005956
100.672,81.7163,0.005956
100.702,81.7225,0.005956
100.734,81.7287,0.005956
100.765,81.7350,0.005956
100.797,81.7412,0.005956
100.826,81.7473,0.005956
100.857,81.7535,0.005872
100.888,81.7596,0.005872
100.920,81.7660,0.005872
100.950,81.7720,0.005872
100.981,81.7783,0.005872
101.013,81.7847,0.005872
101.044,81.7907,0.005872
101.074,81.7969,0.005872
101.105,81.8030,0.005749
101.136,81.8092,0.005749
101.168,81.8155,0.005749
101.199,81.8217,0.005749
101.231,81.8282,0.005749
101.262,81.8344,0.005749
101.294,81.8407,0.005749
101.325,81.8469,0.005749
101.356,81.8531,0.005637
101.387,81.8596,0.005637
101.418,81.8656,0.005637
101.450,81.8718,0.005637
101.481,81.8782,0.005637
101.512,81.8842,0.005637
101.543,81.8906,0.005637
101.573,81.8965,0.005637
101.603,81.9028,0.005637
101.634,81.9089,0.005524
101.665,81.9151,0.005524
101.696,81.9212,0.005524
101.727,81.9275,0.005524
101.759,81.9337,0.005524
101.791,81.9403,0.005524
101.822,81.9464,0.005524
101.853,81.9527,0.005448
101.884,81.9588,0.005448
101.916,81.9651,0.005448
101.946,81.9712,0.005448
101.976,81.9773,0.005448
102.007,81.9836,0.005448
102.038,81.9895,0.005448
102.068,81.9957,0.005448
102.099,82.0018,0.005448
102.130,82.0081,0.005373
102.161,82.0142,0.005373
102.192,82.0204,0.005373
102.223,82.0265,0.005373
102.255,82.0328,0.005373
102.285,82.0390,0.005373
102.317,82.0453,0.005373
102.348,82.0515,0.005260
102.380,82.0579,0.005260
102.410,82.0641,0.005260
102.441,82.0702,0.005260
102.472,82.0764,0.005260
102.503,82.0827,0.005260
102.535,82.0889,0.005260
102.566,82.0952,0.005260
102.597,82.1015,0.005260
102.628,82.1076,0.005260
102.659,82.1137,0.005260
102.691,82.1203,0.005166
102.723,82.1266,0.005166
102.754,82.1328,0.005166
102.785,82.1390,0.005166
102.815,82.1452,0.005166
102.846,82.1513,0.005166
102.878,82.1576,0.005166
102.909,82.1637,0.005110
102.940,82.1701,0.005110
102.971,82.1762,0.005110
103.001,82.1821,0.005110
103.031,82.1882,0.005110
103.062,82.1944,0.005110
103.093,82.2006,0.005110
103.124,82.2068,0.005053
103.155,82.2130,0.005053
103.185,82.2190,0.005053
103.216,82.2253,0.005053
103.247,82.2314,0.005053
103.278,82.2375,0.005053
103.309,82.2437,0.005053
103.340,82.2499,0.005053
103.371,82.2561,0.004940
103.402,82.2623,0.004940
103.433,82.2686,0.004940
103.464,82.2748,0.004940
103.495,82.2810,0.004940
103.525,82.2869,0.004940
103.555,82.2930,0.004940
103.587,82.2993,0.004940
103.617,82.3054,0.004808
103.649,82.3118,0.004808
103.678,82.3176,0.004808
103.710,82.3240,0.004808
103.741,82.3301,0.004808
103.774,82.3367,0.004808
103.803,82.3425,0.004808
103.834,82.3488,0.004808
103.866,82.3552,0.004658
103.896,82.3614,0.004658
103.928,82.3674,0.004658
103.958,82.3738,0.004658
103.989,82.3797,0.004658
104.020,82.3860,0.004658
104.051,82.3921,0.004658
104.082,82.3984,0.004658
104.114,82.4046,0.004583
104.144,82.4108,0.004583
104.175,82.4169,0.004583
104.206,82.4231,0.004583
104.236,82.4292,0.004583
104.267,82.4353,0.004583
104.298,82.4415,0.004583
104.330,82.4479,0.004583
104.361,82.4541,0.004583
104.392,82.4603,0.004526
104.423,82.4667,0.004526
104.455,82.4729,0.004526
104.486,82.4793,0.004526
104.517,82.4854,0.004526
104.549,82.4917,0.004526
104.580,82.4979,0.004526
104.611,82.5044,0.004526
104.642,82.5106,0.004413
104.674,82.5168,0.004413
104.704,82.5227,0.004413
104.735,82.5290,0.004413
104.766,82.5351,0.004413
104.797,82.5413,0.004413
104.827,82.5474,0.004413
104.859,82.5537,0.004366
104.890,82.5599,0.004366
104.921,82.5664,0.004366
104.953,82.5724,0.004366
104.983,82.5786,0.004366
105.014,82.5847,0.004366
105.046,82.5912,0.004366
105.077,82.5973,0.004366
105.109,82.6037,0.004366
105.139,82.6098,0.004338
105.171,82.6162,0.004338
105.201,82.6221,0.004338
105.232,82.6284,0.004338
105.263,82.6346,0.004338
105.294,82.6409,0.004338
105.325,82.6470,0.004338
105.356,82.6531,0.004338
105.386,82.6594,0.004338
105.417,82.6653,0.004310
105.448,82.6715,0.004310
105.479,82.6777,0.004310
105.509,82.6838,0.004310
105.541,82.6901,0.004310
105.573,82.6967,0.004310
105.604,82.7028,0.004310
105.634,82.7087,0.004291
105.665,82.7150,0.004291
105.697,82.7205,0.004291
105.727,82.7252,0.004291
105.759,82.7292,0.004291
105.790,82.7326,0.004291
105.822,82.7350,0.004291
105.853,82.7369,0.004357
105.884,82.7379,0.004357
105.915,82.7383,0.004357
105.946,82.7383,0.004357
105.976,82.7383,0.004357
106.007,82.7383,0.004357
106.038,82.7383,0.004357
106.069,82.7383,0.004357
106.100,82.7383,0.004413
106.131,82.7383,0.004413
106.162,82.7383,0.004413
106.194,82.7383,0.004413
106.225,82.7383,0.004413
106.256,82.7383,0.004413
106.287,82.7383,0.004413
106.317,82.7383,0.004413
106.349,82.7383,0.004347
106.379,82.7383,0.004347
106.410,82.7383,0.004347
106.440,82.7383,0.004347
106.470,82.7383,0.004347
106.501,82.7383,0.004347
106.532,82.7383,0.004347
106.563,82.7383,0.004347
106.594,82.7383,0.004281
106.625,82.7383,0.004281
106.656,82.7383,0.004281
106.687,82.7383,0.004281
106.717,82.7383,0.004281
106.748,82.7383,0.004281
106.780,82.7383,0.004281
106.810,82.7383,0.004281
106.842,82.7383,0.004281
106.873,82.7383,0.004300
106.904,82.7383,0.004300
106.935,82.7383,0.004300
106.966,82.7383,0.004300
106.997,82.7383,0.004300
107.028,82.7383,0.004300
107.060,82.7383,0.004300
107.092,82.7383,0.004300
107.122,82.7383,0.004385
107.152,82.7383,0.004385
107.184,82.7383,0.004385
107.214,82.7383,0.004385
107.246,82.7383,0.004385
107.277,82.7383,0.004385
107.308,82.7383,0.004385
107.340,82.7383,0.004385
107.371,82.7383,0.004394
107.401,82.7383,0.004394
107.432,82.7383,0.004394
107.464,82.7383,0.004394
107.494,82.7383,0.004394
107.525,82.7383,0.004394
107.556,82.7383,0.004394
107.587,82.7383,0.004394
107.616,82.7383,0.004394
107.647,82.7383,0.004319
107.678,82.7383,0.004319
107.710,82.7383,0.004319
107.741,82.7383,0.004319
107.773,82.7383,0.004319
107.804,82.7383,0.004319
107.835,82.7383,0.004319
107.867,82.7383,0.004338
107.898,82.7383,0.004338
107.930,82.7383,0.004338
107.962,82.7383,0.004338
107.992,82.7383,0.004338
108.023,82.7383,0.004338
108.055,82.7383,0.004338
108.085,82.7383,0.004338
108.116,82.7383,0.004338
108.147,82.7383,0.004338
108.177,82.7383,0.004338
108.207,82.7383,0.004338
108.238,82.7383,0.004338
108.269,82.7383,0.004338
108.300,82.7383,0.004338
108.332,82.7383,0.004338
108.362,82.7383,0.004329
108.393,82.7383,0.004329
108.424,82.7383,0.004329
108.455,82.7383,0.004329
108.488,82.7383,0.004329
108.518,82.7383,0.004329
108.548,82.7383,0.004329
108.581,82.7383,0.004329
108.611,82.7383,0.004329
108.642,82.7383,0.004357
108.673,82.7383,0.004357
108.704,82.7383,0.004357
108.735,82.7383,0.004357
108.765,82.7383,0.004357
108.797,82.7383,0.004357
108.827,82.7383,0.004357
108.858,82.7383,0.004357
108.889,82.7383,0.004319
108.921,82.7383,0.004319
108.952,82.7383,0.004319
108.984,82.7383,0.004319
109.016,82.7383,0.004319
109.047,82.7383,0.004319
109.077,82.7383,0.004319
109.108,82.7383,0.004347
109.139,82.7383,0.004347
109.170,82.7383,0.004347
109.202,82.7383,0.004347
109.232,82.7383,0.004347
109.263,82.7383,0.004347
109.294,82.7383,0.004347
109.325,82.7383,0.004347
109.356,82.7383,0.004366
109.386,82.7383,0.004366
109.418,82.7383,0.004366
109.450,82.7383,0.004366
109.481,82.7383,0.004366
109.512,82.7383,0.004366
109.544,82.7383,0.004366
109.576,82.7383,0.004366
109.607,82.7383,0.004319
109.637,82.7383,0.004319
109.667,82.7383,0.004319
109.698,82.7383,0.004319
109.732,82.7383,0.004319
109.762,82.7383,0.004319
109.793,82.7383,0.004319
109.824,82.7383,0.004319
109.856,82.7383,0.004319
109.887,82.7383,0.004310
109.918,82.7383,0.004310
109.949,82.7383,0.004310
109.980,82.7383,0.004310
110.011,82.7383,0.004310
110.042,82.7383,0.004310
110.073,82.7383,0.004310
110.104,82.7383,0.004310
110.135,82.7383,0.004376
110.165,82.7383,0.004376
110.196,82.7383,0.004376
110.227,82.7383,0.004376
110.259,82.7383,0.004376
110.290,82.7383,0.004376
110.321,82.7383,0.004376
110.352,82.7383,0.004376
110.383,82.7383,0.004376
110.414,82.7383,0.004376
110.445,82.7383,0.004376
110.476,82.7383,0.004376
110.507,82.7383,0.004376
110.538,82.7383,0.004376
110.570,82.7383,0.004376
110.601,82.7380,0.004376
110.632,82.7369,0.004385
110.662,82.7353,0.004385
110.693,82.7329,0.004385
110.724,82.7297,0.004385
110.755,82.7259,0.004385
110.786,82.7212,0.004385
110.817,82.7158,0.004385
110.848,82.7097,0.004385
110.879,82.7035,0.004517
110.910,82.6973,0.004517
110.941,82.6911,0.004517
110.972,82.6849,0.004517
111.004,82.6787,0.004517
111.036,82.6723,0.004517
111.066,82.6662,0.004517
111.098,82.6599,0.004498
111.129,82.6536,0.004498
111.160,82.6474,0.004498
111.190,82.6413,0.004498
111.222,82.6351,0.004498
111.253,82.6288,0.004498
111.284,82.6224,0.004498
111.315,82.6164,0.004498
111.345,82.6103,0.004498
111.377,82.6041,0.004489
111.408,82.5980,0.004489
111.438,82.5917,0.004489
111.469,82.5856,0.004489
111.500,82.5794,0.004489
111.531,82.5733,0.004489
111.562,82.5670,0.004489
111.594,82.5605,0.004489
111.627,82.5541,0.004583
111.657,82.5480,0.004583
111.688,82.5418,0.004583
111.720,82.5354,0.004583
111.751,82.5293,0.004583
111.782,82.5230,0.004583
111.813,82.5168,0.004583
111.844,82.5107,0.004583
111.874,82.5046,0.004583
111.907,82.4980,0.004639
111.936,82.4922,0.004639
111.966,82.4861,0.004639
111.997,82.4801,0.004639
112.029,82.4736,0.004639
112.060,82.4675,0.004639
112.092,82.4610,0.004639
112.121,82.4551,0.004639
112.153,82.4488,0.004733
112.184,82.4425,0.004733
112.216,82.4361,0.004733
112.245,82.4303,0.004733
112.277,82.4239,0.004733
112.307,82.4179,0.004733
112.338,82.4118,0.004733
112.369,82.4055,0.004733
112.401,82.3993,0.004752
112.432,82.3929,0.004752
112.464,82.3867,0.004752
112.495,82.3805,0.004752
112.527,82.3740,0.004752
112.558,82.3678,0.004752
112.589,82.3616,0.004752
112.621,82.3553,0.004752
112.651,82.3491,0.004733
112.683,82.3428,0.004733
112.715,82.3364,0.004733
112.746,82.3304,0.004733
112.777,82.3238,0.004733
112.809,82.3177,0.004733
112.840,82.3113,0.004733
112.871,82.3052,0.004799
112.902,82.2990,0.004799
112.933,82.2928,0.004799
112.964,82.2866,0.004799
112.995,82.2804,0.004799
113.026,82.2742,0.004799
113.057,82.2680,0.004799
113.088,82.2619,0.004799
113.119,82.2557,0.004865
113.150,82.2494,0.004865
113.181,82.2433,0.004865
113.212,82.2370,0.004865
113.243,82.2309,0.004865
113.274,82.2246,0.004865
113.305,82.2184,0.004865
113.336,82.2122,0.004865
113.368,82.2058,0.004950
113.399,82.1995,0.004950
113.431,82.1933,0.004950
113.462,82.1870,0.004950
113.494,82.1808,0.004950
113.525,82.1743,0.004950
113.555,82.1684,0.004950
113.588,82.1617,0.004950
113.618,82.1559,0.004950
113.649,82.1495,0.005100
113.681,82.1433,0.005100
113.712,82.1369,0.005100
113.743,82.1309,0.005100
113.774,82.1245,0.005100
113.806,82.1183,0.005100
113.837,82.1118,0.005100
113.869,82.1057,0.005194
113.899,82.0997,0.005194
113.929,82.0936,0.005194
113.961,82.0873,0.005194
113.992,82.0809,0.005194
114.023,82.0749,0.005194
114.053,82.0688,0.005194
114.084,82.0626,0.005194
114.115,82.0564,0.005194
114.146,82.0502,0.005251
114.177,82.0441,0.005251
114.208,82.0378,0.005251
114.240,82.0316,0.005251
114.270,82.0255,0.005251
114.301,82.0192,0.005251
114.333,82.0130,0.005251
114.364,82.0068,0.005317
114.395,82.0005,0.005317
114.427,81.9941,0.005317
114.458,81.9877,0.005317
114.489,81.9817,0.005317
114.521,81.9753,0.005317
114.552,81.9692,0.005317
114.583,81.9630,0.005317
114.613,81.9567,0.005373
114.644,81.9506,0.005373
114.676,81.9444,0.005373
114.707,81.9381,0.005373
114.738,81.9319,0.005373
114.769,81.9257,0.005373
114.800,81.9196,0.005373
114.831,81.9133,0.005373
114.863,81.9069,0.005448
114.894,81.9007,0.005448
114.924,81.8945,0.005448
114.956,81.8883,0.005448
114.987,81.8820,0.005448
115.019,81.8756,0.005448
115.051,81.8694,0.005448
115.082,81.8632,0.005448
115.114,81.8567,0.005627
115.144,81.8505,0.005627
115.174,81.8446,0.005627
115.206,81.8384,0.005627
115.237,81.8322,0.005627
115.268,81.8258,0.005627
115.299,81.8196,0.005627
115.330,81.8135,0.005627
115.360,81.8073,0.005768
115.392,81.8011,0.005768
115.423,81.7947,0.005768
115.455,81.7885,0.005768
115.485,81.7823,0.005768
115.517,81.7761,0.005768
115.547,81.7699,0.005768
115.579,81.7636,0.005768
115.611,81.7571,0.005844
115.642,81.7512,0.005844
115.673,81.7450,0.005844
115.703,81.7389,0.005844
115.734,81.7327,0.005844
115.765,81.7264,0.005844
115.796,81.7204,0.005844
115.826,81.7141,0.005844
115.858,81.7079,0.005891
115.889,81.7017,0.005891
115.920,81.6955,0.005891
115.951,81.6893,0.005891
115.982,81.6830,0.005891
116.013,81.6769,0.005891
116.044,81.6705,0.005891
116.075,81.6645,0.005891
116.105,81.6583,0.005891
116.137,81.6521,0.005928
116.168,81.6459,0.005928
116.200,81.6395,0.005928
116.231,81.6331,0.005928
116.262,81.6270,0.005928
116.293,81.6208,0.005928
116.324,81.6147,0.005928
116.353,81.6088,0.005928
116.384,81.6025,0.006088
116.415,81.5964,0.006088
116.447,81.5899,0.006088
116.478,81.5837,0.006088
116.509,81.5775,0.006088
116.540,81.5713,0.006088
116.571,81.5651,0.006088
116.603,81.5588,0.006088
116.635,81.5524,0.006154
116.666,81.5463,0.006154
116.697,81.5400,0.006154
116.729,81.5338,0.006154
116.759,81.5277,0.006154
116.790,81.5216,0.006154
116.820,81.5154,0.006154
116.852,81.5089,0.006229
116.883,81.5029,0.006229
116.914,81.4967,0.006229
116.944,81.4907,0.006229
116.975,81.4845,0.006229
117.006,81.4782,0.006229
117.038,81.4719,0.006229
117.069,81.4657,0.006229
117.100,81.4596,0.006229
117.130,81.4534,0.006323
117.162,81.4471,0.006323
117.192,81.4410,0.006323
117.224,81.4347,0.006323
117.255,81.4285,0.006323
117.286,81.4223,0.006323
117.317,81.4159,0.006323
117.349,81.4097,0.006323
117.380,81.4034,0.006399
117.411,81.3972,0.006399
117.443,81.3910,0.006399
117.473,81.3847,0.006399
117.504,81.3786,0.006399
117.535,81.3725,0.006399
117.566,81.3663,0.006399
117.597,81.3601,0.006502
117.628,81.3538,0.006502
117.659,81.3477,0.006502
117.690,81.3414,0.006502
117.721,81.3353,0.006502
117.752,81.3290,0.006502
117.783,81.3229,0.006502
117.815,81.3166,0.006502
117.846,81.3103,0.006587
117.877,81.3041,0.006587
117.908,81.2980,0.006587
117.939,81.2917,0.006587
117.969,81.2856,0.006587
118.000,81.2793,0.006587
118.032,81.2731,0.006587
118.065,81.2665,0.006587
118.095,81.2604,0.006587
118.126,81.2541,0.006625
118.158,81.2478,0.006625
118.189,81.2417,0.006625
118.220,81.2354,0.006625
118.251,81.2293,0.006625
118.282,81.2231,0.006625
118.313,81.2170,0.006625
118.344,81.2107,0.006625
118.375,81.2045,0.006690
118.407,81.1981,0.006690
118.438,81.1919,0.006690
118.469,81.1857,0.006690
118.500,81.1795,0.006690
118.530,81.1733,0.006690
118.562,81.1671,0.006690
118.592,81.1611,0.006690
118.622,81.1549,0.006785
118.654,81.1488,0.006785
118.685,81.1426,0.006785
118.716,81.1361,0.006785
118.748,81.1299,0.006785
118.779,81.1236,0.006785
118.810,81.1175,0.006785
118.841,81.1112,0.006785
118.873,81.1049,0.006860
118.904,81.0987,0.006860
118.934,81.0925,0.006860
118.964,81.0865,0.006860
118.996,81.0802,0.006860
119.027,81.0740,0.006860
119.058,81.0677,0.006860
119.089,81.0616,0.006860
119.120,81.0554,0.006860
119.151,81.0494,0.006907
119.181,81.0432,0.006907
119.212,81.0370,0.006907
119.243,81.0310,0.006907
119.274,81.0245,0.006907
119.306,81.0183,0.006907
119.336,81.0121,0.006907
119.367,81.0060,0.006935
119.398,80.9998,0.006935
119.430,80.9935,0.006935
119.461,80.9873,0.006935
119.491,80.9811,0.006935
119.523,80.9750,0.006935
119.553,80.9687,0.006935
119.585,80.9625,0.006935
119.616,80.9562,0.006935
119.648,80.9498,0.007039
119.678,80.9439,0.007039
119.708,80.9378,0.007039
119.739,80.9316,0.007039
119.770,80.9254,0.007039
119.802,80.9191,0.007039
119.833,80.9129,0.007039
119.865,80.9066,0.007086
119.896,80.9002,0.007086
119.928,80.8939,0.007086
119.959,80.8876,0.007086
119.990,80.8815,0.007086
120.022,80.8751,0.007086
120.052,80.8691,0.007086
120.083,80.8629,0.007086
120.114,80.8566,0.007151
120.145,80.8504,0.007151
120.175,80.8443,0.007151
120.207,80.8381,0.007151
120.238,80.8318,0.007151
120.269,80.8257,0.007151
120.300,80.8194,0.007151
120.331,80.8133,0.007151
120.362,80.8070,0.007227
120.393,80.8009,0.007227
120.424,80.7948,0.007227
120.455,80.7886,0.007227
120.486,80.7823,0.007227
120.517,80.7760,0.007227
120.548,80.7699,0.007227
120.579,80.7637,0.007227
120.610,80.7575,0.007255
120.644,80.7507,0.007255
120.674,80.7447,0.007255
120.705,80.7386,0.007255
120.736,80.7323,0.007255
120.766,80.7262,0.007255
120.798,80.7197,0.007255
120.830,80.7136,0.007255
120.860,80.7074,0.007255
120.891,80.7014,0.007255
120.922,80.6950,0.007255
120.953,80.6888,0.007255
120.984,80.6825,0.007255
121.016,80.6764,0.007255
121.047,80.6699,0.007255
121.079,80.6636,0.007255
121.110,80.6575,0.007255
121.141,80.6513,0.007255
121.172,80.6451,0.007255
121.203,80.6389,0.007255
121.233,80.6330,0.007255
121.263,80.6268,0.007255
121.294,80.6206,0.007255
121.325,80.6144,0.007255
121.357,80.6082,0.007255
121.387,80.6021,0.007302
121.418,80.5958,0.007302
121.450,80.5896,0.007302
121.480,80.5835,0.007302
121.511,80.5773,0.007302
121.543,80.5710,0.007302
121.575,80.5646,0.007302
121.606,80.5583,0.007302
121.637,80.5521,0.007359
121.667,80.5459,0.007359
121.698,80.5400,0.007359
121.729,80.5335,0.007359
121.761,80.5273,0.007359
121.792,80.5210,0.007359
121.823,80.5148,0.007359
121.854,80.5087,0.007359
121.885,80.5024,0.007406
121.915,80.4964,0.007406
121.946,80.4901,0.007406
121.977,80.4840,0.007406
122.009,80.4777,0.007406
122.039,80.4717,0.007406
122.070,80.4653,0.007406
122.102,80.4591,0.007406
122.134,80.4526,0.007434
122.165,80.4464,0.007434
122.197,80.4400,0.007434
122.228,80.4339,0.007434
122.259,80.4277,0.007434
122.290,80.4214,0.007434
122.321,80.4153,0.007434
122.353,80.4090,0.007434
122.383,80.4029,0.007424
122.414,80.3968,0.007424
122.445,80.3906,0.007424
122.475,80.3846,0.007424
122.506,80.3783,0.007424
122.537,80.3721,0.007424
122.568,80.3658,0.007424
122.599,80.3597,0.007424
122.629,80.3537,0.007424
122.661,80.3473,0.007424
122.692,80.3410,0.007424
122.723,80.3349,0.007424
122.754,80.3286,0.007424
122.785,80.3224,0.007424
122.817,80.3162,0.007424
122.848,80.3099,0.007424
122.878,80.3038,0.007537
122.911,80.2974,0.007537
122.941,80.2913,0.007537
122.972,80.2851,0.007537
123.003,80.2789,0.007537
123.034,80.2727,0.007537
123.065,80.2665,0.007537
123.096,80.2603,0.007537
123.127,80.2541,0.007537
123.159,80.2476,0.007547
123.190,80.2416,0.007547
123.221,80.2352,0.007547
123.252,80.2290,0.007547
123.283,80.2228,0.007547
123.314,80.2169,0.007547
123.345,80.2104,0.007547
123.375,80.2045,0.007547
123.407,80.1980,0.007481
123.437,80.1921,0.007481
123.468,80.1857,0.007481
123.500,80.1795,0.007481
123.531,80.1732,0.007481
123.561,80.1673,0.007481
123.593,80.1608,0.007481
123.624,80.1546,0.007471
123.656,80.1480,0.007471
123.687,80.1421,0.007471
123.718,80.1359,0.007471
123.749,80.1297,0.007471
123.781,80.1234,0.007471
123.812,80.1170,0.007471
123.842,80.1110,0.007471
123.873,80.1049,0.007462
123.904,80.0987,0.007462
123.935,80.0925,0.007462
123.967,80.0863,0.007462
123.998,80.0799,0.007462
124.029,80.0736,0.007462
124.060,80.0675,0.007462
124.092,80.0612,0.007462
124.122,80.0550,0.007500
124.153,80.0489,0.007500
124.185,80.0426,0.007500
124.216,80.0363,0.007500
124.248,80.0300,0.007500
124.279,80.0236,0.007500
124.310,80.0176,0.007500
124.341,80.0111,0.007500
124.372,80.0050,0.007434
124.403,79.9988,0.007434
124.435,79.9924,0.007434
124.466,79.9863,0.007434
124.497,79.9801,0.007434
124.528,79.9738,0.007434
124.560,79.9675,0.007434
124.591,79.9614,0.007434
124.621,79.9552,0.007368
124.652,79.9490,0.007368
124.683,79.9428,0.007368
124.715,79.9365,0.007368
124.746,79.9303,0.007368
124.777,79.9241,0.007368
124.807,79.9181,0.007368
124.838,79.9120,0.007368
124.869,79.9057,0.007293
124.900,79.8995,0.007293
124.931,79.8933,0.007293
124.962,79.8870,0.007293
124.993,79.8810,0.007293
125.024,79.8748,0.007293
125.055,79.8686,0.007293
125.086,79.8623,0.007293
125.116,79.8562,0.007293
125.147,79.8501,0.007180
125.179,79.8438,0.007180
125.210,79.8376,0.007180
125.241,79.8313,0.007180
125.273,79.8248,0.007180
125.305,79.8186,0.007180
125.336,79.8122,0.007180
125.367,79.8061,0.007076
125.399,79.7998,0.007076
125.431,79.7935,0.007076
125.461,79.7873,0.007076
125.492,79.7809,0.007076
125.523,79.7750,0.007076
125.553,79.7689,0.007076
125.584,79.7627,0.007076
125.614,79.7566,0.007076
125.646,79.7503,0.006944
125.676,79.7443,0.006944
125.707,79.7380,0.006944
125.739,79.7317,0.006944
125.770,79.7255,0.006944
125.801,79.7193,0.006944
125.832,79.7132,0.006944
125.864,79.7074,0.006822
125.895,79.7024,0.006822
125.926,79.6982,0.006822
125.958,79.6947,0.006822
125.990,79.6920,0.006822
126.020,79.6900,0.006822
126.051,79.6888,0.006822
126.083,79.6883,0.006822
126.114,79.6883,0.006521
126.145,79.6883,0.006521
126.175,79.6883,0.006521
126.208,79.6883,0.006521
126.239,79.6889,0.006521
126.269,79.6901,0.006521
126.301,79.6923,0.006521
126.331,79.6950,0.006521
126.363,79.6986,0.006276
126.393,79.7025,0.006276
126.424,79.7074,0.006276
126.455,79.7131,0.006276
126.486,79.7192,0.006276
126.517,79.7255,0.006276
126.548,79.7317,0.006276
126.579,79.7379,0.006276
126.610,79.7441,0.006192
126.641,79.7503,0.006192
126.672,79.7566,0.006192
126.703,79.7629,0.006192
126.734,79.7689,0.006192
126.765,79.7751,0.006192
126.796,79.7813,0.006192
126.828,79.7876,0.006192
126.860,79.7941,0.006192
126.890,79.8000,0.006145
126.921,79.8062,0.006145
126.952,79.8126,0.006145
126.984,79.8189,0.006145
127.014,79.8250,0.006145
127.046,79.8313,0.006145
127.077,79.8375,0.006145
127.108,79.8438,0.006145
127.140,79.8501,0.006211
127.171,79.8562,0.006211
127.201,79.8623,0.006211
127.232,79.8685,0.006211
127.264,79.8748,0.006211
127.294,79.8810,0.006211
127.325,79.8872,0.006211
127.356,79.8933,0.006211
127.386,79.8992,0.006436
127.416,79.9053,0.006436
127.446,79.9113,0.006436
127.477,79.9175,0.006436
127.509,79.9238,0.006436
127.540,79.9300,0.006436
127.571,79.9365,0.006436
127.603,79.9427,0.006436
127.634,79.9487,0.006737
127.665,79.9552,0.006737
127.697,79.9614,0.006737
127.728,79.9677,0.006737
127.759,79.9739,0.006737
127.790,79.9801,0.006737
127.821,79.9862,0.006737
127.852,79.9925,0.006737
127.882,79.9986,0.006737
127.912,80.0045,0.006935
127.944,80.0109,0.006935
127.975,80.0171,0.006935
128.006,80.0233,0.006935
128.037,80.0296,0.006935
128.067,80.0354,0.006935
128.099,80.0419,0.006935
128.130,80.0480,0.007114
128.161,80.0543,0.007114
128.192,80.0607,0.007114
128.223,80.0667,0.007114
128.254,80.0729,0.007114
128.285,80.0792,0.007114
128.317,80.0855,0.007114
128.348,80.0919,0.007114
128.379,80.0979,0.007114
128.410,80.1043,0.007264
128.441,80.1105,0.007264
128.473,80.1167,0.007264
128.502,80.1225,0.007264
128.534,80.1289,0.007264
128.566,80.1353,0.007264
128.597,80.1416,0.007264
128.628,80.1477,0.007330
128.659,80.1540,0.007330
128.689,80.1599,0.007330
128.721,80.1661,0.007330
128.753,80.1726,0.007330
128.784,80.1789,0.007330
128.815,80.1851,0.007330
128.845,80.1911,0.007330
128.876,80.1972,0.007359
128.907,80.2035,0.007359
128.938,80.2097,0.007359
128.969,80.2159,0.007359
128.999,80.2220,0.007359
129.031,80.2283,0.007359
129.062,80.2344,0.007359
129.093,80.2407,0.007359
129.124,80.2469,0.007396
129.155,80.2531,0.007396
129.186,80.2593,0.007396
129.218,80.2659,0.007396
129.250,80.2721,0.007396
129.282,80.2784,0.007396
129.313,80.2846,0.007396
129.345,80.2910,0.007396
129.375,80.2972,0.007406
129.406,80.3033,0.007406
129.438,80.3099,0.007406
129.469,80.3160,0.007406
129.500,80.3222,0.007406
129.532,80.3285,0.007406
129.561,80.3343,0.007406
129.592,80.3406,0.007406
129.623,80.3467,0.007406
129.655,80.3532,0.007406
129.686,80.3594,0.007406
129.715,80.3652,0.007406
129.747,80.3715,0.007406
129.779,80.3780,0.007406
129.811,80.3842,0.007406
129.842,80.3904,0.007406
129.872,80.3966,0.007387
129.904,80.4029,0.007387
129.936,80.4092,0.007387
129.967,80.4154,0.007387
129.998,80.4216,0.007387
130.030,80.4280,0.007387
130.061,80.4342,0.007387
130.092,80.4406,0.007406
130.123,80.4466,0.007406
130.153,80.4528,0.007406
130.184,80.4588,0.007406
130.215,80.4650,0.007406
130.246,80.4712,0.007406
130.277,80.4774,0.007406
130.307,80.4835,0.007406
130.338,80.4897,0.007406
130.369,80.4959,0.007396
130.400,80.5021,0.007396
130.430,80.5082,0.007396
130.462,80.5144,0.007396
130.492,80.5205,0.007396
130.524,80.5269,0.007396
130.554,80.5329,0.007396
130.585,80.5391,0.007396
130.616,80.5453,0.007387
130.648,80.5517,0.007387
130.679,80.5579,0.007387
130.711,80.5643,0.007387
130.741,80.5703,0.007387
130.772,80.5764,0.007387
130.803,80.5827,0.007387
130.833,80.5887,0.007387
130.864,80.5950,0.007377
130.894,80.6008,0.007377
130.925,80.6070,0.007377
130.956,80.6131,0.007377
130.986,80.6193,0.007377
131.017,80.6255,0.007377
131.048,80.6316,0.007377
131.079,80.6381,0.007377
131.110,80.6441,0.007359
131.142,80.6505,0.007359
131.173,80.6567,0.007359
131.203,80.6629,0.007359
131.234,80.6689,0.007359
131.265,80.6753,0.007359
131.297,80.6815,0.007359
131.329,80.6879,0.007359
131.359,80.6940,0.007359
131.390,80.7002,0.007377
131.422,80.7064,0.007377
131.453,80.7126,0.007377
131.484,80.7189,0.007377
131.514,80.7247,0.007377
131.545,80.7311,0.007377
131.575,80.7370,0.007377
131.607,80.7435,0.007377
131.638,80.7497,0.007377
131.670,80.7561,0.007311
131.700,80.7622,0.007311
131.731,80.7684,0.007311
131.762,80.7745,0.007311
131.793,80.7807,0.007311
131.824,80.7868,0.007311
131.856,80.7933,0.007311
131.887,80.7994,0.007217
131.919,80.8059,0.007217
131.950,80.8121,0.007217
131.980,80.8181,0.007217
132.012,80.8245,0.007217
132.043,80.8307,0.007217
132.074,80.8369,0.007217
132.105,80.8433,0.007217
132.136,80.8493,0.007170
132.168,80.8556,0.007170
132.199,80.8620,0.007170
132.230,80.8680,0.007170
132.261,80.8742,0.007170
132.291,80.8804,0.007170
132.322,80.8865,0.007170
132.354,80.8928,0.007170
132.385,80.8990,0.007133
132.415,80.9051,0.007133
132.447,80.9114,0.007133
132.478,80.9176,0.007133
132.509,80.9239,0.007133
132.540,80.9301,0.007133
132.572,80.9363,0.007133
132.603,80.9427,0.007142
132.634,80.9489,0.007142
132.665,80.9552,0.007142
132.695,80.9610,0.007142
132.726,80.9672,0.007142
132.757,80.9734,0.007142
132.789,80.9799,0.007142
132.821,80.9862,0.007142
132.851,80.9921,0.007142
132.882,80.9983,0.007076
132.913,81.0045,0.007076
132.943,81.0107,0.007076
132.975,81.0171,0.007076
133.006,81.0233,0.007076
133.038,81.0297,0.007076
133.069,81.0360,0.007076
133.099,81.0419,0.007076
133.130,81.0481,0.006973
133.162,81.0544,0.006973
133.192,81.0605,0.006973
133.224,81.0669,0.006973
133.255,81.0730,0.006973
133.287,81.0795,0.006973
133.318,81.0855,0.006973
133.349,81.0919,0.006973
133.379,81.0978,0.006973
133.411,81.1044,0.006973
133.441,81.1103,0.006973
133.473,81.1168,0.006973
133.504,81.1229,0.006973
133.535,81.1292,0.006973
133.567,81.1354,0.006973
133.598,81.1417,0.006944
133.630,81.1479,0.006944
133.661,81.1545,0.006944
133.693,81.1607,0.006944
133.725,81.1671,0.006944
133.757,81.1733,0.006944
133.787,81.1794,0.006944
133.818,81.1857,0.006944
133.849,81.1922,0.006944
133.881,81.1983,0.006841
133.912,81.2043,0.006841
133.941,81.2104,0.006841
133.972,81.2165,0.006841
134.003,81.2227,0.006841
134.034,81.2288,0.006841
134.066,81.2352,0.006841
134.096,81.2413,0.006737
134.128,81.2476,0.006737
134.158,81.2538,0.006737
134.190,81.2600,0.006737
134.221,81.2662,0.006737
134.252,81.2724,0.006737
134.283,81.2788,0.006737
134.314,81.2847,0.006737
134.345,81.2909,0.006737
134.376,81.2972,0.006737
134.407,81.3034,0.006700
134.438,81.3096,0.006700
134.468,81.3156,0.006700
134.500,81.3220,0.006700
134.532,81.3284,0.006700
134.563,81.3347,0.006700
134.595,81.3410,0.006700
134.626,81.3472,0.006634
134.658,81.3535,0.006634
134.689,81.3599,0.006634
134.719,81.3659,0.006634
134.751,81.3721,0.006634
134.782,81.3784,0.006634
134.813,81.3847,0.006634
134.845,81.3912,0.006634
134.877,81.3973,0.006615
134.907,81.4035,0.006615
134.938,81.4100,0.006615
134.969,81.4158,0.006615
135.000,81.4220,0.006615
135.030,81.4282,0.006615
135.062,81.4344,0.006615
135.093,81.4406,0.006615
135.123,81.4467,0.006540
135.155,81.4530,0.006540
135.187,81.4593,0.006540
135.218,81.4657,0.006540
135.249,81.4717,0.006540
135.280,81.4782,0.006540
135.312,81.4845,0.006540
135.341,81.4902,0.006418
135.373,81.4965,0.006418
135.404,81.5029,0.006418
135.435,81.5089,0.006418
135.466,81.5154,0.006418
135.497,81.5215,0.006418
135.527,81.5276,0.006418
135.558,81.5338,0.006418
135.589,81.5400,0.006418
135.621,81.5462,0.006323
135.651,81.5524,0.006323
135.682,81.5586,0.006323
135.713,81.5648,0.006323
135.745,81.5710,0.006323
135.776,81.5772,0.006323
135.808,81.5836,0.006323
135.839,81.5898,0.006239
135.870,81.5961,0.006239
135.901,81.6022,0.006239
135.932,81.6084,0.006239
135.963,81.6146,0.006239
135.993,81.6207,0.006239
136.024,81.6270,0.006239
136.056,81.6333,0.006239
136.088,81.6397,0.006239
136.119,81.6460,0.006126
136.149,81.6521,0.006126
136.180,81.6580,0.006126
136.211,81.6643,0.006126
136.243,81.6705,0.006126
136.274,81.6770,0.006126
136.305,81.6831,0.006126
136.336,81.6894,0.006126
136.367,81.6955,0.005994
136.398,81.7016,0.005994
136.429,81.7078,0.005994
136.460,81.7141,0.005994
136.491,81.7203,0.005994
136.522,81.7264,0.005994
136.553,81.7327,0.005994
136.585,81.7389,0.005994
136.615,81.7451,0.005956
136.646,81.7513,0.005956
136.678,81.7577,0.005956
136.709,81.7638,0.005956
136.741,81.7701,0.005956
136.772,81.7763,0.005956
136.803,81.7825,0.005956
136.834,81.7887,0.005956
136.865,81.7951,0.005853
136.895,81.8010,0.005853
136.927,81.8073,0.005853
136.958,81.8137,0.005853
136.988,81.8196,0.005853
137.019,81.8258,0.005853
137.050,81.8320,0.005853
137.081,81.8382,0.005853
137.112,81.8446,0.005853
137.143,81.8506,0.005853
137.174,81.8571,0.005749
137.205,81.8630,0.005749
137.235,81.8692,0.005749
137.266,81.8752,0.005749
137.297,81.8814,0.005749
137.328,81.8876,0.005749
137.359,81.8938,0.005749
137.390,81.8999,0.005684
137.420,81.9061,0.005684
137.452,81.9124,0.005684
137.483,81.9186,0.005684
137.514,81.9250,0.005684
137.545,81.9309,0.005684
137.575,81.9370,0.005684
137.605,81.9430,0.005684
137.637,81.9494,0.005561
137.668,81.9557,0.005561
137.700,81.9621,0.005561
137.734,81.9687,0.005561
137.762,81.9744,0.005561
137.793,81.9806,0.005561
137.823,81.9866,0.005561
137.854,81.9928,0.005561
137.886,81.9991,0.005420
137.917,82.0054,0.005420
137.948,82.0116,0.005420
137.979,82.0179,0.005420
138.011,82.0241,0.005420
138.041,82.0303,0.005420
138.073,82.0365,0.005420
138.104,82.0429,0.005420
138.136,82.0493,0.005317
138.167,82.0555,0.005317
138.198,82.0616,0.005317
138.228,82.0677,0.005317
138.260,82.0739,0.005317
138.291,82.0802,0.005317
138.321,82.0864,0.005317
138.353,82.0925,0.005317
138.383,82.0987,0.005222
138.414,82.1049,0.005222
138.445,82.1110,0.005222
138.475,82.1170,0.005222
138.507,82.1235,0.005222
138.539,82.1298,0.005222
138.569,82.1358,0.005222
138.601,82.1422,0.005222
138.632,82.1484,0.005128
138.662,82.1545,0.005128
138.694,82.1609,0.005128
138.725,82.1670,0.005128
138.755,82.1730,0.005128
138.786,82.1792,0.005128
138.817,82.1854,0.005128
138.848,82.1916,0.005128
138.878,82.1976,0.005128
138.909,82.2040,0.005091
138.940,82.2099,0.005091
138.971,82.2164,0.005091
139.003,82.2225,0.005091
139.034,82.2288,0.005091
139.066,82.2351,0.005091
139.098,82.2416,0.005091
139.129,82.2479,0.005063
139.160,82.2542,0.005063
139.191,82.2603,0.005063
139.223,82.2666,0.005063
139.255,82.2729,0.005063
139.286,82.2791,0.005063
139.317,82.2855,0.005063
139.348,82.2917,0.005063
139.379,82.2979,0.005063
139.413,82.3047,0.004884
139.442,82.3104,0.004884
139.473,82.3167,0.004884
139.504,82.3229,0.004884
139.535,82.3291,0.004884
139.566,82.3352,0.004884
139.597,82.3415,0.004884
139.627,82.3475,0.004884
139.658,82.3537,0.004733
139.690,82.3600,0.004733
139.723,82.3667,0.004733
139.753,82.3726,0.004733
139.786,82.3792,0.004733
139.816,82.3850,0.004733
139.847,82.3916,0.004733
139.879,82.3978,0.004733
139.909,82.4038,0.004639
139.940,82.4100,0.004639
139.972,82.4163,0.004639
140.002,82.4225,0.004639
140.032,82.4285,0.004639
140.063,82.4347,0.004639
140.094,82.4409,0.004639
140.126,82.4471,0.004639
140.157,82.4534,0.004554
140.188,82.4595,0.004554
140.218,82.4657,0.004554
140.248,82.4716,0.004554
140.278,82.4777,0.004554
140.310,82.4839,0.004554
140.340,82.4902,0.004554
140.372,82.4964,0.004498
140.403,82.5025,0.004498
140.434,82.5089,0.004498
140.466,82.5153,0.004498
140.497,82.5214,0.004498
140.527,82.5274,0.004498
140.559,82.5338,0.004498
140.590,82.5400,0.004498
140.622,82.5463,0.004498
140.653,82.5527,0.004460
140.683,82.5587,0.004460
140.714,82.5649,0.004460
140.745,82.5711,0.004460
140.776,82.5773,0.004460
140.808,82.5836,0.004460
140.838,82.5896,0.004460
140.870,82.5960,0.004460
140.901,82.6021,0.004413
140.932,82.6084,0.004413
140.962,82.6146,0.004413
140.994,82.6207,0.004413
141.027,82.6274,0.004413
141.057,82.6335,0.004413
141.088,82.6394,0.004413
141.118,82.6457,0.004413
141.149,82.6519,0.004366
141.180,82.6581,0.004366
141.212,82.6642,0.004366
141.243,82.6699,0.004366
141.275,82.6748,0.004366
141.305,82.6789,0.004366
141.337,82.6822,0.004366
141.368,82.6848,0.004423
141.399,82.6867,0.004423
141.430,82.6879,0.004423
141.461,82.6883,0.004423
141.492,82.6883,0.004423
141.524,82.6883,0.004423
141.555,82.6883,0.004423
141.585,82.6883,0.004423
141.615,82.6883,0.004423
141.645,82.6883,0.004498
141.676,82.6883,0.004498
141.708,82.6883,0.004498
141.738,82.6883,0.004498
141.769,82.6883,0.004498
141.800,82.6883,0.004498
141.831,82.6883,0.004498
141.862,82.6883,0.004517
141.894,82.6883,0.004517
141.925,82.6883,0.004517
141.957,82.6883,0.004517
141.990,82.6883,0.004517
142.019,82.6883,0.004517
142.051,82.6883,0.004517
142.081,82.6883,0.004517
142.113,82.6883,0.004517
142.143,82.6883,0.004517
142.174,82.6883,0.004517
142.205,82.6883,0.004517
142.235,82.6883,0.004517
142.267,82.6883,0.004517
142.298,82.6883,0.004517
142.329,82.6883,0.004517
142.361,82.6883,0.004441
142.392,82.6883,0.004441
142.423,82.6883,0.004441
142.454,82.6883,0.004441
142.486,82.6883,0.004441
142.518,82.6883,0.004441
142.549,82.6883,0.004441
142.580,82.6883,0.004441
142.611,82.6883,0.004441
142.643,82.6883,0.004470
142.675,82.6883,0.004470
142.706,82.6883,0.004470
142.738,82.6883,0.004470
142.768,82.6883,0.004470
142.800,82.6883,0.004470
142.829,82.6883,0.004470
142.860,82.6883,0.004470
142.892,82.6883,0.004536
142.924,82.6883,0.004536
142.955,82.6883,0.004536
142.986,82.6883,0.004536
143.017,82.6883,0.004536
143.048,82.6883,0.004536
143.080,82.6883,0.004536
143.111,82.6883,0.004536
143.141,82.6883,0.004526
143.172,82.6883,0.004526
143.203,82.6883,0.004526
143.234,82.6883,0.004526
143.265,82.6883,0.004526
143.296,82.6883,0.004526
143.328,82.6883,0.004526
143.359,82.6883,0.004526
143.389,82.6883,0.004498
143.420,82.6883,0.004498
143.452,82.6883,0.004498
143.484,82.6883,0.004498
143.514,82.6883,0.004498
143.545,82.6883,0.004498
143.577,82.6883,0.004498
143.607,82.6883,0.004498
143.638,82.6883,0.004498
143.669,82.6883,0.004498
143.701,82.6883,0.004498
143.732,82.6883,0.004498
143.764,82.6883,0.004498
143.795,82.6883,0.004498
143.826,82.6883,0.004498
143.858,82.6883,0.004498
143.888,82.6883,0.004498
143.919,82.6883,0.004470
143.950,82.6883,0.004470
143.981,82.6883,0.004470
144.012,82.6883,0.004470
144.044,82.6883,0.004470
144.075,82.6883,0.004470
144.106,82.6883,0.004470
144.138,82.6883,0.004441
144.169,82.6883,0.004441
144.200,82.6883,0.004441
144.231,82.6883,0.004441
144.262,82.6883,0.004441
144.292,82.6883,0.004441
144.322,82.6883,0.004441
144.353,82.6883,0.004441
144.384,82.6883,0.004441
144.416,82.6883,0.004507
144.447,82.6883,0.004507
144.480,82.6883,0.004507
144.510,82.6883,0.004507
144.541,82.6883,0.004507
144.572,82.6883,0.004507
144.603,82.6883,0.004507
144.634,82.6883,0.004507
144.665,82.6883,0.004507
144.697,82.6883,0.004507
144.729,82.6883,0.004507
144.761,82.6883,0.004507
144.792,82.6883,0.004507
144.824,82.6883,0.004507
144.855,82.6883,0.004507
144.887,82.6883,0.004470
144.918,82.6883,0.004470
144.949,82.6883,0.004470
144.979,82.6883,0.004470
145.011,82.6883,0.004470
145.041,82.6883,0.004470
145.071,82.6883,0.004470
145.103,82.6883,0.004470
145.135,82.6883,0.004479
145.166,82.6883,0.004479
145.198,82.6883,0.004479
145.229,82.6883,0.004479
145.260,82.6883,0.004479
145.291,82.6883,0.004479
145.322,82.6883,0.004479
145.354,82.6883,0.004451
145.385,82.6883,0.004451
145.415,82.6883,0.004451
145.445,82.6883,0.004451
145.476,82.6883,0.004451
145.507,82.6883,0.004451
145.539,82.6883,0.004451
145.569,82.6883,0.004451
145.600,82.6883,0.004536
145.632,82.6883,0.004536
145.663,82.6883,0.004536
145.694,82.6883,0.004536
145.726,82.6883,0.004536
145.757,82.6883,0.004536
145.788,82.6883,0.004536
145.820,82.6883,0.004536
145.851,82.6883,0.004545
145.882,82.6883,0.004545
145.914,82.6883,0.004545
145.945,82.6883,0.004545
145.975,82.6883,0.004545
146.006,82.6883,0.004545
146.038,82.6883,0.004545
146.070,82.6883,0.004545
146.100,82.6883,0.004545
146.131,82.6883,0.004592
146.161,82.6883,0.004592
146.192,82.6882,0.004592
146.223,82.6873,0.004592
146.255,82.6857,0.004592
146.286,82.6833,0.004592
146.318,82.6801,0.004592
146.350,82.6764,0.004630
146.381,82.6715,0.004630
146.412,82.6665,0.004630
146.443,82.6604,0.004630
146.474,82.6544,0.004630
146.504,82.6482,0.004630
146.536,82.6418,0.004630
146.566,82.6358,0.004630
146.597,82.6297,0.004630
146.628,82.6234,0.004517
146.658,82.6173,0.004517
146.689,82.6113,0.004517
146.720,82.6052,0.004517
146.751,82.5989,0.004517
146.782,82.5927,0.004517
146.813,82.5863,0.004517
146.844,82.5803,0.004517
146.875,82.5739,0.004517
146.906,82.5680,0.004601
146.937,82.5617,0.004601
146.968,82.5555,0.004601
146.999,82.5491,0.004601
147.030,82.5429,0.004601
147.061,82.5369,0.004601
147.092,82.5305,0.004601
147.122,82.5246,0.004601
147.153,82.5184,0.004601
147.184,82.5122,0.004799
147.213,82.5063,0.004799
147.244,82.5003,0.004799
147.275,82.4941,0.004799
147.305,82.4880,0.004799
147.336,82.4819,0.004790
147.368,82.4753,0.004790
147.400,82.4693,0.004790
147.430,82.4631,0.004790
147.461,82.4569,0.004790
147.492,82.4507,0.004790
147.524,82.4443,0.004790
147.555,82.4381,0.004790
147.586,82.4318,0.004790
147.618,82.4254,0.004724
147.649,82.4194,0.004724
147.680,82.4131,0.004724
147.710,82.4071,0.004724
147.742,82.4007,0.004724
147.772,82.3947,0.004724
147.804,82.3883,0.004724
147.834,82.3822,0.004724
147.865,82.3760,0.004724
147.896,82.3699,0.004837
147.927,82.3637,0.004837
147.957,82.3576,0.004837
147.988,82.3514,0.004837
148.019,82.3452,0.004837
148.051,82.3389,0.004837
148.082,82.3327,0.004837
148.114,82.3263,0.004837
148.144,82.3203,0.004912
148.175,82.3140,0.004912
148.205,82.3080,0.004912
148.236,82.3017,0.004912
148.267,82.2955,0.004912
148.299,82.2894,0.004912
148.329,82.2832,0.004912
148.361,82.2768,0.004912
148.392,82.2705,0.004987
148.424,82.2644,0.004987
148.455,82.2580,0.004987
148.487,82.2517,0.004987
148.519,82.2454,0.004987
148.550,82.2391,0.004987
148.581,82.2329,0.004987
148.613,82.2264,0.005063
148.644,82.2203,0.005063
148.675,82.2141,0.005063
148.705,82.2082,0.005063
148.737,82.2017,0.005063
148.769,82.1953,0.005063
148.799,82.1892,0.005063
148.830,82.1830,0.005063
148.862,82.1768,0.005166
148.893,82.1705,0.005166
148.925,82.1642,0.005166
148.956,82.1580,0.005166
148.987,82.1518,0.005166
149.017,82.1457,0.005166
149.048,82.1395,0.005166
149.079,82.1333,0.005166
149.110,82.1272,0.005222
149.141,82.1209,0.005222
149.172,82.1146,0.005222
149.203,82.1085,0.005222
149.234,82.1022,0.005222
149.265,82.0961,0.005222
149.297,82.0896,0.005222
149.328,82.0834,0.005222
149.359,82.0772,0.005222
149.390,82.0710,0.005232
149.421,82.0647,0.005232
149.453,82.0585,0.005232
149.483,82.0523,0.005232
149.514,82.0463,0.005232
149.546,82.0398,0.005232
149.577,82.0336,0.005232
149.609,82.0271,0.005326
149.639,82.0213,0.005326
149.671,82.0150,0.005326
149.703,82.0086,0.005326
149.733,82.0026,0.005326
149.764,81.9961,0.005326
149.795,81.9902,0.005326
149.826,81.9840,0.005326
149.856,81.9779,0.005326
149.887,81.9717,0.005392
149.918,81.9656,0.005392
149.949,81.9593,0.005392
149.980,81.9531,0.005392
150.011,81.9469,0.005392
150.042,81.9407,0.005392
150.073,81.9343,0.005392
150.104,81.9283,0.005401
150.135,81.9222,0.005401
150.165,81.9161,0.005401
150.196,81.9099,0.005401
150.227,81.9035,0.005401
150.258,81.8974,0.005401
150.289,81.8913,0.005401
150.321,81.8849,0.005401
150.351,81.8789,0.005655
150.382,81.8726,0.005655
150.413,81.8665,0.005655
150.443,81.8603,0.005655
150.474,81.8541,0.005655
150.505,81.8480,0.005655
150.537,81.8417,0.005655
150.568,81.8354,0.005655
150.598,81.8295,0.005900
150.629,81.8231,0.005900
150.659,81.8173,0.005900
150.691,81.8109,0.005900
150.722,81.8046,0.005900
150.753,81.7984,0.005900
150.784,81.7922,0.005900
150.815,81.7860,0.005900
150.847,81.7797,0.005900
150.878,81.7736,0.005900
150.908,81.7673,0.005900
150.940,81.7610,0.005900
150.972,81.7546,0.005900
151.003,81.7486,0.005900
151.034,81.7424,0.005900
151.064,81.7363,0.005900
151.096,81.7300,0.005891
151.127,81.7238,0.005891
151.158,81.7176,0.005891
151.188,81.7115,0.005891
151.219,81.7052,0.005891
151.251,81.6988,0.005891
151.281,81.6929,0.005891
151.313,81.6867,0.005891
151.344,81.6803,0.005891
151.375,81.6741,0.006003
151.407,81.6677,0.006003
151.438,81.6616,0.006003
151.468,81.6554,0.006003
151.499,81.6492,0.006003
151.531,81.6429,0.006003
151.561,81.6369,0.006003
151.592,81.6307,0.006003
151.623,81.6245,0.006013
151.654,81.6182,0.006013
151.685,81.6121,0.006013
151.716,81.6059,0.006013
151.747,81.5997,0.006013
151.779,81.5933,0.006013
151.810,81.5870,0.006013
151.841,81.5810,0.006013
151.871,81.5748,0.006229
151.902,81.5686,0.006229
151.933,81.5625,0.006229
151.964,81.5562,0.006229
151.995,81.5502,0.006229
152.026,81.5438,0.006229
152.057,81.5375,0.006229
152.088,81.5314,0.006229
152.118,81.5254,0.006229
152.150,81.5191,0.006248
152.181,81.5129,0.006248
152.212,81.5066,0.006248
152.243,81.5005,0.006248
152.274,81.4943,0.006248
152.306,81.4880,0.006248
152.336,81.4819,0.006248
152.366,81.4758,0.006286
152.398,81.4695,0.006286
152.429,81.4632,0.006286
152.461,81.4570,0.006286
152.492,81.4508,0.006286
152.523,81.4445,0.006286
152.553,81.4385,0.006286
152.584,81.4323,0.006286
152.615,81.4261,0.006286
152.647,81.4197,0.006512
152.677,81.4136,0.006512
152.708,81.4075,0.006512
152.739,81.4014,0.006512
152.769,81.3952,0.006512
152.801,81.3889,0.006512
152.832,81.3827,0.006512
152.863,81.3765,0.006512
152.895,81.3700,0.006512
152.926,81.3640,0.006512
152.957,81.3578,0.006512
152.988,81.3514,0.006512
153.019,81.3452,0.006512
153.050,81.3390,0.006512
153.081,81.3330,0.006512
153.112,81.3266,0.006625
153.142,81.3207,0.006625
153.174,81.3142,0.006625
153.205,81.3080,0.006625
153.236,81.3020,0.006625
153.267,81.2959,0.006625
153.298,81.2895,0.006625
153.329,81.2833,0.006625
153.360,81.2771,0.006700
153.391,81.2709,0.006700
153.423,81.2645,0.006700
153.454,81.2583,0.006700
153.485,81.2521,0.006700
153.517,81.2456,0.006700
153.547,81.2398,0.006700
153.577,81.2336,0.006700
153.609,81.2274,0.006775
153.640,81.2212,0.006775
153.671,81.2148,0.006775
153.702,81.2087,0.006775
153.733,81.2024,0.006775
153.764,81.1962,0.006775
153.795,81.1900,0.006775
153.825,81.1840,0.006775
153.856,81.1778,0.006766
153.888,81.1716,0.006766
153.919,81.1652,0.006766
153.951,81.1588,0.006766
153.983,81.1524,0.006766
154.015,81.1462,0.006766
154.046,81.1399,0.006766
154.078,81.1335,0.006766
154.109,81.1272,0.006879
154.140,81.1211,0.006879
154.171,81.1149,0.006879
154.202,81.1087,0.006879
154.233,81.1025,0.006879
154.265,81.0961,0.006879
154.295,81.0901,0.006879
154.326,81.0839,0.006879
154.357,81.0778,0.006879
154.388,81.0714,0.007001
154.419,81.0653,0.007001
154.451,81.0589,0.007001
154.482,81.0528,0.007001
154.512,81.0466,0.007001
154.544,81.0404,0.007001
154.574,81.0343,0.007001
154.605,81.0282,0.007010
154.637,81.0218,0.007010
154.669,81.0155,0.007010
154.700,81.0090,0.007010
154.730,81.0029,0.007010
154.761,80.9969,0.007010
154.792,80.9907,0.007010
154.823,80.9845,0.007010
154.854,80.9783,0.007010
154.886,80.9719,0.007086
154.917,80.9657,0.007086
154.948,80.9595,0.007086
154.978,80.9534,0.007086
155.010,80.9471,0.007086
155.041,80.9408,0.007086
155.073,80.9345,0.007086
155.103,80.9286,0.007086
155.133,80.9223,0.007086
155.166,80.9160,0.007086
155.197,80.9095,0.007086
155.228,80.9035,0.007086
155.259,80.8973,0.007086
155.291,80.8909,0.007086
155.322,80.8849,0.007086
155.352,80.8787,0.007133
155.383,80.8725,0.007133
155.414,80.8659,0.007133
155.446,80.8599,0.007133
155.478,80.8536,0.007133
155.509,80.8474,0.007133
155.540,80.8412,0.007133
155.571,80.8349,0.007133
155.603,80.8286,0.007161
155.634,80.8224,0.007161
155.663,80.8165,0.007161
155.694,80.8102,0.007161
155.725,80.8042,0.007161
155.756,80.7980,0.007161
155.787,80.7918,0.007161
155.817,80.7856,0.007161
155.848,80.7794,0.007227
155.879,80.7734,0.007227
155.910,80.7670,0.007227
155.941,80.7608,0.007227
155.972,80.7545,0.007227
156.002,80.7486,0.007227
156.034,80.7422,0.007227
156.066,80.7360,0.007227
156.098,80.7295,0.007227
156.129,80.7234,0.007293
156.159,80.7172,0.007293
156.190,80.7111,0.007293
156.222,80.7048,0.007293
156.253,80.6986,0.007293
156.284,80.6924,0.007293
156.315,80.6859,0.007293
156.346,80.6800,0.007293
156.377,80.6736,0.007330
156.409,80.6673,0.007330
156.440,80.6612,0.007330
156.471,80.6549,0.007330
156.503,80.6486,0.007330
156.534,80.6424,0.007330
156.565,80.6363,0.007330
156.596,80.6300,0.007330
156.626,80.6239,0.007406
156.657,80.6176,0.007406
156.689,80.6114,0.007406
156.720,80.6052,0.007406
156.751,80.5990,0.007406
156.782,80.5927,0.007406
156.814,80.5865,0.007406
156.845,80.5800,0.007406
156.875,80.5741,0.007415
156.905,80.5680,0.007415
156.937,80.5618,0.007415
156.968,80.5556,0.007415
156.999,80.5493,0.007415
157.029,80.5433,0.007415
157.060,80.5370,0.007415
157.091,80.5308,0.007415
157.123,80.5246,0.007471
157.154,80.5185,0.007471
157.184,80.5122,0.007471
157.216,80.5060,0.007471
157.247,80.4996,0.007471
157.278,80.4934,0.007471
157.309,80.4872,0.007471
157.340,80.4813,0.007443
157.370,80.4750,0.007443
157.401,80.4688,0.007443
157.433,80.4626,0.007443
157.464,80.4565,0.007443
157.495,80.4502,0.007443
157.526,80.4440,0.007443
157.557,80.4378,0.007443
157.588,80.4316,0.007443
157.619,80.4254,0.007443
157.649,80.4193,0.007443
157.681,80.4130,0.007443
157.712,80.4068,0.007443
157.743,80.4004,0.007443
157.775,80.3942,0.007443
157.806,80.3879,0.007443
157.837,80.3817,0.007443
157.868,80.3755,0.007490
157.900,80.3690,0.007490
157.931,80.3627,0.007490
157.962,80.3568,0.007490
157.993,80.3506,0.007490
158.024,80.3445,0.007490
158.054,80.3383,0.007490
158.084,80.3321,0.007500
158.115,80.3261,0.007500
158.147,80.3197,0.007500
158.177,80.3136,0.007500
158.209,80.3074,0.007500
158.239,80.3012,0.007500
158.271,80.2950,0.007500
158.301,80.2889,0.007500
158.333,80.2826,0.007500
158.364,80.2763,0.009099
158.396,80.2701,0.009099
158.427,80.2639,0.009099
158.457,80.2578,0.009099
158.488,80.2515,0.009099
158.519,80.2453,0.009099
158.551,80.2391,0.009099
158.581,80.2330,0.009099
158.611,80.2269,0.009099
158.643,80.2205,0.008685
158.673,80.2145,0.008685
158.705,80.2081,0.008685
158.737,80.2019,0.008685
158.767,80.1958,0.008685
158.798,80.1895,0.008685
158.829,80.1834,0.008685
158.860,80.1772,0.008685
158.890,80.1711,0.006512
158.922,80.1648,0.006512
158.952,80.1587,0.006512
158.984,80.1524,0.006512
159.014,80.1464,0.006512
159.045,80.1401,0.006512
159.076,80.1339,0.006512
159.107,80.1277,0.006512
159.138,80.1215,0.007104
159.170,80.1152,0.007104
159.201,80.1088,0.007104
159.233,80.1026,0.007104
159.263,80.0962,0.007104
159.294,80.0902,0.007104
159.324,80.0842,0.007104
159.355,80.0782,0.007104
159.386,80.0720,0.007782
159.417,80.0657,0.007782
159.447,80.0597,0.007782
159.478,80.0535,0.007782
159.509,80.0475,0.007782
159.540,80.0413,0.007782
159.571,80.0351,0.007782
159.602,80.0287,0.007782
159.632,80.0227,0.007697
159.664,80.0164,0.007697
159.694,80.0101,0.007697
159.726,80.0039,0.007697
159.756,79.9977,0.007697
159.788,79.9916,0.007697
159.819,79.9853,0.007697
159.850,79.9790,0.007697
159.882,79.9728,0.007481
159.912,79.9668,0.007481
159.943,79.9606,0.007481
159.974,79.9544,0.007481
160.004,79.9484,0.007481
160.036,79.9420,0.007481
160.067,79.9358,0.007481
160.098,79.9296,0.007481
160.129,79.9234,0.007274
160.160,79.9172,0.007274
160.191,79.9112,0.007274
160.222,79.9047,0.007274
160.253,79.8986,0.007274
160.284,79.8923,0.007274
160.315,79.8861,0.007274
160.347,79.8798,0.007274
160.378,79.8737,0.007264
160.408,79.8675,0.007264
160.439,79.8613,0.007264
160.470,79.8552,0.007264
160.500,79.8490,0.007264
160.531,79.8429,0.007264
160.562,79.8366,0.007264
160.594,79.8304,0.007264
160.624,79.8242,0.007189
160.655,79.8181,0.007189
160.686,79.8119,0.007189
160.718,79.8056,0.007189
160.748,79.7995,0.007189
160.780,79.7932,0.007189
160.810,79.7871,0.007189
160.841,79.7809,0.007123
160.873,79.7746,0.007123
160.904,79.7684,0.007123
160.936,79.7621,0.007123
160.966,79.7559,0.007123
160.997,79.7498,0.007123
161.028,79.7436,0.007123
161.059,79.7374,0.007123
161.091,79.7311,0.007123
161.122,79.7247,0.006935
161.153,79.7185,0.006935
161.185,79.7122,0.006935
161.216,79.7060,0.006935
161.247,79.6997,0.006935
161.278,79.6935,0.006935
161.309,79.6872,0.006935
161.340,79.6812,0.006935
161.371,79.6749,0.006709
161.402,79.6689,0.006709
161.433,79.6626,0.006709
161.464,79.6569,0.006709
161.495,79.6521,0.006709
161.526,79.6480,0.006709
161.557,79.6446,0.006709
161.589,79.6419,0.006709
161.619,79.6400,0.006380
161.650,79.6388,0.006380
161.681,79.6383,0.006380
161.712,79.6383,0.006380
161.743,79.6383,0.006380
161.775,79.6383,0.006380
161.806,79.6383,0.006380
161.838,79.6387,0.006380
161.869,79.6398,0.006060
161.901,79.6418,0.006060
161.931,79.6443,0.006060
161.962,79.6476,0.006060
161.993,79.6516,0.006060
162.024,79.6564,0.006060
162.055,79.6620,0.006060
162.086,79.6681,0.006060
162.118,79.6745,0.005768
162.149,79.6806,0.005768
162.180,79.6869,0.005768
162.211,79.6930,0.005768
162.243,79.6993,0.005768
162.272,79.7054,0.005768
162.304,79.7116,0.005768
162.335,79.7178,0.005768
162.366,79.7241,0.005637
162.397,79.7301,0.005637
162.429,79.7365,0.005637
162.459,79.7426,0.005637
162.490,79.7488,0.005637
162.521,79.7553,0.005637
162.553,79.7612,0.005637
162.584,79.7675,0.005740
162.615,79.7739,0.005740
162.646,79.7799,0.005740
162.677,79.7863,0.005740
162.708,79.7925,0.005740
162.740,79.7989,0.005740
162.771,79.8051,0.005740
162.802,79.8114,0.005740
162.834,79.8176,0.005740
162.864,79.8238,0.005872
162.895,79.8298,0.005872
162.926,79.8361,0.005872
162.958,79.8424,0.005872
162.989,79.8488,0.005872
163.021,79.8550,0.005872
163.052,79.8612,0.005872
163.083,79.8675,0.005872
163.114,79.8737,0.006145
163.145,79.8799,0.006145
163.176,79.8860,0.006145
163.206,79.8922,0.006145
163.237,79.8981,0.006145
163.268,79.9046,0.006145
163.299,79.9105,0.006145
163.331,79.9170,0.006145
163.361,79.9232,0.006380
163.392,79.9293,0.006380
163.423,79.9353,0.006380
163.454,79.9417,0.006380
163.485,79.9479,0.006380
163.518,79.9544,0.006380
163.548,79.9605,0.006380
163.579,79.9666,0.006380
163.610,79.9728,0.006380
163.641,79.9792,0.006380
163.672,79.9852,0.006643
163.703,79.9914,0.006643
163.734,79.9976,0.006643
163.765,80.0038,0.006643
163.796,80.0101,0.006643
163.827,80.0162,0.006643
163.858,80.0228,0.006643
163.889,80.0285,0.006982
163.920,80.0348,0.006982
163.951,80.0409,0.006982
163.982,80.0472,0.006982
164.013,80.0535,0.006982
164.045,80.0599,0.006982
164.076,80.0659,0.006982
164.107,80.0721,0.006982
164.137,80.0782,0.007189
164.168,80.0844,0.007189
164.199,80.0906,0.007189
164.230,80.0968,0.007189
164.261,80.1030,0.007189
164.292,80.1091,0.007189
164.323,80.1153,0.007189
164.354,80.1217,0.007189
164.385,80.1278,0.007396
164.417,80.1340,0.007396
164.448,80.1403,0.007396
164.479,80.1465,0.007396
164.510,80.1529,0.007396
164.541,80.1592,0.007396
164.573,80.1653,0.007396
164.604,80.1716,0.007396
164.635,80.1778,0.007453
164.666,80.1840,0.007453
164.699,80.1906,0.007453
164.730,80.1968,0.007453
164.760,80.2030,0.007453
164.791,80.2091,0.007453
164.821,80.2150,0.007453
164.852,80.2212,0.007453
164.882,80.2273,0.007387
164.913,80.2334,0.007387
164.944,80.2396,0.007387
164.975,80.2458,0.007387
165.006,80.2520,0.007387
165.037,80.2582,0.007387
165.067,80.2642,0.007387
165.098,80.2704,0.007387
165.130,80.2768,0.007434
165.162,80.2831,0.007434
165.192,80.2893,0.007434
165.223,80.2954,0.007434
165.254,80.3015,0.007434
165.285,80.3077,0.007434
165.316,80.3140,0.007434
165.347,80.3202,0.007434
165.378,80.3264,0.007434
165.409,80.3326,0.007471
165.441,80.3389,0.007471
165.471,80.3451,0.007471
165.503,80.3513,0.007471
165.534,80.3575,0.007471
165.565,80.3637,0.007471
165.596,80.3699,0.007471
165.628,80.3762,0.007434
165.658,80.3824,0.007434
165.688,80.3883,0.007434
165.718,80.3943,0.007434
165.749,80.4007,0.007434
165.780,80.4069,0.007434
165.812,80.4131,0.007434
165.843,80.4194,0.007434
165.874,80.4255,0.007434
165.905,80.4317,0.007434
165.935,80.4379,0.007434
165.967,80.4441,0.007434
165.997,80.4502,0.007434
166.028,80.4564,0.007434
166.060,80.4627,0.007434
166.090,80.4689,0.007434
166.122,80.4752,0.007462
166.153,80.4814,0.007462
166.184,80.4876,0.007462
166.216,80.4939,0.007462
166.247,80.5000,0.007462
166.277,80.5063,0.007462
166.309,80.5125,0.007462
166.340,80.5189,0.007462
166.371,80.5251,0.007434
166.402,80.5313,0.007434
166.433,80.5376,0.007434
166.464,80.5435,0.007434
166.494,80.5496,0.007434
166.525,80.5557,0.007434
166.556,80.5620,0.007434
166.587,80.5681,0.007434
166.618,80.5743,0.007396
166.649,80.5806,0.007396
166.680,80.5870,0.007396
166.712,80.5930,0.007396
166.743,80.5994,0.007396
166.775,80.6057,0.007396
166.806,80.6120,0.007396
166.837,80.6183,0.007396
166.868,80.6243,0.007406
166.899,80.6306,0.007406
166.931,80.6369,0.007406
166.962,80.6431,0.007406
166.993,80.6493,0.007406
167.024,80.6555,0.007406
167.054,80.6616,0.007406
167.086,80.6679,0.007406
167.117,80.6741,0.007396
167.148,80.6803,0.007396
167.178,80.6864,0.007396
167.210,80.6929,0.007396
167.242,80.6991,0.007396
167.273,80.7054,0.007396
167.305,80.7117,0.007396
167.336,80.7180,0.007396
167.367,80.7243,0.007377
167.398,80.7305,0.007377
167.431,80.7370,0.007377
167.461,80.7430,0.007377
167.492,80.7491,0.007377
167.523,80.7555,0.007377
167.553,80.7613,0.007377
167.584,80.7677,0.007377
167.616,80.7741,0.007293
167.646,80.7799,0.007293
167.676,80.7860,0.007293
167.708,80.7925,0.007293
167.740,80.7988,0.007293
167.769,80.8045,0.007293
167.800,80.8107,0.007293
167.832,80.8171,0.007293
167.862,80.8233,0.007283
167.893,80.8294,0.007283
167.924,80.8357,0.007283
167.955,80.8417,0.007283
167.986,80.8480,0.007283
168.017,80.8542,0.007283
168.048,80.8604,0.007283
168.079,80.8666,0.007283
168.110,80.8728,0.007293
168.141,80.8792,0.007293
168.173,80.8852,0.007293
168.204,80.8917,0.007293
168.235,80.8978,0.007293
168.266,80.9041,0.007293
168.297,80.9100,0.007293
168.329,80.9166,0.007293
168.360,80.9228,0.007264
168.392,80.9291,0.007264
168.423,80.9355,0.007264
168.456,80.9422,0.007264
168.486,80.9479,0.007264
168.517,80.9542,0.007264
168.548,80.9603,0.007264
168.579,80.9666,0.007264
168.610,80.9728,0.007227
168.641,80.9789,0.007227
168.672,80.9852,0.007227
168.703,80.9913,0.007227
168.735,80.9976,0.007227
168.766,81.0039,0.007227
168.796,81.0100,0.007227
168.827,81.0162,0.007227
168.858,81.0223,0.007123
168.889,81.0286,0.007123
168.920,81.0348,0.007123
168.952,81.0411,0.007123
168.983,81.0475,0.007123
169.013,81.0534,0.007123
169.044,81.0596,0.007123
169.075,81.0658,0.007123
169.106,81.0720,0.007104
169.138,81.0783,0.007104
169.169,81.0845,0.007104
169.201,81.0909,0.007104
169.232,81.0971,0.007104
169.262,81.1033,0.007104
169.294,81.1095,0.007104
169.325,81.1157,0.007104
169.356,81.1220,0.007020
169.387,81.1281,0.007020
169.418,81.1343,0.007020
169.449,81.1405,0.007020
169.480,81.1468,0.007020
169.511,81.1530,0.007020
169.543,81.1593,0.007020
169.573,81.1655,0.007020
169.605,81.1717,0.006944
169.636,81.1781,0.006944
169.668,81.1843,0.006944
169.698,81.1905,0.006944
169.729,81.1965,0.006944
169.760,81.2027,0.006944
169.790,81.2089,0.006944
169.821,81.2149,0.006944
169.852,81.2212,0.006935
169.882,81.2273,0.006935
169.914,81.2336,0.006935
169.944,81.2396,0.006935
169.975,81.2459,0.006935
170.006,81.2520,0.006935
170.037,81.2580,0.006935
170.068,81.2642,0.006935
170.100,81.2707,0.006869
170.131,81.2770,0.006869
170.162,81.2832,0.006869
170.192,81.2891,0.006869
170.223,81.2953,0.006869
170.254,81.3016,0.006869
170.286,81.3080,0.006869
170.316,81.3139,0.006869
170.347,81.3201,0.006869
170.379,81.3264,0.006690
170.410,81.3327,0.006690
170.441,81.3389,0.006690
170.473,81.3454,0.006690
170.504,81.3514,0.006690
170.535,81.3579,0.006690
170.567,81.3641,0.006690
170.598,81.3704,0.006690
170.630,81.3767,0.006615
170.662,81.3832,0.006615
170.694,81.3894,0.006615
170.725,81.3958,0.006615
170.756,81.4019,0.006615
170.787,81.4081,0.006615
170.819,81.4144,0.006615
170.850,81.4209,0.006615
170.881,81.4271,0.006606
170.912,81.4332,0.006606
170.944,81.4396,0.006606
170.975,81.4457,0.006606
171.006,81.4520,0.006606
171.037,81.4581,0.006606
171.067,81.4642,0.006606
171.098,81.4703,0.006606
171.129,81.4766,0.006502
171.160,81.4829,0.006502
171.191,81.4890,0.006502
171.222,81.4951,0.006502
171.253,81.5013,0.006502
171.284,81.5076,0.006502
171.315,81.5138,0.006502
171.345,81.5199,0.006502
171.376,81.5262,0.006436
171.406,81.5321,0.006436
171.437,81.5382,0.006436
171.469,81.5444,0.006436
171.499,81.5505,0.006436
171.530,81.5568,0.006436
171.561,81.5629,0.006436
171.593,81.5693,0.006436
171.625,81.5757,0.006370
171.656,81.5819,0.006370
171.686,81.5881,0.006370
171.716,81.5939,0.006370
171.748,81.6002,0.006370
171.778,81.6064,0.006370
171.810,81.6126,0.006370
171.841,81.6190,0.006370
171.872,81.6250,0.006314
171.903,81.6314,0.006314
171.933,81.6374,0.006314
171.965,81.6439,0.006314
171.994,81.6496,0.006314
172.025,81.6558,0.006314
172.056,81.6619,0.006314
172.087,81.6681,0.006314
172.118,81.6743,0.006229
172.149,81.6806,0.006229
172.180,81.6868,0.006229
172.211,81.6930,0.006229
172.243,81.6993,0.006229
172.274,81.7056,0.006229
172.306,81.7121,0.006229
172.338,81.7183,0.006229
172.369,81.7245,0.006098
172.401,81.7309,0.006098
172.432,81.7372,0.006098
172.464,81.7435,0.006098
172.494,81.7494,0.006098
172.524,81.7556,0.006098
172.555,81.7617,0.006098
172.587,81.7682,0.006098
172.617,81.7742,0.006013
172.649,81.7806,0.006013
172.679,81.7866,0.006013
172.712,81.7932,0.006013
172.744,81.7994,0.006013
172.775,81.8057,0.006013
172.806,81.8119,0.006013
172.837,81.8183,0.006013
172.867,81.8242,0.005862
172.898,81.8304,0.005862
172.929,81.8365,0.005862
172.960,81.8428,0.005862
172.989,81.8488,0.005862
173.020,81.8547,0.005862
173.051,81.8610,0.005862
173.083,81.8673,0.005862
173.114,81.8737,0.005862
173.145,81.8798,0.005749
173.177,81.8861,0.005749
173.207,81.8922,0.005749
173.238,81.8985,0.005749
173.270,81.9047,0.005749
173.301,81.9112,0.005749
173.332,81.9171,0.005749
173.364,81.9238,0.005749
173.394,81.9296,0.005674
173.425,81.9357,0.005674
173.458,81.9423,0.005674
173.488,81.9482,0.005674
173.519,81.9547,0.005674
173.550,81.9608,0.005674
173.581,81.9671,0.005674
173.613,81.9734,0.005571
173.643,81.9794,0.005571
173.675,81.9857,0.005571
173.705,81.9918,0.005571
173.737,81.9980,0.005571
173.768,82.0043,0.005571
173.799,82.0105,0.005571
173.832,82.0171,0.005571
173.861,82.0229,0.005524
173.892,82.0291,0.005524
173.923,82.0354,0.005524
173.955,82.0416,0.005524
173.985,82.0477,0.005524
174.015,82.0538,0.005524
174.046,82.0600,0.005524
174.078,82.0664,0.005524
174.108,82.0724,0.005411
174.140,82.0788,0.005411
174.171,82.0849,0.005411
174.202,82.0911,0.005411
174.233,82.0972,0.005411
174.265,82.1036,0.005411
174.296,82.1098,0.005411
174.327,82.1160,0.005411
174.358,82.1224,0.005288
174.390,82.1287,0.005288
174.421,82.1350,0.005288
174.453,82.1412,0.005288
174.484,82.1475,0.005288
174.515,82.1536,0.005288
174.546,82.1599,0.005288
174.577,82.1661,0.005288
174.609,82.1725,0.005288
174.639,82.1788,0.005288
174.671,82.1849,0.005241
174.701,82.1910,0.005241
174.732,82.1970,0.005241
174.764,82.2035,0.005241
174.794,82.2096,0.005241
174.826,82.2160,0.005241
174.857,82.2221,0.005241
174.888,82.2285,0.005157
174.919,82.2346,0.005157
174.950,82.2406,0.005157
174.981,82.2469,0.005157
175.012,82.2531,0.005157
175.043,82.2594,0.005157
175.074,82.2655,0.005157
175.105,82.2717,0.005157
175.136,82.2779,0.005044
175.168,82.2842,0.005044
175.199,82.2904,0.005044
175.229,82.2966,0.005044
175.260,82.3028,0.005044
175.290,82.3087,0.005044
175.321,82.3149,0.005044
175.353,82.3212,0.005044
175.383,82.3274,0.004893
175.415,82.3338,0.004893
175.447,82.3400,0.004893
175.479,82.3466,0.004893
175.509,82.3524,0.004893
175.540,82.3586,0.004893
175.571,82.3651,0.004893
175.602,82.3712,0.004893
175.634,82.3775,0.004827
175.665,82.3837,0.004827
175.696,82.3899,0.004827
175.727,82.3962,0.004827
175.758,82.4024,0.004827
175.790,82.4087,0.004827
175.820,82.4147,0.004827
175.852,82.4213,0.004827
175.883,82.4273,0.004714
175.914,82.4335,0.004714
175.944,82.4396,0.004714
175.975,82.4457,0.004714
176.007,82.4520,0.004714
176.038,82.4583,0.004714
176.069,82.4645,0.004714
176.102,82.4710,0.004545
176.132,82.4771,0.004545
176.163,82.4835,0.004545
176.195,82.4898,0.004545
176.226,82.4959,0.004545
176.258,82.5024,0.004545
176.289,82.5086,0.004545
176.320,82.5147,0.004545
176.351,82.5210,0.004536
176.382,82.5271,0.004536
176.413,82.5334,0.004536
176.444,82.5393,0.004536
176.475,82.5458,0.004536
176.506,82.5519,0.004536
176.538,82.5583,0.004536
176.569,82.5646,0.004536
176.599,82.5707,0.004536
176.630,82.5767,0.004536
176.662,82.5832,0.004536
176.693,82.5893,0.004536
176.724,82.5954,0.004536
176.753,82.6013,0.004536
176.785,82.6078,0.004536
176.816,82.6139,0.004536
176.848,82.6196,0.004536
176.879,82.6245,0.004545
176.910,82.6286,0.004545
176.940,82.6319,0.004545
176.971,82.6346,0.004545
177.002,82.6366,0.004545
177.033,82.6378,0.004545
177.064,82.6383,0.004545
177.094,82.6383,0.004545
177.125,82.6383,0.004620
177.157,82.6383,0.004620
177.188,82.6383,0.004620
177.219,82.6383,0.004620
177.251,82.6383,0.004620
177.282,82.6383,0.004620
177.312,82.6383,0.004620
177.344,82.6383,0.004583
177.375,82.6383,0.004583
177.406,82.6383,0.004583
177.437,82.6383,0.004583
177.468,82.6383,0.004583
177.499,82.6383,0.004583
177.530,82.6383,0.004583
177.561,82.6383,0.004583
177.592,82.6383,0.004583
177.624,82.6383,0.004545
177.654,82.6383,0.004545
177.685,82.6383,0.004545
177.717,82.6383,0.004545
177.748,82.6383,0.004545
177.781,82.6383,0.004545
177.810,82.6383,0.004545
177.840,82.6383,0.004545
177.871,82.6383,0.004564
177.903,82.6383,0.004564
177.934,82.6383,0.004564
177.965,82.6383,0.004564
177.995,82.6383,0.004564
178.027,82.6383,0.004564
178.057,82.6383,0.004564
178.088,82.6383,0.004564
178.120,82.6383,0.004564
178.152,82.6383,0.004545
178.184,82.6383,0.004545
178.215,82.6383,0.004545
178.247,82.6383,0.004545
178.277,82.6383,0.004545
178.307,82.6383,0.004545
178.338,82.6383,0.004545
178.370,82.6383,0.004573
178.401,82.6383,0.004573
178.432,82.6383,0.004573
178.462,82.6383,0.004573
178.494,82.6383,0.004573
178.525,82.6383,0.004573
178.556,82.6383,0.004573
178.586,82.6383,0.004573
178.617,82.6383,0.004573
178.648,82.6383,0.004545
178.680,82.6383,0.004545
178.711,82.6383,0.004545
178.742,82.6383,0.004545
178.773,82.6383,0.004545
178.805,82.6383,0.004545
178.835,82.6383,0.004545
178.867,82.6383,0.004545
178.898,82.6383,0.004545
178.928,82.6383,0.004545
178.960,82.6383,0.004545
178.991,82.6383,0.004545
179.023,82.6383,0.004545
179.054,82.6383,0.004545
179.085,82.6383,0.004545
179.116,82.6383,0.004658
179.146,82.6383,0.004658
179.178,82.6383,0.004658
179.209,82.6383,0.004658
179.240,82.6383,0.004658
179.271,82.6383,0.004658
179.301,82.6383,0.004658
179.333,82.6383,0.004658
179.364,82.6383,0.004658
179.396,82.6383,0.004696
179.426,82.6383,0.004696
179.458,82.6383,0.004696
179.489,82.6383,0.004696
179.522,82.6383,0.004696
179.552,82.6383,0.004696
179.584,82.6383,0.004696
179.617,82.6383,0.004696
179.646,82.6383,0.004630
179.677,82.6383,0.004630
179.708,82.6383,0.004630
179.739,82.6383,0.004630
179.771,82.6383,0.004630
179.801,82.6383,0.004630
179.832,82.6383,0.004630
179.863,82.6383,0.004630
179.894,82.6383,0.004620
179.925,82.6383,0.004620
179.955,82.6383,0.004620
179.987,82.6383,0.004620
180.017,82.6383,0.004620
180.048,82.6383,0.004620
180.080,82.6383,0.004620
180.109,82.6383,0.004677
180.142,82.6383,0.004677
180.173,82.6383,0.004677
180.204,82.6383,0.004677
180.235,82.6383,0.004677
180.266,82.6383,0.004677
180.298,82.6383,0.004677
180.328,82.6383,0.004677
180.359,82.6383,0.004677
180.391,82.6383,0.004639
180.422,82.6383,0.004639
180.453,82.6383,0.004639
180.484,82.6383,0.004639
180.515,82.6383,0.004639
180.545,82.6383,0.004639
180.577,82.6383,0.004639
180.607,82.6383,0.004611
180.638,82.6383,0.004611
180.670,82.6383,0.004611
180.700,82.6383,0.004611
180.731,82.6383,0.004611
180.763,82.6383,0.004611
180.793,82.6383,0.004611
180.824,82.6383,0.004611
180.856,82.6383,0.004564
180.888,82.6383,0.004564
180.918,82.6383,0.004564
180.950,82.6383,0.004564
180.980,82.6383,0.004564
181.011,82.6383,0.004564
181.042,82.6383,0.004564
181.072,82.6383,0.004564
181.103,82.6383,0.004554
181.134,82.6383,0.004554
181.166,82.6383,0.004554
181.198,82.6383,0.004554
181.229,82.6383,0.004554
181.260,82.6383,0.004554
181.291,82.6383,0.004554
181.322,82.6383,0.004554
181.354,82.6383,0.004554
181.385,82.6383,0.004648
181.415,82.6383,0.004648
181.447,82.6383,0.004648
181.478,82.6383,0.004648
181.510,82.6383,0.004648
181.541,82.6383,0.004648
181.572,82.6381,0.004648
181.603,82.6372,0.004620
181.633,82.6355,0.004620
181.663,82.6332,0.004620
181.695,82.6301,0.004620
181.726,82.6263,0.004620
181.757,82.6218,0.004620
181.788,82.6165,0.004620
181.820,82.6104,0.004620
181.850,82.6042,0.004620
181.881,82.5981,0.004696
181.912,82.5918,0.004696
181.943,82.5856,0.004696
181.975,82.5794,0.004696
182.006,82.5732,0.004696
182.037,82.5669,0.004696
182.067,82.5608,0.004696
182.099,82.5543,0.004696
182.131,82.5481,0.004771
182.162,82.5418,0.004771
182.193,82.5357,0.004771
182.224,82.5294,0.004771
182.256,82.5231,0.004771
182.287,82.5169,0.004771
182.319,82.5104,0.004771
182.349,82.5045,0.004771
182.380,82.4983,0.004752
182.415,82.4913,0.004752
182.442,82.4860,0.004752
182.473,82.4794,0.004752
182.505,82.4734,0.004752
182.537,82.4669,0.004752
182.566,82.4611,0.004752
182.597,82.4549,0.004752
182.629,82.4485,0.004752
182.660,82.4422,0.004903
182.691,82.4360,0.004903
182.722,82.4297,0.004903
182.754,82.4234,0.004903
182.788,82.4168,0.004903
182.817,82.4108,0.004903
182.847,82.4049,0.004903
182.879,82.3986,0.004950
182.909,82.3926,0.004950
182.940,82.3862,0.004950
182.973,82.3796,0.004950
183.002,82.3739,0.004950
183.033,82.3676,0.004950
183.064,82.3615,0.004950
183.095,82.3552,0.004950
183.126,82.3491,0.004950
183.158,82.3426,0.005034
183.189,82.3366,0.005034
183.220,82.3301,0.005034
183.252,82.3238,0.005034
183.283,82.3175,0.005034
183.315,82.3114,0.005034
183.345,82.3052,0.005034
183.377,82.2990,0.005034
183.408,82.2927,0.004921
183.440,82.2863,0.004921
183.471,82.2800,0.004921
183.502,82.2739,0.004921
183.533,82.2677,0.004921
183.563,82.2616,0.004921
183.594,82.2556,0.004921
183.626,82.2491,0.004931
183.655,82.2433,0.004931
183.686,82.2371,0.004931
183.717,82.2309,0.004931
183.748,82.2247,0.004931
183.779,82.2185,0.004931
183.810,82.2123,0.004931
183.841,82.2061,0.004931
183.873,82.1998,0.004931
183.904,82.1934,0.005185
183.936,82.1871,0.005185
183.967,82.1810,0.005185
183.998,82.1747,0.005185
184.029,82.1685,0.005185
184.059,82.1626,0.005185
184.090,82.1563,0.005185
184.121,82.1500,0.005185
184.153,82.1437,0.005364
184.183,82.1376,0.005364
184.215,82.1314,0.005364
184.246,82.1251,0.005364
184.276,82.1191,0.005364
184.307,82.1128,0.005364
184.337,82.1070,0.005364
184.368,82.1008,0.005364
184.397,82.0948,0.005401
184.428,82.0888,0.005401
184.459,82.0826,0.005401
184.491,82.0761,0.005401
184.523,82.0697,0.005401
184.553,82.0637,0.005401
184.584,82.0575,0.005401
184.614,82.0513,0.005288
184.645,82.0452,0.005288
184.677,82.0389,0.005288
184.708,82.0327,0.005288
184.739,82.0264,0.005288
184.769,82.0204,0.005288
184.801,82.0142,0.005288
184.832,82.0080,0.005288
184.863,82.0018,0.005288
184.894,81.9955,0.005458
184.926,81.9892,0.005458
184.958,81.9828,0.005458
184.989,81.9765,0.005458
185.020,81.9703,0.005458
185.051,81.9641,0.005458
185.082,81.9579,0.005458
185.113,81.9516,0.005458
185.144,81.9454,0.005552
185.175,81.9392,0.005552
185.207,81.9329,0.005552
185.237,81.9268,0.005552
185.269,81.9205,0.005552
185.300,81.9143,0.005552
185.331,81.9081,0.005552
185.362,81.9020,0.005552
185.392,81.8958,0.005646
185.423,81.8897,0.005646
185.454,81.8834,0.005646
185.485,81.8774,0.005646
185.516,81.8710,0.005646
185.548,81.8646,0.005646
185.579,81.8583,0.005646
185.610,81.8524,0.005646
185.641,81.8460,0.005787
185.672,81.8400,0.005787
185.703,81.8336,0.005787
185.735,81.8273,0.005787
185.765,81.8211,0.005787
185.798,81.8148,0.005787
185.828,81.8088,0.005787
185.859,81.8026,0.005787
185.890,81.7963,0.005872
185.922,81.7900,0.005872
185.953,81.7838,0.005872
185.983,81.7776,0.005872
186.014,81.7714,0.005872
186.045,81.7653,0.005872
186.076,81.7592,0.005872
186.107,81.7529,0.005872
186.138,81.7467,0.005994
186.170,81.7404,0.005994
186.201,81.7340,0.005994
186.232,81.7280,0.005994
186.263,81.7218,0.005994
186.294,81.7156,0.005994
186.325,81.7092,0.005994
186.356,81.7030,0.005994
186.387,81.6970,0.005994
186.418,81.6906,0.006060
186.449,81.6846,0.006060
186.480,81.6784,0.006060
186.511,81.6722,0.006060
186.542,81.6658,0.006060
186.573,81.6596,0.006060
186.604,81.6533,0.006060
186.636,81.6471,0.006135
186.668,81.6407,0.006135
186.699,81.6345,0.006135
186.731,81.6280,0.006135
186.762,81.6219,0.006135
186.794,81.6155,0.006135
186.824,81.6095,0.006135
186.855,81.6033,0.006220
186.886,81.5973,0.006220
186.917,81.5908,0.006220
186.948,81.5846,0.006220
186.980,81.5784,0.006220
187.011,81.5721,0.006220
187.043,81.5657,0.006220
187.074,81.5595,0.006220
187.105,81.5533,0.006286
187.135,81.5473,0.006286
187.165,81.5413,0.006286
187.196,81.5350,0.006286
187.228,81.5288,0.006286
187.259,81.5225,0.006286
187.290,81.5161,0.006286
187.322,81.5099,0.006286
187.353,81.5039,0.006342
187.384,81.4975,0.006342
187.414,81.4912,0.006342
187.445,81.4854,0.006342
187.476,81.4792,0.006342
187.506,81.4732,0.006342
187.536,81.4672,0.006342
187.567,81.4610,0.006342
187.598,81.4547,0.006446
187.629,81.4483,0.006446
187.660,81.4423,0.006446
187.690,81.4361,0.006446
187.722,81.4299,0.006446
187.752,81.4239,0.006446
187.784,81.4174,0.006446
187.815,81.4112,0.006446
187.846,81.4050,0.006559
187.876,81.3991,0.006559
187.907,81.3927,0.006559
187.939,81.3867,0.006559
187.971,81.3801,0.006559
188.001,81.3741,0.006559
188.031,81.3681,0.006559
188.062,81.3619,0.006559
188.094,81.3554,0.006559
188.125,81.3493,0.006681
188.157,81.3429,0.006681
188.187,81.3369,0.006681
188.218,81.3307,0.006681
188.250,81.3244,0.006681
188.280,81.3183,0.006681
188.311,81.3120,0.006681
188.342,81.3059,0.006681
188.374,81.2995,0.006747
188.405,81.2934,0.006747
188.436,81.2871,0.006747
188.467,81.2810,0.006747
188.498,81.2747,0.006747
188.529,81.2683,0.006747
188.560,81.2624,0.006747
188.590,81.2563,0.006747
188.621,81.2501,0.006794
188.652,81.2439,0.006794
188.683,81.2377,0.006794
188.714,81.2315,0.006794
188.746,81.2252,0.006794
188.777,81.2190,0.006794
188.808,81.2128,0.006794
188.838,81.2066,0.006794
188.869,81.2005,0.006907
188.900,81.1943,0.006907
188.932,81.1880,0.006907
188.964,81.1816,0.006907
188.995,81.1752,0.006907
189.026,81.1690,0.006907
189.057,81.1629,0.006907
189.088,81.1567,0.006907
189.118,81.1506,0.006982
189.149,81.1444,0.006982
189.180,81.1384,0.006982
189.212,81.1320,0.006982
189.242,81.1260,0.006982
189.273,81.1198,0.006982
189.304,81.1134,0.006982
189.336,81.1071,0.006982
189.368,81.1009,0.006973
189.398,81.0946,0.006973
189.428,81.0888,0.006973
189.460,81.0823,0.006973
189.492,81.0760,0.006973
189.523,81.0697,0.006973
189.554,81.0633,0.006973
189.585,81.0573,0.006973
189.616,81.0512,0.007020
189.647,81.0450,0.007020
189.677,81.0388,0.007020
189.708,81.0327,0.007020
189.739,81.0265,0.007020
189.770,81.0204,0.007020
189.801,81.0142,0.007020
189.832,81.0080,0.007020
189.863,81.0018,0.007086
189.894,80.9955,0.007086
189.924,80.9895,0.007086
189.956,80.9832,0.007086
189.987,80.9769,0.007086
190.018,80.9708,0.007086
190.049,80.9645,0.007086
190.079,80.9585,0.007086
190.111,80.9521,0.007161
190.142,80.9459,0.007161
190.173,80.9396,0.007161
190.205,80.9334,0.007161
190.237,80.9270,0.007161
190.266,80.9212,0.007161
190.297,80.9149,0.007161
190.329,80.9087,0.007161
190.360,80.9023,0.007246
190.391,80.8961,0.007246
190.422,80.8901,0.007246
190.453,80.8836,0.007246
190.484,80.8775,0.007246
190.516,80.8712,0.007246
190.546,80.8653,0.007246
190.576,80.8591,0.007246
190.608,80.8527,0.007264
190.639,80.8467,0.007264
190.670,80.8402,0.007264
190.702,80.8340,0.007264
190.732,80.8278,0.007264
190.763,80.8217,0.007264
190.794,80.8157,0.007264
190.824,80.8093,0.007264
190.856,80.8030,0.007302
190.887,80.7971,0.007302
190.918,80.7907,0.007302
190.949,80.7845,0.007302
190.979,80.7784,0.007302
191.010,80.7721,0.007302
191.041,80.7662,0.007302
191.072,80.7600,0.007302
191.103,80.7536,0.007302
191.133,80.7477,0.007377
191.165,80.7412,0.007377
191.196,80.7352,0.007377
191.228,80.7287,0.007377
191.258,80.7225,0.007377
191.289,80.7164,0.007377
191.321,80.7101,0.007377
191.352,80.7039,0.007377
191.383,80.6978,0.006145
191.414,80.6914,0.006145
191.445,80.6853,0.006145
191.477,80.6787,0.006145
191.509,80.6727,0.006145
191.540,80.6662,0.006145
191.572,80.6600,0.006145
191.603,80.6537,0.006145
191.634,80.6476,0.006314
191.666,80.6412,0.006314
191.698,80.6348,0.006314
191.727,80.6289,0.006314
191.761,80.6222,0.006314
191.790,80.6164,0.006314
191.821,80.6103,0.006314
191.852,80.6038,0.008008
191.884,80.5976,0.008008
191.913,80.5918,0.008008
191.943,80.5857,0.008008
191.975,80.5794,0.008008
192.005,80.5733,0.008008
192.037,80.5670,0.008008
192.069,80.5607,0.008008
192.100,80.5543,0.008008
192.130,80.5484,0.007650
192.161,80.5421,0.007650
192.192,80.5360,0.007650
192.223,80.5297,0.007650
192.254,80.5236,0.007650
192.286,80.5173,0.007650
192.317,80.5108,0.007650
192.348,80.5049,0.007302
192.381,80.4982,0.007302
192.411,80.4922,0.007302
192.442,80.4860,0.007302
192.472,80.4799,0.007302
192.503,80.4736,0.007302
192.534,80.4675,0.007302
192.565,80.4612,0.007302
192.596,80.4551,0.007547
192.628,80.4487,0.007547
192.659,80.4425,0.007547
192.690,80.4364,0.007547
192.722,80.4301,0.007547
192.753,80.4239,0.007547
192.784,80.4174,0.007547
192.815,80.4115,0.007547
192.846,80.4053,0.007547
192.878,80.3988,0.007547
192.908,80.3927,0.007622
192.939,80.3864,0.007622
192.969,80.3805,0.007622
193.001,80.3741,0.007622
193.031,80.3681,0.007622
193.063,80.3616,0.007622
193.094,80.3555,0.007622
193.125,80.3492,0.007622
193.156,80.3431,0.007631
193.188,80.3367,0.007631
193.219,80.3305,0.007631
193.250,80.3243,0.007631
193.281,80.3182,0.007631
193.312,80.3120,0.007631
193.343,80.3058,0.007631
193.374,80.2995,0.007547
193.405,80.2934,0.007547
193.437,80.2869,0.007547
193.469,80.2805,0.007547
193.499,80.2747,0.007547
193.530,80.2685,0.007547
193.560,80.2624,0.007547
193.591,80.2562,0.007547
193.622,80.2500,0.007547
193.652,80.2440,0.007537
193.683,80.2378,0.007537
193.714,80.2315,0.007537
193.746,80.2252,0.007537
193.777,80.2190,0.007537
193.808,80.2128,0.007537
193.839,80.2066,0.007537
193.871,80.2003,0.007537
193.903,80.1939,0.007584
193.934,80.1875,0.007584
193.964,80.1815,0.007584
193.995,80.1752,0.007584
194.027,80.1691,0.007584
194.056,80.1632,0.007584
194.087,80.1568,0.007584
194.117,80.1509,0.007631
194.149,80.1447,0.007631
194.180,80.1382,0.007631
194.211,80.1323,0.007631
194.241,80.1261,0.007631
194.273,80.1199,0.007631
194.303,80.1137,0.007631
194.334,80.1076,0.007631
194.365,80.1014,0.007631
194.396,80.0952,0.007613
194.427,80.0889,0.007613
194.457,80.0830,0.007613
194.488,80.0766,0.007613
194.519,80.0706,0.007613
194.550,80.0644,0.007613
194.582,80.0580,0.007613
194.613,80.0517,0.007528
194.643,80.0456,0.007528
194.675,80.0394,0.007528
194.706,80.0329,0.007528
194.738,80.0269,0.007528
194.769,80.0205,0.007528
194.799,80.0146,0.007528
194.831,80.0081,0.007528
194.862,80.0021,0.007443
194.892,79.9957,0.007443
194.924,79.9895,0.007443
194.955,79.9832,0.007443
194.986,79.9773,0.007443
195.017,79.9709,0.007443
195.048,79.9647,0.007443
195.079,79.9585,0.007443
195.110,79.9520,0.007443
195.141,79.9461,0.007415
195.173,79.9398,0.007415
195.204,79.9336,0.007415
195.236,79.9273,0.007415
195.269,79.9207,0.007415
195.299,79.9146,0.007415
195.330,79.9084,0.007415
195.361,79.9021,0.007349
195.392,79.8959,0.007349
195.424,79.8896,0.007349
195.454,79.8835,0.007349
195.484,79.8775,0.007349
195.515,79.8715,0.007349
195.546,79.8653,0.007349
195.576,79.8589,0.007349
195.607,79.8530,0.007227
195.637,79.8469,0.007227
195.668,79.8406,0.007227
195.700,79.8344,0.007227
195.731,79.8282,0.007227
195.763,79.8219,0.007227
195.793,79.8158,0.007227
195.824,79.8095,0.007227
195.855,79.8034,0.007104
195.886,79.7972,0.007104
195.917,79.7911,0.007104
195.948,79.7846,0.007104
195.979,79.7783,0.007104
196.011,79.7721,0.007104
196.042,79.7660,0.007104
196.074,79.7595,0.007104
196.106,79.7531,0.006954
196.137,79.7468,0.006954
196.168,79.7407,0.006954
196.200,79.7345,0.006954
196.231,79.7282,0.006954
196.262,79.7219,0.006954
196.293,79.7156,0.006954
196.325,79.7094,0.006954
196.356,79.7032,0.006756
196.387,79.6968,0.006756
196.418,79.6908,0.006756
196.448,79.6848,0.006756
196.478,79.6786,0.006756
196.509,79.6725,0.006756
196.541,79.6661,0.006756
196.572,79.6600,0.006756
196.603,79.6537,0.006756
196.634,79.6476,0.006483
196.664,79.6415,0.006483
196.695,79.6354,0.006483
196.726,79.6292,0.006483
196.756,79.6229,0.006483
196.787,79.6170,0.006483
196.819,79.6106,0.006483
196.850,79.6053,0.006483
196.880,79.6007,0.006145
196.911,79.5970,0.006145
196.942,79.5938,0.006145
196.974,79.5912,0.006145
197.005,79.5894,0.006145
197.035,79.5884,0.006145
197.066,79.5882,0.006145
197.097,79.5882,0.006145
197.128,79.5882,0.005731
197.159,79.5882,0.005731
197.191,79.5882,0.005731
197.222,79.5882,0.005731
197.253,79.5882,0.005731
197.285,79.5882,0.005731
197.316,79.5882,0.005731
197.347,79.5882,0.005731
197.378,79.5882,0.005467
197.409,79.5882,0.005467
197.440,79.5882,0.005467
197.472,79.5882,0.005467
197.503,79.5882,0.005467
197.534,79.5883,0.005467
197.567,79.5892,0.005467
197.597,79.5907,0.005467
197.628,79.5928,0.005298
197.659,79.5958,0.005298
197.688,79.5992,0.005298
197.719,79.6035,0.005298
197.750,79.6087,0.005298
197.781,79.6145,0.005298
197.812,79.6208,0.005298
197.844,79.6270,0.005298
197.875,79.6332,0.005034
197.905,79.6393,0.005034
197.936,79.6455,0.005034
197.967,79.6517,0.005034
197.998,79.6579,0.005034
198.029,79.6640,0.005034
198.060,79.6704,0.005034
198.093,79.6769,0.005034
198.123,79.6830,0.004921
198.154,79.6890,0.004921
198.186,79.6955,0.004921
198.217,79.7016,0.004921
198.247,79.7076,0.004921
198.278,79.7141,0.004921
198.309,79.7200,0.004921
198.341,79.7265,0.004978
198.372,79.7326,0.004978
198.403,79.7389,0.004978
198.437,79.7457,0.004978
198.466,79.7515,0.004978
198.497,79.7579,0.004978
198.529,79.7641,0.004978
198.560,79.7704,0.004978
198.591,79.7765,0.004978
198.622,79.7827,0.005119
198.653,79.7889,0.005119
198.685,79.7953,0.005119
198.716,79.8015,0.005119
198.747,79.8077,0.005119
198.779,79.8140,0.005119
198.809,79.8202,0.005119
198.841,79.8264,0.005119
198.873,79.8329,0.005354
198.904,79.8391,0.005354
198.935,79.8454,0.005354
198.966,79.8515,0.005354
198.997,79.8576,0.005354
199.029,79.8640,0.005354
199.059,79.8700,0.005354
199.090,79.8764,0.005684
199.121,79.8825,0.005684
199.152,79.8887,0.005684
199.183,79.8949,0.005684
199.214,79.9010,0.005684
199.245,79.9072,0.005684
199.276,79.9135,0.005684
199.308,79.9197,0.005684
199.339,79.9260,0.005684
199.370,79.9322,0.006088
199.402,79.9386,0.006088
199.433,79.9448,0.006088
199.465,79.9512,0.006088
199.495,79.9572,0.006088
199.525,79.9634,0.006088
199.556,79.9697,0.006088
199.587,79.9756,0.006088
199.619,79.9821,0.006502
199.649,79.9880,0.006502
199.680,79.9944,0.006502
199.711,80.0006,0.006502
199.742,80.0067,0.006502
199.773,80.0129,0.006502
199.804,80.0189,0.006502
199.835,80.0253,0.006897
199.865,80.0313,0.006897
199.896,80.0375,0.006897
199.927,80.0436,0.006897
199.959,80.0499,0.006897
199.991,80.0563,0.006897
200.022,80.0626,0.006897
200.053,80.0689,0.006897
200.085,80.0754,0.006897
200.116,80.0813,0.006897
200.147,80.0876,0.007217
200.178,80.0938,0.007217
200.209,80.1000,0.007217
200.240,80.1062,0.007217
200.272,80.1126,0.007217
200.302,80.1188,0.007217
200.333,80.1247,0.007217
200.364,80.1310,0.007217
200.395,80.1371,0.007368
200.426,80.1433,0.007368
200.457,80.1497,0.007368
200.487,80.1557,0.007368
200.518,80.1619,0.007368
200.549,80.1683,0.007368
200.580,80.1742,0.007368
200.612,80.1805,0.007453
200.642,80.1867,0.007453
200.673,80.1927,0.007453
200.704,80.1990,0.007453
200.735,80.2051,0.007453
200.766,80.2114,0.007453
200.797,80.2176,0.007453
200.829,80.2241,0.007453
200.860,80.2304,0.007453
200.892,80.2366,0.007528
200.925,80.2432,0.007528
200.955,80.2491,0.007528
200.987,80.2556,0.007528
201.018,80.2618,0.007528
201.049,80.2681,0.007528
201.080,80.2742,0.007528
201.111,80.2804,0.007528
201.142,80.2866,0.007584
201.173,80.2929,0.007584
201.204,80.2991,0.007584
201.235,80.3052,0.007584
201.266,80.3115,0.007584
201.298,80.3178,0.007584
201.329,80.3240,0.007584
201.360,80.3302,0.007584
201.391,80.3366,0.007566
201.421,80.3425,0.007566
201.452,80.3486,0.007566
201.483,80.3548,0.007566
201.513,80.3609,0.007566
201.544,80.3672,0.007566
201.575,80.3731,0.007566
201.606,80.3796,0.007566
201.637,80.3857,0.007528
201.669,80.3920,0.007528
201.700,80.3982,0.007528
201.731,80.4045,0.007528
201.762,80.4106,0.007528
201.793,80.4169,0.007528
201.824,80.4230,0.007528
201.855,80.4292,0.007528
201.886,80.4354,0.007566
201.918,80.4420,0.007566
201.949,80.4481,0.007566
201.980,80.4543,0.007566
202.011,80.4605,0.007566
202.043,80.4668,0.007566
202.074,80.4730,0.007566
202.105,80.4792,0.007566
202.135,80.4853,0.007594
202.166,80.4913,0.007594
202.197,80.4975,0.007594
202.228,80.5037,0.007594
202.259,80.5102,0.007594
202.290,80.5161,0.007594
202.321,80.5223,0.007594
202.351,80.5285,0.007594
202.383,80.5347,0.007566
202.414,80.5411,0.007566
202.445,80.5473,0.007566
202.477,80.5536,0.007566
202.509,80.5599,0.007566
202.539,80.5660,0.007566
202.571,80.5724,0.007566
202.602,80.5786,0.007566
202.634,80.5851,0.007471
202.665,80.5912,0.007471
202.696,80.5974,0.007471
202.727,80.6036,0.007471
202.757,80.6098,0.007471
202.788,80.6159,0.007471
202.819,80.6221,0.007471
202.851,80.6285,0.007453
202.882,80.6347,0.007453
202.913,80.6408,0.007453
202.944,80.6471,0.007453
202.975,80.6532,0.007453
203.006,80.6596,0.007453
203.037,80.6656,0.007453
203.068,80.6719,0.007453
203.100,80.6781,0.007453
203.130,80.6846,0.007453
203.162,80.6905,0.007453
203.194,80.6972,0.007453
203.225,80.7030,0.007453
203.256,80.7094,0.007453
203.288,80.7157,0.007453
203.318,80.7219,0.007453
203.349,80.7282,0.007453
203.380,80.7342,0.007406
203.412,80.7406,0.007406
203.443,80.7467,0.007406
203.474,80.7531,0.007406
203.505,80.7591,0.007406
203.536,80.7656,0.007406
203.567,80.7716,0.007406
203.598,80.7780,0.007415
203.630,80.7842,0.007415
203.660,80.7904,0.007415
203.692,80.7966,0.007415
203.723,80.8029,0.007415
203.754,80.8090,0.007415
203.786,80.8155,0.007415
203.817,80.8216,0.007415
203.849,80.8278,0.007415
203.879,80.8340,0.007415
203.909,80.8400,0.007415
203.940,80.8462,0.007415
203.971,80.8522,0.007415
204.002,80.8587,0.007415
204.033,80.8648,0.007415
204.065,80.8712,0.007415
204.095,80.8773,0.007321
204.128,80.8837,0.007321
204.159,80.8901,0.007321
204.189,80.8959,0.007321
204.220,80.9021,0.007321
204.251,80.9084,0.007321
204.282,80.9148,0.007321
204.315,80.9212,0.007321
204.345,80.9272,0.007321
204.376,80.9334,0.007227
204.407,80.9396,0.007227
204.438,80.9456,0.007227
204.468,80.9520,0.007227
204.502,80.9587,0.007227
204.531,80.9645,0.007227
204.563,80.9707,0.007227
204.594,80.9769,0.007227
204.624,80.9830,0.007227
204.656,80.9894,0.007227
204.687,80.9956,0.007227
204.719,81.0021,0.007227
204.751,81.0083,0.007227
204.782,81.0146,0.007227
204.813,81.0208,0.007227
204.844,81.0270,0.007227
204.875,81.0332,0.007189
204.906,81.0394,0.007189
204.937,81.0456,0.007189
204.969,81.0519,0.007189
204.999,81.0580,0.007189
205.030,81.0642,0.007189
205.062,81.0706,0.007189
205.092,81.0767,0.007189
205.124,81.0829,0.007114
205.155,81.0891,0.007114
205.186,81.0953,0.007114
205.217,81.1017,0.007114
205.248,81.1077,0.007114
205.279,81.1141,0.007114
205.310,81.1201,0.007114
205.341,81.1265,0.007114
205.371,81.1325,0.007076
205.402,81.1386,0.007076
205.433,81.1447,0.007076
205.464,81.1510,0.007076
205.495,81.1571,0.007076
205.526,81.1634,0.007076
205.556,81.1694,0.007076
205.587,81.1757,0.007076
205.618,81.1818,0.006992
205.648,81.1879,0.006992
205.679,81.1939,0.006992
205.710,81.2004,0.006992
205.742,81.2066,0.006992
205.773,81.2129,0.006992
205.805,81.2192,0.006992
205.837,81.2257,0.006992
205.869,81.2320,0.006907
205.901,81.2385,0.006907
205.932,81.2445,0.006907
205.963,81.2509,0.006907
205.994,81.2569,0.006907
206.025,81.2631,0.006907
206.056,81.2695,0.006907
206.086,81.2757,0.006907
206.117,81.2817,0.006869
206.150,81.2881,0.006869
206.180,81.2943,0.006869
206.211,81.3005,0.006869
206.243,81.3068,0.006869
206.273,81.3129,0.006869
206.304,81.3191,0.006869
206.335,81.3251,0.006869
206.366,81.3315,0.006860
206.396,81.3374,0.006860
206.428,81.3439,0.006860
206.459,81.3501,0.006860
206.491,81.3564,0.006860
206.522,81.3627,0.006860
206.553,81.3688,0.006860
206.584,81.3750,0.006860
206.615,81.3812,0.006766
206.646,81.3875,0.006766
206.677,81.3936,0.006766
206.708,81.3998,0.006766
206.739,81.4060,0.006766
206.770,81.4121,0.006766
206.802,81.4185,0.006766
206.833,81.4246,0.006766
206.864,81.4311,0.006766
206.894,81.4370,0.006662
206.925,81.4432,0.006662
206.956,81.4493,0.006662
206.987,81.4556,0.006662
207.018,81.4617,0.006662
207.049,81.4680,0.006662
207.080,81.4741,0.006662
207.111,81.4804,0.006662
207.143,81.4869,0.006540
207.174,81.4929,0.006540
207.204,81.4993,0.006540
207.238,81.5057,0.006540
207.264,81.5111,0.006540
207.296,81.5174,0.006540
207.326,81.5233,0.006540
207.357,81.5298,0.006455
207.389,81.5359,0.006455
207.420,81.5422,0.006455
207.451,81.5483,0.006455
207.483,81.5547,0.006455
207.513,81.5608,0.006455
207.545,81.5672,0.006455
207.575,81.5732,0.006455
207.606,81.5794,0.006455
207.637,81.5855,0.006399
207.668,81.5918,0.006399
207.699,81.5980,0.006399
207.730,81.6042,0.006399
207.761,81.6103,0.006399
207.795,81.6171,0.006399
207.823,81.6228,0.006399
207.853,81.6290,0.006276
207.885,81.6352,0.006276
207.916,81.6415,0.006276
207.947,81.6477,0.006276
207.978,81.6539,0.006276
208.009,81.6599,0.006276
208.040,81.6662,0.006276
208.071,81.6724,0.006276
208.103,81.6789,0.006201
208.134,81.6849,0.006201
208.165,81.6913,0.006201
208.197,81.6976,0.006201
208.229,81.7042,0.006201
208.259,81.7100,0.006201
208.290,81.7162,0.006201
208.321,81.7225,0.006201
208.352,81.7286,0.006069
208.383,81.7349,0.006069
208.415,81.7411,0.006069
208.445,81.7473,0.006069
208.476,81.7533,0.006069
208.507,81.7596,0.006069
208.538,81.7657,0.006069
208.569,81.7719,0.006069
208.599,81.7780,0.006069
208.630,81.7844,0.006069
208.662,81.7905,0.006013
208.693,81.7968,0.006013
208.724,81.8030,0.006013
208.755,81.8093,0.006013
208.788,81.8157,0.006013
208.818,81.8217,0.006013
208.849,81.8279,0.005975
208.879,81.8340,0.005975
208.910,81.8402,0.005975
208.942,81.8464,0.005975
208.972,81.8525,0.005975
209.002,81.8588,0.005975
209.033,81.8649,0.005975
209.064,81.8711,0.005975
209.095,81.8772,0.005975
209.127,81.8836,0.005975
209.157,81.8896,0.005853
209.188,81.8959,0.005853
209.220,81.9021,0.005853
209.251,81.9083,0.005853
209.282,81.9146,0.005853
209.314,81.9210,0.005853
209.345,81.9274,0.005853
209.375,81.9332,0.005702
209.407,81.9396,0.005702
209.438,81.9458,0.005702
209.469,81.9521,0.005702
209.500,81.9583,0.005702
209.531,81.9642,0.005702
209.561,81.9703,0.005702
209.593,81.9766,0.005702
209.623,81.9827,0.005589
209.655,81.9893,0.005589
209.686,81.9954,0.005589
209.718,82.0017,0.005589
209.749,82.0078,0.005589
209.780,82.0142,0.005589
209.811,82.0203,0.005589
209.843,82.0267,0.005589
209.874,82.0329,0.005486
209.905,82.0391,0.005486
209.936,82.0455,0.005486
209.967,82.0515,0.005486
209.998,82.0578,0.005486
210.031,82.0643,0.005486
210.059,82.0700,0.005486
210.090,82.0762,0.005486
210.121,82.0823,0.005486
210.153,82.0889,0.005429
210.184,82.0950,0.005429
210.215,82.1012,0.005429
210.246,82.1074,0.005429
210.277,82.1138,0.005429
210.309,82.1199,0.005429
210.340,82.1262,0.005429
210.371,82.1324,0.005429
210.403,82.1389,0.005373
210.434,82.1451,0.005373
210.465,82.1513,0.005373
210.497,82.1575,0.005373
210.529,82.1640,0.005373
210.559,82.1700,0.005373
210.590,82.1762,0.005373
210.622,82.1825,0.005194
210.653,82.1887,0.005194
210.684,82.1950,0.005194
210.715,82.2012,0.005194
210.746,82.2073,0.005194
210.777,82.2135,0.005194
210.808,82.2197,0.005194
210.839,82.2259,0.005194
210.869,82.2320,0.005194
210.900,82.2381,0.005044
210.931,82.2444,0.005044
210.962,82.2505,0.005044
210.993,82.2568,0.005044
211.025,82.2633,0.005044
211.056,82.2693,0.005044
211.088,82.2757,0.005044
211.119,82.2821,0.005044
211.149,82.2881,0.004987
211.180,82.2943,0.004987
211.211,82.3003,0.004987
211.242,82.3067,0.004987
211.273,82.3127,0.004987
211.304,82.3191,0.004987
211.335,82.3250,0.004987
211.366,82.3313,0.004987
211.396,82.3374,0.004912
211.428,82.3439,0.004912
211.459,82.3500,0.004912
211.490,82.3563,0.004912
211.522,82.3625,0.004912
211.553,82.3688,0.004912
211.586,82.3753,0.004912
211.615,82.3811,0.004912
211.647,82.3878,0.004818
211.678,82.3937,0.004818
211.708,82.3999,0.004818
211.739,82.4060,0.004818
211.770,82.4121,0.004818
211.801,82.4184,0.004818
211.832,82.4245,0.004818
211.863,82.4309,0.004743
211.894,82.4370,0.004743
211.925,82.4433,0.004743
211.957,82.4495,0.004743
211.989,82.4561,0.004743
212.020,82.4621,0.004743
212.052,82.4685,0.004743
212.082,82.4746,0.004743
212.114,82.4810,0.004743
212.145,82.4870,0.004696
212.176,82.4934,0.004696
212.208,82.4998,0.004696
212.238,82.5057,0.004696
212.269,82.5122,0.004696
212.300,82.5181,0.004696
212.331,82.5245,0.004696
212.363,82.5307,0.004648
212.393,82.5369,0.004648
212.425,82.5431,0.004648
212.456,82.5493,0.004648
212.487,82.5556,0.004648
212.517,82.5615,0.004648
212.549,82.5675,0.004648
212.580,82.5727,0.004648
212.611,82.5770,0.004648
212.642,82.5806,0.004583
212.673,82.5836,0.004583
212.705,82.5858,0.004583
212.735,82.5873,0.004583
212.767,82.5881,0.004583
212.798,82.5882,0.004583
212.830,82.5882,0.004583
212.860,82.5882,0.004583
212.890,82.5882,0.004648
212.922,82.5882,0.004648
212.953,82.5882,0.004648
212.985,82.5882,0.004648
213.016,82.5882,0.004648
213.047,82.5882,0.004648
213.077,82.5882,0.004648
213.109,82.5882,0.004705
213.139,82.5882,0.004705
213.170,82.5882,0.004705
213.201,82.5882,0.004705
213.233,82.5882,0.004705
213.264,82.5882,0.004705
213.295,82.5882,0.004705
213.326,82.5882,0.004705
213.357,82.5882,0.004724
