Elapsed Time (s),Position (mm),Force (N)
-0.009,80.7112,0.002185
0.101,80.7112,0.002185
0.211,80.7112,0.002185
0.321,80.7112,0.002185
0.431,80.7112,0.002166
0.541,80.7112,0.002166
0.648,80.7112,0.002166
0.755,80.7112,0.002166
0.865,80.7112,0.002166
0.975,80.7112,0.002156
1.084,80.7112,0.002156
1.193,80.7112,0.002147
1.303,80.7112,0.002147
1.414,80.7112,0.002147
1.521,80.7112,0.002175
1.631,80.7112,0.002175
1.739,80.7112,0.002204
1.848,80.7112,0.002204
1.958,80.7112,0.002185
2.066,80.7112,0.002185
2.175,80.7112,0.002185
2.287,80.7112,0.002194
2.396,80.7112,0.002194
2.506,80.7112,0.002175
2.615,80.7112,0.002175
2.724,80.7112,0.002138
2.833,80.7112,0.002138
2.942,80.7112,0.002147
3.051,80.7112,0.002147
3.162,80.7112,0.002147
3.270,80.7112,0.002156
3.378,80.7112,0.002156
3.488,80.7112,0.002185
3.597,80.7112,0.002185
3.706,80.7112,0.002194
3.816,80.7112,0.002194
3.925,80.7112,0.002166
4.034,80.7112,0.002166
4.144,80.7074,0.002166
4.253,80.6946,0.002156
4.363,80.6739,0.002156
4.473,80.6519,0.002213
4.582,80.6300,0.002213
4.691,80.6083,0.002204
4.800,80.5862,0.002204
4.910,80.5645,0.002204
5.019,80.5426,0.002213
5.129,80.5206,0.002213
5.237,80.4990,0.002213
5.344,80.4773,0.002213
5.452,80.4560,0.002222
5.561,80.4340,0.002222
5.671,80.4122,0.002222
5.781,80.3901,0.002213
5.891,80.3682,0.002213
6.002,80.3460,0.002119
6.111,80.3243,0.002119
6.221,80.3022,0.002128
6.328,80.2807,0.002128
6.437,80.2592,0.002194
6.544,80.2375,0.002194
6.654,80.2155,0.002194
6.763,80.1939,0.002213
6.873,80.1720,0.002213
6.980,80.1503,0.002213
7.089,80.1286,0.002213
7.198,80.1067,0.002213
7.309,80.0847,0.002213
7.419,80.0627,0.002213
7.528,80.0409,0.002204
7.636,80.0192,0.002204
7.746,79.9971,0.002185
7.855,79.9755,0.002185
7.964,79.9536,0.002175
8.073,79.9319,0.002175
8.183,79.9099,0.002175
8.291,79.8882,0.002175
8.401,79.8664,0.002175
8.510,79.8444,0.002138
8.619,79.8226,0.002138
8.728,79.8009,0.002147
8.837,79.7791,0.002147
8.946,79.7572,0.002147
9.055,79.7354,0.002166
9.164,79.7136,0.002166
9.272,79.6920,0.002128
9.383,79.6699,0.002128
9.492,79.6481,0.002147
9.600,79.6264,0.002147
9.710,79.6044,0.002185
9.820,79.5825,0.002185
9.930,79.5605,0.002222
10.038,79.5390,0.002222
10.147,79.5170,0.002222
10.256,79.4953,0.002222
10.365,79.4735,0.002222
10.474,79.4516,0.002147
10.584,79.4296,0.002147
10.693,79.4079,0.002138
10.802,79.3860,0.002138
10.911,79.3643,0.002138
11.020,79.3424,0.002185
11.129,79.3206,0.002185
11.239,79.2987,0.002204
11.348,79.2770,0.002204
11.457,79.2549,0.002204
11.566,79.2332,0.002204
11.675,79.2115,0.002204
11.784,79.1896,0.002241
11.894,79.1675,0.002241
12.003,79.1458,0.002194
12.113,79.1239,0.002194
12.221,79.1024,0.002166
12.331,79.0803,0.002166
12.440,79.0584,0.002204
12.549,79.0368,0.002204
12.657,79.0150,0.002204
12.767,78.9931,0.002194
12.877,78.9711,0.002194
12.987,78.9490,0.002213
13.096,78.9273,0.002213
13.205,78.9053,0.002204
13.314,78.8837,0.002204
13.422,78.8620,0.002241
13.533,78.8398,0.002241
13.642,78.8180,0.002241
13.749,78.7967,0.002251
13.858,78.7749,0.002251
13.968,78.7528,0.002213
14.080,78.7305,0.002213
14.188,78.7089,0.002204
14.297,78.6870,0.002204
14.406,78.6652,0.002204
14.516,78.6434,0.002138
14.624,78.6216,0.002138
14.734,78.5997,0.002119
14.843,78.5779,0.002119
14.950,78.5564,0.002213
15.059,78.5346,0.002213
15.169,78.5125,0.002213
15.279,78.4907,0.002222
15.388,78.4689,0.002222
15.496,78.4473,0.002156
15.605,78.4256,0.002156
15.714,78.4035,0.002156
15.824,78.3818,0.002156
15.933,78.3597,0.002138
16.042,78.3380,0.002138
16.152,78.3158,0.002138
16.260,78.2945,0.002166
16.371,78.2724,0.002166
16.481,78.2504,0.002185
16.590,78.2287,0.002185
16.697,78.2069,0.002156
16.807,78.1851,0.002156
16.916,78.1633,0.002156
17.025,78.1416,0.002185
17.132,78.1201,0.002185
17.242,78.0979,0.002185
17.352,78.0762,0.002185
17.461,78.0543,0.002194
17.569,78.0327,0.002194
17.677,78.0110,0.002194
17.787,77.9889,0.002194
17.897,77.9671,0.002194
18.006,77.9453,0.002204
18.116,77.9232,0.002204
18.225,77.9014,0.002222
18.333,77.8800,0.002222
18.442,77.8581,0.002232
18.552,77.8359,0.002232
18.660,77.8144,0.002232
18.767,77.7931,0.002232
18.875,77.7715,0.002232
18.984,77.7497,0.002194
19.094,77.7277,0.002194
19.204,77.7058,0.002222
19.312,77.6842,0.002222
19.420,77.6684,0.002222
19.530,77.6616,0.002175
19.638,77.6612,0.002175
19.747,77.6612,0.002091
19.855,77.6612,0.002091
19.964,77.6612,0.002138
20.074,77.6612,0.002138
20.183,77.6620,0.002166
20.292,77.6702,0.002166
20.401,77.6875,0.002166
20.511,77.7095,0.002062
20.620,77.7312,0.002062
20.730,77.7533,0.002109
20.838,77.7748,0.002109
20.947,77.7966,0.002166
21.055,77.8181,0.002166
21.166,77.8403,0.002166
21.275,77.8622,0.002185
21.384,77.8841,0.002185
21.493,77.9057,0.002222
21.602,77.9278,0.002222
21.711,77.9494,0.002185
21.821,77.9713,0.002185
21.931,77.9934,0.002156
22.040,78.0151,0.002156
22.150,78.0373,0.002156
22.260,78.0592,0.002138
22.369,78.0809,0.002138
22.478,78.1030,0.002156
22.589,78.1250,0.002156
22.699,78.1470,0.002138
22.807,78.1686,0.002138
22.917,78.1906,0.002138
23.026,78.2125,0.002166
23.137,78.2347,0.002166
23.248,78.2568,0.002175
23.358,78.2788,0.002175
23.466,78.3005,0.002147
23.576,78.3225,0.002147
23.686,78.3446,0.002156
23.795,78.3663,0.002156
23.904,78.3880,0.002156
24.014,78.4101,0.002194
24.124,78.4320,0.002194
24.232,78.4536,0.002213
24.341,78.4753,0.002213
24.450,78.4972,0.002185
24.560,78.5192,0.002185
24.669,78.5411,0.002185
24.779,78.5631,0.002213
24.887,78.5847,0.002213
24.996,78.6064,0.002298
25.105,78.6281,0.002298
25.215,78.6502,0.002251
25.324,78.6720,0.002251
25.433,78.6939,0.002194
25.543,78.7159,0.002194
25.653,78.7379,0.002194
25.761,78.7595,0.002222
25.872,78.7814,0.002222
25.979,78.8031,0.002232
26.088,78.8247,0.002232
26.195,78.8464,0.002232
26.305,78.8681,0.002175
26.415,78.8902,0.002175
26.524,78.9120,0.002156
26.633,78.9338,0.002156
26.740,78.9553,0.002213
26.850,78.9774,0.002213
26.961,78.9993,0.002166
27.071,79.0213,0.002166
27.178,79.0429,0.002156
27.286,79.0644,0.002156
27.395,79.0864,0.002156
27.504,79.1079,0.002175
27.614,79.1299,0.002175
27.723,79.1518,0.002194
27.831,79.1735,0.002194
27.942,79.1957,0.002241
28.051,79.2174,0.002241
28.161,79.2393,0.002241
28.270,79.2613,0.002213
28.380,79.2831,0.002213
28.490,79.3051,0.002185
28.597,79.3266,0.002185
28.706,79.3485,0.002156
28.816,79.3704,0.002156
28.924,79.3920,0.002156
29.033,79.4138,0.002194
29.143,79.4360,0.002194
29.254,79.4580,0.002185
29.362,79.4798,0.002185
29.470,79.5013,0.002204
29.578,79.5230,0.002204
29.688,79.5447,0.002288
29.796,79.5665,0.002288
29.906,79.5883,0.002288
30.016,79.6104,0.002204
30.126,79.6323,0.002204
30.235,79.6542,0.002175
30.346,79.6763,0.002175
30.454,79.6981,0.002241
30.564,79.7199,0.002241
30.674,79.7420,0.002232
30.781,79.7633,0.002232
30.891,79.7855,0.002232
31.002,79.8076,0.002213
31.111,79.8294,0.002213
31.219,79.8511,0.002213
31.328,79.8727,0.002213
31.438,79.8948,0.002232
31.546,79.9164,0.002232
31.656,79.9384,0.002232
31.765,79.9601,0.002204
31.872,79.9816,0.002204
31.982,80.0036,0.002204
32.091,80.0253,0.002204
32.200,80.0471,0.002204
32.307,80.0687,0.002204
32.417,80.0905,0.002204
32.527,80.1127,0.002213
32.636,80.1344,0.002213
32.746,80.1563,0.002213
32.855,80.1783,0.002213
32.964,80.2000,0.002213
33.073,80.2218,0.002213
33.182,80.2435,0.002175
33.292,80.2657,0.002175
33.402,80.2876,0.002175
33.512,80.3095,0.002156
33.621,80.3316,0.002156
33.731,80.3534,0.002166
33.841,80.3754,0.002166
33.951,80.3973,0.002175
34.059,80.4190,0.002175
34.170,80.4412,0.002175
34.279,80.4631,0.002204
34.389,80.4849,0.002204
34.499,80.5071,0.002166
34.609,80.5289,0.002166
34.716,80.5506,0.002185
34.826,80.5723,0.002185
34.933,80.5938,0.002194
35.043,80.6156,0.002194
35.151,80.6373,0.002194
35.262,80.6538,0.002156
35.369,80.6609,0.002156
35.478,80.6612,0.002232
35.588,80.6612,0.002232
35.697,80.6612,0.002241
35.807,80.6612,0.002241
35.916,80.6612,0.002241
36.026,80.6612,0.002222
36.133,80.6612,0.002222
36.243,80.6612,0.002241
36.354,80.6612,0.002241
36.461,80.6612,0.002204
36.570,80.6612,0.002204
36.680,80.6612,0.002232
36.788,80.6612,0.002232
36.898,80.6612,0.002232
37.008,80.6612,0.002213
37.118,80.6612,0.002213
37.226,80.6612,0.002222
37.336,80.6612,0.002222
37.445,80.6612,0.002222
37.554,80.6612,0.002222
37.663,80.6612,0.002222
37.772,80.6612,0.002185
37.882,80.6612,0.002185
37.990,80.6612,0.002185
38.101,80.6612,0.002185
38.210,80.6612,0.002213
38.320,80.6612,0.002213
38.428,80.6612,0.002213
38.538,80.6612,0.002194
38.647,80.6612,0.002194
38.753,80.6612,0.002156
38.863,80.6612,0.002156
38.971,80.6612,0.002204
39.080,80.6612,0.002204
39.190,80.6612,0.002222
39.296,80.6612,0.002222
39.405,80.6612,0.002222
39.516,80.6612,0.002194
39.624,80.6612,0.002194
39.734,80.6612,0.002166
39.844,80.6612,0.002166
39.954,80.6612,0.002185
40.062,80.6573,0.002185
40.172,80.6443,0.002279
40.281,80.6235,0.002279
40.389,80.6017,0.002279
40.498,80.5801,0.002269
40.608,80.5582,0.002269
40.716,80.5365,0.002175
40.823,80.5151,0.002175
40.931,80.4934,0.002175
41.041,80.4715,0.002175
41.149,80.4499,0.002175
41.257,80.4282,0.002194
41.367,80.4063,0.002194
41.476,80.3846,0.002166
41.584,80.3628,0.002166
41.693,80.3411,0.002204
41.801,80.3194,0.002204
41.909,80.2979,0.002204
42.019,80.2759,0.002204
42.128,80.2538,0.002204
42.238,80.2321,0.002175
42.347,80.2103,0.002175
42.456,80.1885,0.002175
42.564,80.1669,0.002194
42.673,80.1448,0.002194
42.782,80.1232,0.002185
42.891,80.1013,0.002185
43.000,80.0796,0.002166
43.110,80.0577,0.002166
43.218,80.0359,0.002175
43.327,80.0143,0.002175
43.436,79.9923,0.002204
43.545,79.9707,0.002204
43.655,79.9485,0.002204
43.765,79.9267,0.002147
43.875,79.9047,0.002147
43.982,79.8834,0.002166
44.091,79.8614,0.002166
44.202,79.8392,0.002241
44.311,79.8175,0.002241
44.418,79.7962,0.002241
44.528,79.7740,0.002232
44.638,79.7522,0.002232
44.745,79.7306,0.002185
44.855,79.7087,0.002185
44.965,79.6865,0.002213
45.075,79.6646,0.002213
45.184,79.6430,0.002232
45.293,79.6211,0.002232
45.403,79.5989,0.002232
45.513,79.5772,0.002166
45.623,79.5552,0.002166
45.733,79.5331,0.002156
45.843,79.5111,0.002156
45.951,79.4893,0.002222
46.061,79.4675,0.002222
46.170,79.4458,0.002222
46.278,79.4241,0.002260
46.386,79.4025,0.002260
46.493,79.3810,0.002213
46.602,79.3594,0.002213
46.710,79.3377,0.002175
46.820,79.3157,0.002175
46.930,79.2936,0.002213
47.038,79.2721,0.002213
47.146,79.2505,0.002213
47.257,79.2282,0.002194
47.366,79.2066,0.002194
47.475,79.1846,0.002185
47.583,79.1632,0.002185
47.693,79.1411,0.002194
47.802,79.1194,0.002194
47.910,79.0977,0.002194
48.019,79.0759,0.002194
48.127,79.0543,0.002194
48.238,79.0320,0.002194
48.349,79.0100,0.002194
48.458,78.9880,0.002194
48.568,78.9660,0.002175
48.676,78.9445,0.002175
48.783,78.9231,0.002204
48.892,78.9012,0.002204
49.003,78.8792,0.002194
49.113,78.8571,0.002194
49.221,78.8355,0.002166
49.330,78.8138,0.002166
49.440,78.7918,0.002204
49.549,78.7699,0.002204
49.658,78.7482,0.002204
49.767,78.7264,0.002222
49.875,78.7045,0.002222
49.983,78.6832,0.002194
50.092,78.6614,0.002194
50.201,78.6395,0.002175
50.311,78.6176,0.002175
50.420,78.5955,0.002175
50.530,78.5738,0.002241
50.640,78.5519,0.002241
50.748,78.5302,0.002269
50.856,78.5086,0.002269
50.967,78.4862,0.002222
51.075,78.4648,0.002222
51.185,78.4427,0.002222
51.293,78.4210,0.002222
51.403,78.3991,0.002222
51.513,78.3771,0.002241
51.623,78.3549,0.002241
51.732,78.3335,0.002204
51.841,78.3115,0.002204
51.949,78.2900,0.002156
52.059,78.2681,0.002156
52.167,78.2464,0.002156
52.277,78.2244,0.002175
52.385,78.2025,0.002175
52.495,78.1808,0.002156
52.606,78.1587,0.002156
52.714,78.1370,0.002175
52.823,78.1150,0.002175
52.933,78.0932,0.002251
53.041,78.0715,0.002251
53.150,78.0498,0.002251
53.258,78.0279,0.002213
53.367,78.0064,0.002213
53.476,77.9846,0.002194
53.586,77.9625,0.002194
53.696,77.9405,0.002194
53.805,77.9187,0.002175
53.915,77.8968,0.002175
54.025,77.8747,0.002138
54.134,77.8530,0.002138
54.244,77.8310,0.002138
54.354,77.8090,0.002138
54.462,77.7873,0.002138
54.569,77.7659,0.002138
54.678,77.7440,0.002241
54.787,77.7224,0.002241
54.897,77.7004,0.002241
55.006,77.6786,0.002269
55.115,77.6569,0.002269
55.224,77.6350,0.002185
55.332,77.6190,0.002185
55.442,77.6116,0.002100
55.551,77.6113,0.002100
55.659,77.6113,0.002100
55.769,77.6113,0.002109
55.878,77.6113,0.002109
55.988,77.6113,0.002166
56.097,77.6113,0.002166
56.207,77.6170,0.002166
56.316,77.6316,0.002166
56.426,77.6532,0.002166
56.535,77.6750,0.002128
56.643,77.6965,0.002128
56.752,77.7183,0.002147
56.859,77.7399,0.002147
56.969,77.7618,0.002185
57.079,77.7837,0.002185
57.186,77.8052,0.002185
57.297,77.8274,0.002222
57.406,77.8493,0.002222
57.515,77.8711,0.002222
57.623,77.8927,0.002222
57.733,77.9150,0.002156
57.841,77.9361,0.002156
57.951,77.9582,0.002175
58.062,77.9805,0.002175
58.171,78.0021,0.002175
58.280,78.0240,0.002194
58.390,78.0461,0.002194
58.501,78.0683,0.002138
58.610,78.0900,0.002138
58.719,78.1121,0.002081
58.828,78.1335,0.002081
58.938,78.1556,0.002128
59.046,78.1772,0.002128
59.156,78.1991,0.002128
59.264,78.2210,0.002166
59.372,78.2424,0.002166
59.481,78.2642,0.002204
59.592,78.2864,0.002204
59.701,78.3083,0.002241
59.811,78.3302,0.002241
59.920,78.3519,0.002241
60.030,78.3740,0.002194
60.137,78.3955,0.002194
60.248,78.4174,0.002185
60.357,78.4394,0.002185
60.466,78.4613,0.002194
60.574,78.4828,0.002194
60.684,78.5047,0.002204
60.792,78.5263,0.002204
60.901,78.5483,0.002204
61.010,78.5702,0.002185
61.120,78.5919,0.002185
61.231,78.6140,0.002156
61.339,78.6358,0.002156
61.449,78.6578,0.002194
61.557,78.6794,0.002194
61.665,78.7009,0.002194
61.775,78.7231,0.002185
61.884,78.7450,0.002185
61.993,78.7665,0.002194
62.103,78.7886,0.002194
62.212,78.8103,0.002156
62.321,78.8321,0.002156
62.432,78.8542,0.002138
62.542,78.8763,0.002138
62.649,78.8978,0.002138
62.757,78.9193,0.002194
62.866,78.9412,0.002194
62.975,78.9629,0.002241
63.084,78.9851,0.002241
63.195,79.0070,0.002232
63.305,79.0290,0.002232
63.413,79.0507,0.002232
63.521,79.0721,0.002194
63.631,79.0941,0.002194
63.739,79.1158,0.002185
63.850,79.1379,0.002185
63.959,79.1597,0.002166
64.067,79.1813,0.002166
64.177,79.2035,0.002166
64.286,79.2251,0.002185
64.396,79.2471,0.002185
64.505,79.2688,0.002232
64.613,79.2905,0.002232
64.722,79.3122,0.002194
64.831,79.3341,0.002194
64.940,79.3558,0.002166
65.050,79.3781,0.002166
65.160,79.3999,0.002166
65.270,79.4219,0.002213
65.378,79.4435,0.002213
65.486,79.4650,0.002269
65.593,79.4866,0.002269
65.703,79.5086,0.002251
65.813,79.5305,0.002251
65.923,79.5526,0.002251
66.031,79.5742,0.002185
66.141,79.5961,0.002185
66.249,79.6176,0.002166
66.358,79.6394,0.002166
66.466,79.6611,0.002166
66.575,79.6828,0.002166
66.686,79.7053,0.002147
66.796,79.7272,0.002147
66.905,79.7489,0.002147
67.015,79.7709,0.002156
67.126,79.7932,0.002156
67.236,79.8150,0.002222
67.344,79.8367,0.002222
67.453,79.8586,0.002232
67.564,79.8806,0.002232
67.671,79.9021,0.002232
67.779,79.9237,0.002156
67.887,79.9454,0.002156
67.996,79.9672,0.002138
68.105,79.9888,0.002138
68.215,80.0111,0.002185
68.324,80.0326,0.002185
68.432,80.0542,0.002222
68.542,80.0762,0.002222
68.651,80.0981,0.002222
68.757,80.1195,0.002213
68.865,80.1410,0.002213
68.975,80.1630,0.002194
69.085,80.1849,0.002194
69.194,80.2066,0.002175
69.303,80.2285,0.002175
69.412,80.2502,0.002175
69.520,80.2721,0.002175
69.630,80.2939,0.002175
69.739,80.3157,0.002222
69.848,80.3375,0.002222
69.959,80.3599,0.002213
70.070,80.3818,0.002213
70.179,80.4039,0.002175
70.289,80.4257,0.002175
70.399,80.4478,0.002175
70.509,80.4696,0.002175
70.618,80.4915,0.002175
70.726,80.5132,0.002194
70.835,80.5347,0.002194
70.946,80.5571,0.002175
71.056,80.5791,0.002175
71.165,80.5984,0.002175
71.273,80.6090,0.002185
71.382,80.6113,0.002185
71.493,80.6113,0.002269
71.601,80.6113,0.002269
71.711,80.6113,0.002269
71.820,80.6113,0.002269
71.929,80.6113,0.002269
72.038,80.6113,0.002204
72.148,80.6113,0.002204
72.258,80.6113,0.002185
72.367,80.6113,0.002185
72.478,80.6113,0.002213
72.588,80.6113,0.002213
72.698,80.6113,0.002194
72.806,80.6113,0.002194
72.916,80.6113,0.002194
73.025,80.6113,0.002147
73.135,80.6113,0.002147
73.247,80.6113,0.002185
73.357,80.6113,0.002185
73.466,80.6113,0.002213
73.577,80.6113,0.002213
73.688,80.6113,0.002185
73.796,80.6113,0.002185
73.906,80.6113,0.002185
74.015,80.6113,0.002185
74.126,80.6113,0.002185
74.237,80.6113,0.002185
74.346,80.6113,0.002185
74.456,80.6113,0.002204
74.566,80.6113,0.002204
74.676,80.6113,0.002204
74.785,80.6113,0.002222
74.894,80.6113,0.002222
75.004,80.6113,0.002213
75.116,80.6113,0.002213
75.225,80.6113,0.002251
75.336,80.6113,0.002251
75.446,80.6113,0.002251
75.553,80.6113,0.002213
75.663,80.6113,0.002213
75.774,80.6113,0.002147
75.883,80.6113,0.002147
75.992,80.6073,0.002204
76.102,80.5940,0.002204
76.212,80.5731,0.002269
76.322,80.5511,0.002269
76.431,80.5293,0.002288
76.538,80.5080,0.002288
76.647,80.4861,0.002288
76.754,80.4648,0.002269
76.863,80.4430,0.002269
76.972,80.4211,0.002232
77.079,80.3998,0.002232
77.188,80.3780,0.002204
77.296,80.3563,0.002204
77.406,80.3343,0.002204
77.515,80.3125,0.002204
77.623,80.2909,0.002204
77.733,80.2690,0.002222
77.843,80.2469,0.002222
77.952,80.2251,0.002232
78.060,80.2036,0.002232
78.169,80.1816,0.002232
78.279,80.1598,0.002222
78.388,80.1379,0.002222
78.499,80.1157,0.002166
78.607,80.0942,0.002166
78.715,80.0726,0.002185
78.823,80.0509,0.002185
78.933,80.0290,0.002222
79.044,80.0067,0.002222
79.155,79.9843,0.002222
79.266,79.9624,0.002204
79.375,79.9404,0.002204
79.485,79.9185,0.002222
79.596,79.8963,0.002222
79.705,79.8744,0.002185
79.815,79.8524,0.002185
79.924,79.8307,0.002185
80.032,79.8090,0.002194
80.141,79.7874,0.002194
80.250,79.7654,0.002222
80.360,79.7435,0.002222
80.469,79.7216,0.002175
80.579,79.6997,0.002175
80.689,79.6775,0.002175
80.796,79.6562,0.002175
80.907,79.6342,0.002175
81.016,79.6124,0.002222
81.125,79.5906,0.002222
81.233,79.5688,0.002194
81.342,79.5470,0.002194
81.451,79.5254,0.002166
81.561,79.5034,0.002166
81.671,79.4814,0.002166
81.780,79.4595,0.002166
81.890,79.4376,0.002166
81.999,79.4157,0.002166
82.108,79.3940,0.002166
82.217,79.3721,0.002166
82.325,79.3504,0.002166
82.435,79.3285,0.002204
82.542,79.3070,0.002204
82.653,79.2850,0.002204
82.763,79.2629,0.002185
82.872,79.2412,0.002185
82.982,79.2192,0.002166
83.090,79.1973,0.002166
83.199,79.1757,0.002213
83.308,79.1540,0.002213
83.417,79.1322,0.002213
83.526,79.1105,0.002222
83.635,79.0885,0.002222
83.744,79.0667,0.002213
83.854,79.0446,0.002213
83.962,79.0231,0.002232
84.071,79.0013,0.002232
84.182,78.9791,0.002213
84.292,78.9572,0.002213
84.402,78.9351,0.002213
84.512,78.9131,0.002204
84.620,78.8916,0.002204
84.730,78.8695,0.002194
84.839,78.8478,0.002194
84.946,78.8264,0.002204
85.055,78.8044,0.002204
85.164,78.7828,0.002204
85.274,78.7606,0.002213
85.384,78.7388,0.002213
85.493,78.7169,0.002185
85.601,78.6954,0.002185
85.711,78.6733,0.002213
85.820,78.6516,0.002213
85.927,78.6302,0.002204
86.037,78.6082,0.002204
86.145,78.5865,0.002204
86.255,78.5644,0.002166
86.363,78.5429,0.002166
86.472,78.5211,0.002185
86.581,78.4994,0.002185
86.692,78.4772,0.002232
86.801,78.4552,0.002232
86.911,78.4334,0.002232
87.018,78.4120,0.002260
87.126,78.3903,0.002260
87.235,78.3685,0.002222
87.345,78.3465,0.002222
87.456,78.3244,0.002222
87.565,78.3026,0.002222
87.672,78.2811,0.002260
87.781,78.2593,0.002260
87.891,78.2372,0.002260
88.001,78.2154,0.002232
88.110,78.1936,0.002232
88.220,78.1716,0.002232
88.327,78.1501,0.002222
88.437,78.1282,0.002260
88.547,78.1062,0.002260
88.655,78.0845,0.002260
88.765,78.0626,0.002222
88.874,78.0408,0.002222
88.985,78.0187,0.002204
89.095,77.9966,0.002204
89.204,77.9747,0.002213
89.311,77.9533,0.002213
89.419,77.9317,0.002213
89.528,77.9100,0.002166
89.638,77.8881,0.002166
89.747,77.8663,0.002109
89.856,77.8443,0.002109
89.965,77.8226,0.002222
90.075,77.8006,0.002222
90.183,77.7791,0.002307
90.292,77.7572,0.002307
90.401,77.7352,0.002307
90.511,77.7135,0.002232
90.621,77.6915,0.002232
90.729,77.6699,0.002213
90.836,77.6483,0.002213
90.945,77.6266,0.002241
91.056,77.6044,0.002241
91.166,77.5827,0.002241
91.274,77.5676,0.002194
91.384,77.5614,0.002194
91.493,77.5613,0.002025
91.602,77.5613,0.002025
91.711,77.5613,0.002109
91.820,77.5613,0.002109
91.928,77.5613,0.002109
92.036,77.5638,0.002269
92.146,77.5749,0.002269
92.255,77.5946,0.002091
92.364,77.6165,0.002091
92.474,77.6387,0.002109
92.583,77.6604,0.002109
92.694,77.6825,0.002260
92.803,77.7043,0.002260
92.912,77.7262,0.002260
93.021,77.7479,0.002175
93.129,77.7696,0.002175
93.238,77.7913,0.002166
93.348,77.8132,0.002166
93.458,77.8354,0.002222
93.568,77.8572,0.002222
93.676,77.8789,0.002204
93.786,77.9010,0.002204
93.895,77.9226,0.002204
94.003,77.9445,0.002213
94.112,77.9662,0.002213
94.222,77.9880,0.002194
94.331,78.0100,0.002194
94.439,78.0316,0.002222
94.548,78.0535,0.002222
94.659,78.0755,0.002222
94.767,78.0971,0.002213
94.877,78.1190,0.002213
94.987,78.1411,0.002241
95.097,78.1633,0.002241
95.207,78.1850,0.002279
95.314,78.2065,0.002279
95.424,78.2287,0.002279
95.532,78.2500,0.002185
95.641,78.2721,0.002185
95.751,78.2938,0.002194
95.860,78.3156,0.002194
95.969,78.3375,0.002204
96.078,78.3594,0.002204
96.189,78.3814,0.002175
96.299,78.4038,0.002175
96.408,78.4252,0.002175
96.518,78.4474,0.002175
96.627,78.4690,0.002175
96.735,78.4908,0.002156
96.842,78.5122,0.002156
96.951,78.5340,0.002128
97.061,78.5559,0.002128
97.172,78.5783,0.002194
97.280,78.5996,0.002194
97.388,78.6213,0.002194
97.499,78.6435,0.002345
97.608,78.6653,0.002345
97.719,78.6877,0.002354
97.825,78.7087,0.002354
97.935,78.7306,0.002204
98.043,78.7523,0.002204
98.150,78.7737,0.002204
98.259,78.7956,0.002138
98.368,78.8174,0.002138
98.477,78.8392,0.002194
98.586,78.8610,0.002194
98.695,78.8828,0.002128
98.806,78.9050,0.002128
98.913,78.9264,0.002128
99.022,78.9482,0.002072
99.132,78.9702,0.002072
99.241,78.9919,0.002119
99.348,79.0132,0.002119
99.456,79.0348,0.002222
99.565,79.0568,0.002222
99.675,79.0787,0.002222
99.786,79.1009,0.002260
99.894,79.1226,0.002260
100.002,79.1441,0.002241
100.112,79.1661,0.002241
100.222,79.1881,0.002204
100.332,79.2100,0.002204
100.440,79.2316,0.002166
100.548,79.2533,0.002166
100.657,79.2752,0.002166
100.765,79.2967,0.002194
100.875,79.3186,0.002194
100.984,79.3404,0.002232
101.094,79.3623,0.002232
101.203,79.3842,0.002204
101.313,79.4065,0.002204
101.423,79.4282,0.002204
101.532,79.4500,0.002222
101.639,79.4715,0.002222
101.748,79.4933,0.002260
101.859,79.5156,0.002260
101.967,79.5371,0.002185
102.075,79.5587,0.002185
102.185,79.5806,0.002156
102.295,79.6028,0.002156
102.404,79.6245,0.002156
102.514,79.6464,0.002166
102.622,79.6681,0.002166
102.730,79.6895,0.002185
102.839,79.7116,0.002185
102.950,79.7337,0.002185
103.057,79.7550,0.002204
103.167,79.7771,0.002204
103.277,79.7993,0.002213
103.386,79.8209,0.002213
103.496,79.8428,0.002213
103.604,79.8643,0.002213
103.713,79.8863,0.002194
103.823,79.9082,0.002194
103.932,79.9300,0.002222
104.041,79.9518,0.002222
104.150,79.9737,0.002222
104.260,79.9957,0.002241
104.369,80.0174,0.002241
104.477,80.0391,0.002260
104.588,80.0612,0.002260
104.696,80.0829,0.002232
104.805,80.1048,0.002232
104.914,80.1265,0.002232
105.023,80.1482,0.002194
105.131,80.1699,0.002194
105.241,80.1918,0.002194
105.350,80.2138,0.002194
105.458,80.2354,0.002194
105.568,80.2572,0.002175
105.678,80.2793,0.002175
105.787,80.3011,0.002185
105.896,80.3228,0.002185
106.005,80.3446,0.002222
106.115,80.3667,0.002222
106.224,80.3886,0.002213
106.333,80.4101,0.002213
106.442,80.4321,0.002232
106.550,80.4539,0.002232
106.658,80.4753,0.002232
106.767,80.4972,0.002232
106.877,80.5191,0.002232
106.986,80.5404,0.002185
107.095,80.5553,0.002185
107.205,80.5612,0.002213
107.314,80.5613,0.002213
107.423,80.5613,0.002204
107.532,80.5613,0.002204
107.641,80.5613,0.002204
107.750,80.5613,0.002128
107.857,80.5613,0.002128
107.967,80.5613,0.002128
108.076,80.5613,0.002128
108.187,80.5613,0.002138
108.297,80.5613,0.002138
108.406,80.5613,0.002138
108.516,80.5613,0.002185
108.625,80.5613,0.002185
108.733,80.5613,0.002222
108.840,80.5613,0.002222
108.951,80.5613,0.002204
109.061,80.5613,0.002204
109.171,80.5613,0.002204
109.280,80.5613,0.002222
109.389,80.5613,0.002222
109.499,80.5613,0.002232
109.610,80.5613,0.002232
109.721,80.5613,0.002213
109.831,80.5613,0.002213
109.940,80.5613,0.002194
110.049,80.5613,0.002194
110.157,80.5613,0.002194
110.266,80.5613,0.002138
110.375,80.5613,0.002138
110.485,80.5613,0.002128
110.594,80.5613,0.002128
110.703,80.5613,0.002147
110.813,80.5613,0.002147
110.924,80.5613,0.002166
111.034,80.5613,0.002166
111.144,80.5613,0.002166
111.254,80.5613,0.002213
111.364,80.5613,0.002213
111.475,80.5613,0.002194
111.585,80.5613,0.002194
111.694,80.5613,0.002128
111.803,80.5610,0.002128
111.913,80.5546,0.002128
112.023,80.5390,0.002175
112.131,80.5173,0.002175
112.241,80.4954,0.002213
112.352,80.4732,0.002213
112.462,80.4512,0.002204
112.571,80.4294,0.002204
112.682,80.4072,0.002232
112.792,80.3852,0.002232
112.901,80.3633,0.002232
113.011,80.3415,0.002194
113.118,80.3201,0.002194
113.227,80.2984,0.002204
113.336,80.2765,0.002204
113.443,80.2551,0.002232
113.554,80.2330,0.002232
113.662,80.2113,0.002232
113.772,80.1892,0.002185
113.882,80.1671,0.002185
113.991,80.1456,0.002194
114.099,80.1236,0.002194
114.208,80.1021,0.002269
114.319,80.0799,0.002269
114.427,80.0581,0.002251
114.536,80.0365,0.002251
114.647,80.0142,0.002251
114.752,79.9933,0.002213
114.863,79.9711,0.002213
114.971,79.9495,0.002222
115.082,79.9274,0.002222
115.191,79.9051,0.002222
115.300,79.8836,0.002222
115.410,79.8618,0.002222
115.519,79.8397,0.002222
115.628,79.8181,0.002222
115.737,79.7964,0.002166
115.844,79.7749,0.002166
115.953,79.7531,0.002138
116.062,79.7311,0.002138
116.173,79.7091,0.002138
116.281,79.6874,0.002166
116.390,79.6658,0.002166
116.500,79.6436,0.002185
116.609,79.6218,0.002185
116.717,79.6001,0.002232
116.827,79.5783,0.002232
116.937,79.5562,0.002175
117.045,79.5347,0.002175
117.155,79.5127,0.002175
117.262,79.4913,0.002204
117.370,79.4696,0.002204
117.480,79.4476,0.002279
117.588,79.4261,0.002279
117.698,79.4041,0.002194
117.807,79.3822,0.002194
117.917,79.3604,0.002194
118.026,79.3385,0.002156
118.135,79.3167,0.002156
118.244,79.2948,0.002222
118.355,79.2728,0.002222
118.464,79.2509,0.002185
118.573,79.2291,0.002185
118.682,79.2072,0.002194
118.791,79.1856,0.002194
118.899,79.1637,0.002194
119.009,79.1420,0.002279
119.118,79.1201,0.002279
119.227,79.0982,0.002232
119.337,79.0764,0.002232
119.447,79.0543,0.002147
119.555,79.0327,0.002147
119.664,79.0110,0.002147
119.773,78.9890,0.002194
119.883,78.9670,0.002194
119.990,78.9456,0.002251
120.100,78.9238,0.002251
120.208,78.9021,0.002194
120.318,78.8800,0.002194
120.425,78.8586,0.002194
120.535,78.8367,0.002175
120.644,78.8148,0.002175
120.752,78.7933,0.002213
120.861,78.7714,0.002213
120.972,78.7493,0.002222
121.080,78.7277,0.002222
121.190,78.7058,0.002241
121.300,78.6836,0.002241
121.409,78.6619,0.002241
121.517,78.6402,0.002213
121.626,78.6187,0.002213
121.734,78.5970,0.002185
121.843,78.5749,0.002185
121.953,78.5531,0.002204
122.063,78.5310,0.002204
122.172,78.5094,0.002260
122.281,78.4876,0.002260
122.393,78.4650,0.002260
122.502,78.4433,0.002269
122.612,78.4213,0.002269
122.722,78.3994,0.002213
122.832,78.3771,0.002213
122.942,78.3554,0.002194
123.052,78.3333,0.002194
123.162,78.3114,0.002194
123.271,78.2895,0.002138
123.381,78.2676,0.002138
123.491,78.2456,0.002156
123.599,78.2238,0.002156
123.710,78.2017,0.002222
123.820,78.1797,0.002222
123.929,78.1581,0.002251
124.037,78.1361,0.002251
124.147,78.1143,0.002251
124.256,78.0925,0.002251
124.365,78.0708,0.002251
124.474,78.0488,0.002251
124.584,78.0270,0.002251
124.693,78.0053,0.002222
124.801,77.9835,0.002222
124.909,77.9619,0.002222
125.020,77.9398,0.002204
125.130,77.9178,0.002204
125.239,77.8958,0.002241
125.347,77.8743,0.002241
125.455,77.8525,0.002204
125.565,77.8307,0.002204
125.674,77.8090,0.002204
125.784,77.7870,0.002175
125.893,77.7652,0.002175
126.001,77.7435,0.002175
126.110,77.7216,0.002175
126.219,77.6999,0.002194
126.329,77.6780,0.002194
126.437,77.6564,0.002222
126.546,77.6345,0.002222
126.656,77.6126,0.002222
126.766,77.5907,0.002194
126.874,77.5687,0.002194
126.982,77.5474,0.002204
127.091,77.5271,0.002204
127.201,77.5146,0.002128
127.311,77.5113,0.002128
127.420,77.5113,0.002128
127.529,77.5113,0.002128
127.640,77.5113,0.002128
127.749,77.5113,0.002222
127.858,77.5113,0.002222
127.967,77.5159,0.002222
128.077,77.5297,0.002204
128.186,77.5509,0.002138
128.294,77.5724,0.002138
128.403,77.5943,0.002138
128.512,77.6161,0.002109
128.623,77.6381,0.002109
128.731,77.6598,0.002156
128.839,77.6813,0.002156
128.947,77.7030,0.002166
129.059,77.7252,0.002166
129.168,77.7473,0.002166
129.276,77.7688,0.002156
129.385,77.7905,0.002156
129.492,77.8121,0.002166
129.601,77.8338,0.002166
129.711,77.8558,0.002194
129.820,77.8775,0.002194
129.930,77.8996,0.002194
130.040,77.9216,0.002194
130.151,77.9438,0.002194
130.261,77.9657,0.002241
130.371,77.9877,0.002241
130.480,78.0095,0.002241
130.590,78.0317,0.002241
130.699,78.0535,0.002204
130.808,78.0750,0.002204
130.917,78.0971,0.002204
131.029,78.1194,0.002147
131.138,78.1411,0.002147
131.248,78.1632,0.002128
131.359,78.1854,0.002128
131.468,78.2072,0.002204
131.579,78.2293,0.002204
131.689,78.2512,0.002194
131.798,78.2731,0.002194
131.908,78.2951,0.002194
132.017,78.3170,0.002194
132.127,78.3390,0.002194
132.235,78.3607,0.002194
132.344,78.3824,0.002194
132.454,78.4043,0.002213
132.563,78.4262,0.002213
132.674,78.4484,0.002213
132.781,78.4698,0.002204
132.889,78.4916,0.002204
132.998,78.5132,0.002175
133.107,78.5349,0.002175
133.216,78.5567,0.002166
133.324,78.5783,0.002166
133.434,78.6006,0.002213
133.543,78.6221,0.002213
133.652,78.6440,0.002213
133.762,78.6661,0.002260
133.870,78.6875,0.002260
133.981,78.7097,0.002232
134.090,78.7317,0.002232
134.199,78.7534,0.002204
134.307,78.7750,0.002204
134.418,78.7971,0.002204
134.526,78.8188,0.002175
134.635,78.8405,0.002175
134.744,78.8625,0.002194
134.854,78.8844,0.002194
134.963,78.9062,0.002213
135.072,78.9278,0.002213
135.181,78.9498,0.002194
135.290,78.9714,0.002194
135.399,78.9934,0.002194
135.507,79.0148,0.002147
135.614,79.0364,0.002147
135.721,79.0577,0.002185
135.832,79.0799,0.002185
135.940,79.1014,0.002185
136.049,79.1234,0.002213
136.157,79.1452,0.002213
136.268,79.1671,0.002166
136.379,79.1892,0.002166
136.489,79.2113,0.002147
136.598,79.2330,0.002147
136.705,79.2546,0.002194
136.814,79.2763,0.002194
136.924,79.2984,0.002194
137.032,79.3199,0.002232
137.141,79.3416,0.002232
137.250,79.3636,0.002156
137.359,79.3854,0.002156
137.468,79.4070,0.002147
137.576,79.4288,0.002147
137.683,79.4502,0.002251
137.793,79.4722,0.002251
137.903,79.4941,0.002251
138.014,79.5161,0.002241
138.120,79.5375,0.002241
138.230,79.5595,0.002213
138.339,79.5815,0.002213
138.450,79.6035,0.002166
138.559,79.6254,0.002166
138.667,79.6470,0.002166
138.775,79.6686,0.002175
138.885,79.6905,0.002175
138.994,79.7123,0.002213
139.102,79.7338,0.002213
139.211,79.7556,0.002166
139.320,79.7775,0.002166
139.427,79.7989,0.002222
139.536,79.8209,0.002222
139.645,79.8424,0.002222
139.755,79.8644,0.002251
139.863,79.8860,0.002251
139.972,79.9078,0.002232
140.082,79.9301,0.002232
140.191,79.9517,0.002222
140.302,79.9739,0.002222
140.411,79.9957,0.002222
140.521,80.0177,0.002194
140.631,80.0396,0.002194
140.738,80.0611,0.002222
140.848,80.0830,0.002222
140.957,80.1049,0.002222
141.066,80.1267,0.002185
141.176,80.1487,0.002185
141.284,80.1702,0.002204
141.394,80.1923,0.002204
141.503,80.2141,0.002185
141.614,80.2365,0.002185
141.723,80.2580,0.002213
141.833,80.2800,0.002213
141.941,80.3018,0.002232
142.049,80.3233,0.002232
142.159,80.3452,0.002232
142.269,80.3673,0.002194
142.377,80.3890,0.002194
142.486,80.4106,0.002232
142.595,80.4325,0.002232
142.706,80.4546,0.002194
142.812,80.4758,0.002194
142.921,80.4963,0.002194
143.031,80.5082,0.002204
143.140,80.5113,0.002204
143.250,80.5113,0.002204
143.360,80.5113,0.002204
143.469,80.5113,0.002204
143.580,80.5113,0.002204
143.688,80.5113,0.002241
143.798,80.5113,0.002241
143.907,80.5113,0.002241
144.016,80.5113,0.002232
144.127,80.5113,0.002232
144.237,80.5113,0.002194
144.348,80.5113,0.002194
144.458,80.5113,0.002185
144.566,80.5113,0.002185
144.677,80.5113,0.002185
144.785,80.5113,0.002185
144.896,80.5113,0.002185
145.005,80.5113,0.002175
145.116,80.5113,0.002175
145.227,80.5113,0.002213
145.338,80.5113,0.002213
145.446,80.5113,0.002194
145.556,80.5113,0.002194
145.665,80.5113,0.002194
145.774,80.5113,0.002147
145.885,80.5113,0.002147
145.997,80.5113,0.002204
146.105,80.5113,0.002204
146.215,80.5113,0.002251
146.325,80.5113,0.002251
146.436,80.5113,0.002222
146.545,80.5113,0.002222
146.654,80.5113,0.002222
146.762,80.5113,0.002213
146.872,80.5113,0.002213
146.982,80.5113,0.002222
147.091,80.5113,0.002222
147.199,80.5113,0.002251
147.309,80.5113,0.002251
147.418,80.5113,0.002251
147.528,80.5113,0.002232
147.638,80.5113,0.002232
147.745,80.5108,0.002156
147.854,80.5035,0.002156
147.964,80.4872,0.002241
148.074,80.4650,0.002241
148.182,80.4436,0.002269
148.293,80.4214,0.002269
148.400,80.3999,0.002269
148.510,80.3780,0.002204
148.622,80.3557,0.002204
148.729,80.3342,0.002194
148.839,80.3122,0.002194
148.949,80.2902,0.002260
149.059,80.2683,0.002260
149.168,80.2464,0.002260
149.279,80.2243,0.002288
149.389,80.2022,0.002288
149.498,80.1805,0.002222
149.609,80.1582,0.002222
149.718,80.1363,0.002185
149.828,80.1143,0.002185
149.938,80.0924,0.002175
150.047,80.0705,0.002175
150.156,80.0488,0.002175
150.265,80.0270,0.002147
150.374,80.0052,0.002147
150.483,79.9833,0.002204
150.592,79.9618,0.002204
150.702,79.9396,0.002213
150.810,79.9181,0.002213
150.918,79.8965,0.002213
151.028,79.8743,0.002185
151.138,79.8525,0.002185
151.247,79.8304,0.002185
151.356,79.8088,0.002185
151.466,79.7869,0.002175
151.574,79.7651,0.002175
151.682,79.7436,0.002175
151.793,79.7213,0.002175
151.903,79.6996,0.002175
152.012,79.6776,0.002185
152.120,79.6560,0.002185
152.229,79.6342,0.002241
152.337,79.6126,0.002241
152.446,79.5908,0.002175
152.555,79.5691,0.002175
152.665,79.5471,0.002175
152.774,79.5253,0.002156
152.882,79.5036,0.002156
152.992,79.4818,0.002222
153.102,79.4596,0.002222
153.212,79.4378,0.002279
153.321,79.4158,0.002279
153.429,79.3942,0.002232
153.536,79.3728,0.002232
153.646,79.3509,0.002232
153.753,79.3294,0.002166
153.864,79.3072,0.002166
153.974,79.2853,0.002222
154.083,79.2636,0.002222
154.193,79.2414,0.002204
154.303,79.2195,0.002204
154.412,79.1976,0.002204
154.520,79.1761,0.002204
154.629,79.1541,0.002204
154.737,79.1328,0.002260
154.847,79.1105,0.002260
154.957,79.0888,0.002213
155.063,79.0674,0.002213
155.172,79.0455,0.002213
155.281,79.0239,0.002194
155.389,79.0023,0.002194
155.499,78.9802,0.002185
155.609,78.9584,0.002185
155.718,78.9365,0.002222
155.828,78.9145,0.002222
155.938,78.8924,0.002241
156.048,78.8706,0.002241
156.156,78.8489,0.002241
156.266,78.8268,0.002185
156.376,78.8049,0.002185
156.485,78.7830,0.002147
156.594,78.7613,0.002147
156.703,78.7394,0.002166
156.811,78.7178,0.002166
156.920,78.6960,0.002166
157.030,78.6741,0.002175
157.138,78.6526,0.002175
157.248,78.6304,0.002128
157.357,78.6087,0.002128
157.466,78.5870,0.002175
157.576,78.5649,0.002175
157.686,78.5427,0.002185
157.795,78.5211,0.002185
157.903,78.4994,0.002185
158.013,78.4774,0.002156
158.123,78.4556,0.002156
158.233,78.4334,0.002185
158.340,78.4121,0.002185
158.451,78.3898,0.002166
158.562,78.3677,0.002166
158.671,78.3459,0.002166
158.778,78.3245,0.002175
158.887,78.3028,0.002175
158.995,78.2809,0.002232
159.106,78.2588,0.002232
159.216,78.2370,0.002232
159.324,78.2153,0.002232
159.432,78.1937,0.002204
159.542,78.1718,0.002204
159.651,78.1498,0.002204
159.759,78.1282,0.002185
159.868,78.1066,0.002185
159.977,78.0845,0.002156
160.087,78.0626,0.002156
160.197,78.0408,0.002194
160.307,78.0188,0.002194
160.415,77.9970,0.002194
160.524,77.9753,0.002204
160.633,77.9536,0.002204
160.741,77.9319,0.002222
160.848,77.9104,0.002222
160.958,77.8883,0.002241
161.069,77.8664,0.002241
161.179,77.8444,0.002241
161.287,77.8226,0.002166
161.396,77.8009,0.002166
161.506,77.7789,0.002213
161.613,77.7574,0.002213
161.722,77.7358,0.002204
161.830,77.7142,0.002204
161.938,77.6925,0.002175
162.046,77.6708,0.002175
162.155,77.6491,0.002175
162.263,77.6274,0.002260
162.373,77.6054,0.002260
162.483,77.5836,0.002269
162.592,77.5618,0.002269
162.702,77.5398,0.002204
162.811,77.5180,0.002204
162.920,77.4960,0.002204
163.029,77.4761,0.002185
163.137,77.4643,0.002185
163.245,77.4613,0.002128
163.355,77.4613,0.002128
163.464,77.4613,0.002128
163.574,77.4613,0.002138
163.683,77.4613,0.002213
163.792,77.4648,0.002213
163.901,77.4773,0.002213
164.011,77.4980,0.002119
164.120,77.5199,0.002119
164.229,77.5417,0.002119
164.337,77.5631,0.002119
164.447,77.5853,0.002185
164.556,77.6070,0.002185
164.664,77.6285,0.002185
164.774,77.6508,0.002175
164.884,77.6725,0.002175
164.993,77.6946,0.002232
165.102,77.7162,0.002232
165.212,77.7383,0.002251
165.320,77.7598,0.002251
165.430,77.7818,0.002222
165.538,77.8036,0.002222
165.647,77.8253,0.002222
165.756,77.8472,0.002194
165.864,77.8686,0.002194
165.973,77.8904,0.002222
166.082,77.9124,0.002222
166.192,77.9342,0.002279
166.303,77.9565,0.002279
166.412,77.9784,0.002279
166.521,78.0001,0.002241
166.631,78.0223,0.002241
166.740,78.0437,0.002204
166.848,78.0654,0.002204
166.957,78.0873,0.002269
167.067,78.1093,0.002269
167.176,78.1310,0.002269
167.285,78.1529,0.002288
167.395,78.1747,0.002288
167.502,78.1962,0.002241
167.610,78.2179,0.002241
167.718,78.2396,0.002241
167.828,78.2614,0.002166
167.937,78.2831,0.002147
168.047,78.3052,0.002147
168.156,78.3269,0.002147
168.264,78.3487,0.002232
168.375,78.3708,0.002232
168.485,78.3930,0.002251
168.592,78.4142,0.002251
168.700,78.4358,0.002213
168.808,78.4574,0.002213
168.917,78.4792,0.002213
169.026,78.5010,0.002185
169.136,78.5230,0.002185
169.246,78.5449,0.002222
169.356,78.5670,0.002222
169.465,78.5889,0.002204
169.575,78.6108,0.002204
169.684,78.6326,0.002156
169.790,78.6541,0.002156
169.900,78.6758,0.002156
170.010,78.6978,0.002175
170.120,78.7199,0.002175
170.229,78.7415,0.002222
170.335,78.7628,0.002222
170.445,78.7848,0.002260
170.554,78.8067,0.002260
170.664,78.8286,0.002260
170.773,78.8505,0.002185
170.883,78.8725,0.002185
170.992,78.8942,0.002138
171.100,78.9157,0.002138
171.209,78.9374,0.002175
171.319,78.9596,0.002175
171.429,78.9817,0.002175
171.539,79.0035,0.002232
171.648,79.0253,0.002232
171.756,79.0471,0.002241
171.864,79.0687,0.002241
171.974,79.0906,0.002260
172.082,79.1122,0.002260
172.192,79.1341,0.002298
172.302,79.1562,0.002298
172.412,79.1782,0.002298
172.519,79.1998,0.002185
172.630,79.2218,0.002185
172.738,79.2435,0.002185
172.847,79.2654,0.002185
172.957,79.2871,0.002241
173.066,79.3089,0.002241
173.175,79.3308,0.002204
173.284,79.3527,0.002204
173.393,79.3743,0.002204
173.501,79.3960,0.002175
173.610,79.4179,0.002175
173.719,79.4396,0.002213
173.829,79.4614,0.002213
173.938,79.4835,0.002213
174.048,79.5052,0.002232
174.156,79.5272,0.002232
174.266,79.5489,0.002185
174.376,79.5711,0.002185
174.484,79.5925,0.002175
174.594,79.6147,0.002175
174.704,79.6366,0.002185
174.813,79.6584,0.002185
174.922,79.6802,0.002185
175.031,79.7019,0.002194
175.140,79.7239,0.002194
175.248,79.7455,0.002175
175.358,79.7675,0.002175
175.467,79.7892,0.002213
175.576,79.8109,0.002213
175.684,79.8326,0.002213
175.792,79.8542,0.002241
175.902,79.8762,0.002241
176.010,79.8978,0.002213
176.121,79.9200,0.002213
176.230,79.9417,0.002232
176.339,79.9635,0.002232
176.450,79.9858,0.002232
176.558,80.0074,0.002232
176.667,80.0291,0.002232
176.775,80.0507,0.002204
176.883,80.0724,0.002204
176.993,80.0946,0.002175
177.103,80.1163,0.002175
177.210,80.1377,0.002166
177.319,80.1596,0.002166
177.429,80.1815,0.002213
177.539,80.2036,0.002213
177.648,80.2253,0.002213
177.757,80.2471,0.002204
177.867,80.2692,0.002204
177.976,80.2910,0.002156
178.085,80.3129,0.002156
178.195,80.3348,0.002185
178.303,80.3563,0.002185
178.412,80.3782,0.002185
178.519,80.3996,0.002213
178.629,80.4218,0.002213
178.739,80.4427,0.002166
178.848,80.4565,0.002166
178.958,80.4613,0.002232
179.066,80.4613,0.002232
179.176,80.4613,0.002232
179.284,80.4613,0.002269
179.393,80.4613,0.002269
179.504,80.4613,0.002194
179.613,80.4613,0.002194
179.723,80.4613,0.002213
179.830,80.4613,0.002213
179.938,80.4613,0.002260
180.048,80.4613,0.002260
180.157,80.4613,0.002260
180.268,80.4613,0.002260
180.376,80.4613,0.002260
180.486,80.4613,0.002222
180.596,80.4613,0.002222
180.705,80.4613,0.002260
180.814,80.4613,0.002260
180.922,80.4613,0.002260
181.033,80.4613,0.002251
181.143,80.4613,0.002251
181.253,80.4613,0.002194
181.364,80.4613,0.002194
181.473,80.4613,0.002222
181.584,80.4613,0.002222
181.693,80.4613,0.002232
181.803,80.4613,0.002232
181.914,80.4613,0.002232
182.023,80.4613,0.002185
182.134,80.4613,0.002185
182.244,80.4613,0.002166
182.353,80.4613,0.002166
182.463,80.4613,0.002175
182.573,80.4613,0.002175
182.684,80.4613,0.002175
182.792,80.4613,0.002175
182.902,80.4613,0.002175
183.012,80.4613,0.002194
183.121,80.4613,0.002194
183.230,80.4590,0.002185
183.340,80.4479,0.002185
183.450,80.4282,0.002260
183.558,80.4063,0.002260
183.669,80.3844,0.002260
183.779,80.3624,0.002298
183.889,80.3403,0.002298
183.998,80.3184,0.002194
184.107,80.2967,0.002194
184.216,80.2750,0.002222
184.325,80.2531,0.002222
184.433,80.2315,0.002213
184.542,80.2096,0.002213
184.651,80.1880,0.002213
184.761,80.1660,0.002204
184.871,80.1438,0.002204
184.981,80.1219,0.002213
185.090,80.1000,0.002213
185.199,80.0785,0.002185
185.309,80.0563,0.002185
185.417,80.0348,0.002185
185.527,80.0127,0.002204
185.636,79.9910,0.002204
185.744,79.9691,0.002175
185.853,79.9475,0.002175
185.962,79.9258,0.002194
186.070,79.9041,0.002194
186.180,79.8821,0.002194
186.289,79.8602,0.002194
186.399,79.8385,0.002194
186.508,79.8165,0.002194
186.618,79.7946,0.002194
186.726,79.7730,0.002269
186.836,79.7509,0.002269
186.946,79.7288,0.002269
187.053,79.7075,0.002260
187.162,79.6857,0.002260
187.272,79.6637,0.002260
187.381,79.6420,0.002260
187.491,79.6199,0.002204
187.600,79.5981,0.002204
187.709,79.5764,0.002185
187.819,79.5543,0.002185
187.929,79.5324,0.002194
188.037,79.5107,0.002194
188.146,79.4889,0.002194
188.256,79.4669,0.002185
188.364,79.4453,0.002185
188.473,79.4235,0.002232
188.584,79.4013,0.002232
188.692,79.3797,0.002194
188.800,79.3580,0.002194
188.910,79.3362,0.002194
189.020,79.3142,0.002232
189.129,79.2923,0.002232
189.239,79.2704,0.002279
189.349,79.2484,0.002279
189.459,79.2264,0.002260
189.570,79.2041,0.002260
189.680,79.1820,0.002213
189.790,79.1602,0.002213
189.899,79.1381,0.002213
190.008,79.1165,0.002175
190.117,79.0947,0.002175
190.227,79.0728,0.002204
190.337,79.0506,0.002204
190.447,79.0287,0.002222
190.558,79.0064,0.002222
190.667,78.9848,0.002222
190.775,78.9632,0.002222
190.884,78.9414,0.002222
190.992,78.9198,0.002213
191.099,78.8984,0.002213
191.210,78.8762,0.002213
191.319,78.8545,0.002213
191.426,78.8330,0.002222
191.536,78.8111,0.002222
191.645,78.7892,0.002222
191.753,78.7677,0.002175
191.862,78.7457,0.002175
191.972,78.7235,0.002185
192.081,78.7019,0.002185
192.192,78.6798,0.002213
192.301,78.6579,0.002213
192.411,78.6358,0.002213
192.522,78.6139,0.002232
192.633,78.5917,0.002232
192.742,78.5698,0.002222
192.852,78.5476,0.002222
192.960,78.5262,0.002166
193.069,78.5044,0.002166
193.179,78.4824,0.002166
193.288,78.4607,0.002166
193.397,78.4386,0.002166
193.505,78.4172,0.002194
193.613,78.3955,0.002194
193.723,78.3736,0.002232
193.833,78.3516,0.002232
193.942,78.3296,0.002260
194.052,78.3078,0.002260
194.162,78.2858,0.002260
194.270,78.2641,0.002204
194.380,78.2422,0.002204
194.490,78.2202,0.002204
194.598,78.1985,0.002204
194.708,78.1766,0.002260
194.817,78.1547,0.002260
194.924,78.1334,0.002222
195.034,78.1114,0.002222
195.143,78.0896,0.002222
195.252,78.0678,0.002194
195.362,78.0457,0.002194
195.471,78.0240,0.002232
195.580,78.0022,0.002232
195.689,77.9804,0.002251
195.798,77.9585,0.002251
195.907,77.9368,0.002251
196.017,77.9149,0.002251
196.127,77.8929,0.002251
196.237,77.8708,0.002251
196.347,77.8489,0.002251
196.457,77.8268,0.002204
196.567,77.8047,0.002204
196.676,77.7829,0.002204
196.785,77.7611,0.002166
196.896,77.7390,0.002166
197.007,77.7169,0.002185
197.116,77.6951,0.002185
197.227,77.6729,0.002194
197.336,77.6510,0.002194
197.446,77.6287,0.002213
197.556,77.6070,0.002213
197.665,77.5852,0.002213
197.773,77.5635,0.002194
197.881,77.5421,0.002194
197.992,77.5199,0.002232
198.100,77.4983,0.002232
198.210,77.4763,0.002232
198.319,77.4542,0.002232
198.429,77.4328,0.002232
198.539,77.4175,0.002194
198.647,77.4115,0.002194
198.755,77.4115,0.002147
198.865,77.4170,0.002147
198.973,77.4316,0.002128
199.083,77.4530,0.002128
199.193,77.4750,0.002166
199.303,77.4970,0.002166
199.412,77.5187,0.002166
199.520,77.5404,0.002251
199.628,77.5621,0.002251
199.738,77.5841,0.002241
199.847,77.6059,0.002241
199.955,77.6274,0.002185
200.063,77.6492,0.002185
200.172,77.6708,0.002185
200.282,77.6929,0.002232
200.393,77.7152,0.002232
200.502,77.7368,0.002241
200.612,77.7587,0.002241
200.719,77.7803,0.002251
200.829,77.8021,0.002251
200.940,77.8246,0.002204
201.051,77.8468,0.002204
201.161,77.8686,0.002204
201.269,77.8903,0.002175
201.379,77.9124,0.002175
201.490,77.9343,0.002232
201.599,77.9564,0.002232
201.707,77.9779,0.002260
201.817,77.9998,0.002260
201.925,78.0215,0.002260
202.036,78.0436,0.002241
202.146,78.0658,0.002241
202.256,78.0879,0.002175
202.367,78.1097,0.002175
202.478,78.1320,0.002156
202.588,78.1541,0.002156
202.697,78.1758,0.002138
202.806,78.1979,0.002138
202.916,78.2196,0.002138
203.025,78.2414,0.002138
203.135,78.2636,0.002138
203.244,78.2852,0.002175
203.353,78.3072,0.002175
203.462,78.3289,0.002204
203.572,78.3508,0.002204
203.681,78.3726,0.002204
203.789,78.3941,0.002213
203.899,78.4163,0.002213
204.010,78.4384,0.002156
204.119,78.4601,0.002156
204.227,78.4818,0.002138
204.335,78.5035,0.002138
204.444,78.5254,0.002166
204.553,78.5469,0.002166
204.663,78.5690,0.002166
204.772,78.5908,0.002147
204.880,78.6125,0.002147
204.991,78.6347,0.002175
205.100,78.6564,0.002175
205.210,78.6786,0.002241
205.318,78.7001,0.002241
205.428,78.7220,0.002194
205.537,78.7438,0.002194
205.646,78.7658,0.002194
205.755,78.7874,0.002147
205.864,78.8092,0.002147
205.974,78.8312,0.002194
206.083,78.8530,0.002194
206.193,78.8751,0.002222
206.303,78.8970,0.002222
206.414,78.9193,0.002222
206.523,78.9409,0.002232
206.632,78.9627,0.002232
206.740,78.9847,0.002232
206.850,79.0064,0.002232
206.959,79.0282,0.002232
207.069,79.0501,0.002232
207.177,79.0719,0.002232
207.286,79.0937,0.002269
207.395,79.1154,0.002269
207.505,79.1375,0.002232
207.615,79.1594,0.002232
207.724,79.1814,0.002241
207.834,79.2031,0.002241
207.941,79.2246,0.002251
208.050,79.2464,0.002251
208.161,79.2686,0.002251
208.270,79.2904,0.002204
208.380,79.3124,0.002204
208.488,79.3341,0.002222
208.596,79.3558,0.002222
208.708,79.3780,0.002175
208.817,79.3997,0.002175
208.925,79.4214,0.002166
209.033,79.4431,0.002166
209.143,79.4649,0.002166
209.253,79.4870,0.002232
209.361,79.5088,0.002232
209.471,79.5305,0.002241
209.580,79.5522,0.002241
209.687,79.5738,0.002185
209.796,79.5956,0.002185
209.905,79.6175,0.002185
210.015,79.6394,0.002128
210.125,79.6612,0.002128
210.234,79.6831,0.002194
210.343,79.7050,0.002194
210.450,79.7264,0.002175
210.559,79.7484,0.002175
210.669,79.7701,0.002175
210.778,79.7920,0.002166
210.887,79.8138,0.002166
210.996,79.8355,0.002175
211.106,79.8575,0.002175
211.213,79.8790,0.002156
211.322,79.9009,0.002156
211.431,79.9226,0.002156
211.539,79.9443,0.002194
211.648,79.9660,0.002194
211.757,79.9877,0.002232
211.867,80.0098,0.002232
211.975,80.0315,0.002213
212.086,80.0537,0.002213
212.197,80.0757,0.002156
212.306,80.0977,0.002156
212.415,80.1194,0.002156
212.523,80.1411,0.002213
212.633,80.1629,0.002213
212.740,80.1845,0.002241
212.850,80.2066,0.002241
212.959,80.2283,0.002222
213.068,80.2501,0.002222
213.178,80.2718,0.002213
213.287,80.2936,0.002213
213.397,80.3157,0.002213
213.508,80.3382,0.002185
213.618,80.3599,0.002185
213.728,80.3818,0.002232
213.837,80.4004,0.002232
213.945,80.4099,0.002298
214.053,80.4113,0.002298
214.161,80.4113,0.002298
214.269,80.4113,0.002241
214.378,80.4113,0.002241
214.488,80.4113,0.002241
214.597,80.4113,0.002241
