Elapsed Time (s),Position (mm),Force (N)
-0.013,65.3003,-0.335973
0.019,65.3003,-0.335973
0.049,65.3003,-0.335973
0.080,65.3003,-0.335973
0.111,65.3003,-0.335973
0.142,65.3003,-0.335973
0.173,65.3003,-0.335973
0.204,65.3003,-0.335973
0.235,65.3003,-0.272937
0.267,65.3003,-0.272937
0.299,65.3003,-0.272937
0.330,65.3003,-0.272937
0.360,65.3003,-0.272937
0.392,65.3003,-0.272937
0.422,65.3003,-0.272937
0.453,65.3003,-0.272937
0.484,65.3003,-0.272937
0.517,65.3003,-0.244746
0.546,65.3003,-0.244746
0.577,65.3003,-0.244746
0.608,65.3003,-0.244746
0.639,65.3003,-0.244746
0.670,65.3003,-0.244746
0.699,65.3003,-0.244746
0.732,65.3003,-0.244746
0.767,65.3003,-0.227620
0.794,65.3003,-0.227620
0.825,65.3003,-0.227620
0.856,65.3003,-0.227620
0.888,65.3003,-0.227620
0.919,65.3003,-0.227620
0.953,65.3003,-0.227620
0.981,65.3003,-0.215444
1.012,65.3003,-0.215444
1.044,65.3003,-0.215444
1.074,65.3003,-0.215444
1.106,65.3003,-0.215444
1.138,65.3003,-0.215444
1.169,65.3003,-0.215444
1.200,65.3003,-0.215444
1.231,65.3003,-0.206477
1.262,65.3003,-0.206477
1.293,65.3003,-0.206477
1.324,65.3003,-0.206477
1.356,65.3003,-0.206477
1.387,65.3003,-0.206477
1.418,65.3003,-0.206477
1.449,65.3003,-0.206477
1.480,65.3003,-0.206477
1.512,65.3003,-0.199429
1.543,65.3003,-0.199429
1.574,65.3003,-0.199429
1.605,65.3003,-0.199429
1.636,65.3003,-0.199429
1.667,65.3003,-0.199429
1.698,65.3003,-0.199429
1.730,65.3003,-0.199429
1.758,65.3003,-0.193520
1.790,65.3003,-0.193520
1.821,65.3003,-0.193520
1.851,65.3003,-0.193520
1.883,65.3003,-0.193520
1.916,65.3003,-0.193520
1.945,65.3003,-0.193520
1.977,65.3003,-0.188636
2.007,65.3003,-0.188636
2.038,65.3003,-0.188636
2.070,65.3003,-0.188636
2.100,65.3003,-0.188636
2.131,65.3003,-0.188636
2.162,65.3003,-0.188636
2.192,65.3003,-0.188636
2.223,65.3003,-0.184486
2.254,65.3003,-0.184486
2.285,65.3003,-0.184486
2.316,65.3003,-0.184486
2.348,65.3003,-0.184486
2.378,65.3003,-0.184486
2.409,65.3003,-0.184486
2.441,65.3003,-0.184486
2.471,65.3003,-0.180816
2.503,65.3003,-0.180816
2.532,65.3003,-0.180816
2.564,65.3003,-0.180816
2.595,65.3003,-0.180816
2.627,65.3003,-0.180816
2.658,65.3003,-0.180816
2.688,65.3003,-0.180816
2.720,65.3003,-0.177542
2.753,65.3003,-0.177542
2.781,65.3003,-0.177542
2.813,65.3003,-0.177542
2.843,65.3003,-0.177542
2.875,65.3003,-0.177542
2.905,65.3003,-0.177542
2.936,65.3003,-0.177542
2.967,65.3003,-0.177542
2.999,65.3003,-0.174625
3.028,65.3003,-0.174625
3.059,65.3003,-0.174625
3.090,65.3003,-0.174625
3.121,65.3003,-0.174625
3.151,65.3003,-0.174625
3.183,65.3003,-0.174625
3.215,65.3003,-0.172103
3.245,65.3003,-0.172103
3.276,65.3003,-0.172103
3.307,65.3003,-0.172103
3.338,65.3003,-0.172103
3.369,65.3003,-0.172103
3.400,65.3003,-0.172103
3.432,65.3003,-0.172103
3.462,65.3003,-0.169807
3.494,65.3003,-0.169807
3.524,65.3003,-0.169807
3.555,65.3003,-0.169807
3.586,65.3003,-0.169807
3.618,65.3003,-0.169807
3.649,65.3003,-0.169807
3.681,65.3003,-0.169807
3.711,65.3003,-0.167483
3.742,65.3003,-0.167483
3.773,65.3003,-0.167483
3.805,65.3003,-0.167483
3.836,65.3003,-0.167483
3.866,65.3003,-0.167483
3.897,65.3003,-0.167483
3.928,65.3003,-0.167483
3.960,65.3003,-0.165243
3.991,65.3003,-0.165243
4.021,65.3003,-0.165243
4.053,65.3003,-0.165243
4.083,65.3003,-0.165243
4.114,65.3003,-0.165243
4.144,65.3003,-0.165243
4.176,65.2998,-0.165243
4.206,65.2987,-0.163249
4.238,65.2966,-0.163249
4.269,65.2940,-0.163249
4.300,65.2907,-0.163249
4.332,65.2864,-0.163249
4.363,65.2817,-0.163249
4.394,65.2761,-0.163249
4.425,65.2697,-0.163249
4.455,65.2629,-0.163249
4.487,65.2551,0.002287
4.517,65.2467,0.002287
4.548,65.2376,0.002287
4.579,65.2276,0.002287
4.610,65.2170,0.002287
4.641,65.2053,0.002287
4.672,65.1934,0.002287
4.703,65.1804,0.002287
4.734,65.1669,0.131773
4.765,65.1526,0.131773
4.797,65.1376,0.131773
4.827,65.1220,0.131773
4.858,65.1049,0.131773
4.888,65.0889,0.131773
4.920,65.0701,0.131773
4.951,65.0518,0.131773
4.981,65.0323,0.131773
5.012,65.0122,0.085007
5.044,64.9915,0.085007
5.075,64.9697,0.085007
5.106,64.9471,0.085007
5.138,64.9240,0.085007
5.169,64.9005,0.085007
5.200,64.8753,0.085007
5.232,64.8497,0.086164
5.263,64.8235,0.086164
5.294,64.7972,0.086164
5.326,64.7681,0.086164
5.355,64.7421,0.086164
5.386,64.7127,0.086164
5.417,64.6838,0.086164
5.448,64.6537,0.086164
5.479,64.6224,0.114911
5.510,64.5902,0.114911
5.540,64.5592,0.114911
5.570,64.5267,0.114911
5.602,64.4922,0.114911
5.634,64.4567,0.114911
5.664,64.4224,0.114911
5.696,64.3847,0.114911
5.726,64.3488,0.148833
5.757,64.3105,0.148833
5.788,64.2729,0.148833
5.820,64.2330,0.148833
5.851,64.1937,0.148833
5.882,64.1529,0.148833
5.914,64.1104,0.148833
5.946,64.0670,0.148833
5.976,64.0254,0.182755
6.008,63.9807,0.182755
6.038,63.9371,0.182755
6.070,63.8912,0.182755
6.100,63.8469,0.182755
6.132,63.7994,0.182755
6.162,63.7521,0.182755
6.194,63.7043,0.182755
6.225,63.6554,0.197735
6.256,63.6059,0.197735
6.288,63.5557,0.197735
6.319,63.5031,0.197735
6.350,63.4524,0.197735
6.381,63.4003,0.197735
6.412,63.3481,0.197735
6.442,63.2961,0.197735
6.473,63.2412,0.196342
6.505,63.1840,0.196342
6.537,63.1278,0.196342
6.568,63.0700,0.196342
6.600,63.0115,0.196342
6.630,62.9545,0.196342
6.660,62.8966,0.196342
6.691,62.8380,0.196342
6.723,62.7767,0.203616
6.753,62.7177,0.203616
6.784,62.6571,0.203616
6.816,62.5985,0.203616
6.846,62.5397,0.203616
6.878,62.4831,0.203616
6.910,62.4236,0.203616
6.941,62.3673,0.203616
6.972,62.3120,0.203616
7.002,62.2585,0.122044
7.034,62.2041,0.122044
7.065,62.1510,0.122044
7.095,62.0994,0.122044
7.126,62.0486,0.122044
7.157,61.9975,0.122044
7.188,61.9478,0.122044
7.219,61.8998,0.023176
7.250,61.8501,0.023176
7.281,61.8024,0.023176
7.312,61.7557,0.023176
7.344,61.7084,0.023176
7.375,61.6620,0.023176
7.406,61.6178,0.023176
7.437,61.5728,0.023176
7.469,61.5284,0.012712
7.500,61.4847,0.012712
7.531,61.4428,0.012712
7.562,61.4015,0.012712
7.594,61.3606,0.012712
7.625,61.3210,0.012712
7.655,61.2818,0.012712
7.686,61.2438,0.012712
7.717,61.2063,0.011508
7.748,61.1696,0.011508
7.778,61.1341,0.011508
7.809,61.0983,0.011508
7.841,61.0632,0.011508
7.871,61.0296,0.011508
7.902,60.9970,0.011508
7.933,60.9635,0.011508
7.965,60.9315,0.011508
7.996,60.8998,0.011508
8.027,60.8703,0.010906
8.058,60.8398,0.010906
8.089,60.8113,0.010906
8.121,60.7818,0.010906
8.152,60.7549,0.010906
8.184,60.7270,0.010906
8.209,60.7059,0.010906
8.245,60.6765,0.010539
8.276,60.6517,0.010539
8.309,60.6271,0.010539
8.340,60.6037,0.010539
8.372,60.5807,0.010539
8.403,60.5585,0.010539
8.435,60.5378,0.010539
8.466,60.5172,0.010539
8.498,60.4979,0.010275
8.528,60.4793,0.010275
8.560,60.4614,0.010275
8.592,60.4437,0.010275
8.622,60.4274,0.010275
8.653,60.4118,0.010275
8.684,60.3968,0.010275
8.716,60.3824,0.010275
8.746,60.3690,0.010275
8.777,60.3563,0.009974
8.808,60.3445,0.009974
8.839,60.3331,0.009974
8.871,60.3221,0.009974
8.902,60.3123,0.009974
8.933,60.3032,0.009974
8.969,60.2934,0.009974
9.009,60.2837,0.009720
9.040,60.2771,0.009720
9.070,60.2714,0.009720
9.102,60.2662,0.009720
9.132,60.2619,0.009720
9.164,60.2580,0.009720
9.194,60.2552,0.009720
9.225,60.2528,0.009720
9.257,60.2513,0.009504
9.287,60.2505,0.009504
9.318,60.2503,0.009504
9.349,60.2503,0.009504
9.380,60.2503,0.009504
9.411,60.2503,0.009504
9.443,60.2503,0.009504
9.474,60.2503,0.009278
9.506,60.2503,0.009278
9.536,60.2503,0.009278
9.566,60.2503,0.009278
9.597,60.2503,0.009278
9.628,60.2503,0.009278
9.658,60.2503,0.009278
9.689,60.2503,0.009278
9.720,60.2503,0.009193
9.750,60.2503,0.009193
9.781,60.2503,0.009193
9.812,60.2503,0.009193
9.842,60.2503,0.009193
9.873,60.2503,0.009193
9.904,60.2503,0.009193
9.935,60.2503,0.009193
9.966,60.2503,0.009137
9.996,60.2508,0.009137
10.028,60.2520,0.009137
10.059,60.2539,0.009137
10.090,60.2565,0.009137
10.121,60.2599,0.009137
10.152,60.2641,0.009137
10.183,60.2689,0.009137
10.213,60.2743,0.008911
10.246,60.2810,0.008911
10.275,60.2875,0.008911
10.306,60.2952,0.008911
10.337,60.3039,0.008911
10.369,60.3130,0.008911
10.399,60.3228,0.008911
10.430,60.3334,0.008911
10.461,60.3445,0.008911
10.492,60.3567,0.008629
10.523,60.3698,0.008629
10.554,60.3834,0.008629
10.586,60.3977,0.008629
10.617,60.4129,0.008629
10.647,60.4281,0.008629
10.677,60.4443,0.008629
10.709,60.4619,0.008318
10.742,60.4809,0.008318
10.772,60.4988,0.008318
10.804,60.5187,0.008318
10.834,60.5381,0.008318
10.865,60.5598,0.008318
10.897,60.5815,0.008318
10.928,60.6037,0.008318
10.959,60.6272,0.008318
10.990,60.6503,0.007848
11.022,60.6755,0.007848
11.052,60.7002,0.007848
11.082,60.7260,0.007848
11.113,60.7524,0.007848
11.145,60.7802,0.007848
11.176,60.8091,0.007848
11.208,60.8383,0.007848
11.239,60.8688,0.007848
11.270,60.8981,0.007349
11.301,60.9301,0.007349
11.332,60.9615,0.007349
11.364,60.9953,0.007349
11.396,61.0285,0.007349
11.427,61.0637,0.007349
11.458,61.0979,0.007349
11.488,61.1323,0.006784
11.518,61.1675,0.006784
11.549,61.2036,0.006784
11.580,61.2424,0.006784
11.611,61.2797,0.006784
11.642,61.3184,0.006784
11.673,61.3592,0.006784
11.704,61.3988,0.006784
11.735,61.4406,0.006041
11.767,61.4834,0.006041
11.797,61.5252,0.006041
11.828,61.5680,0.006041
11.860,61.6135,0.006041
11.891,61.6592,0.006041
11.923,61.7053,0.006041
11.954,61.7521,0.006041
11.984,61.7993,0.006041
12.012,61.8423,0.005109
12.046,61.8950,0.005109
12.077,61.9454,0.005109
12.108,61.9947,0.005109
12.139,62.0443,0.005109
12.170,62.0972,0.005109
12.201,62.1494,0.005109
12.232,62.2020,0.005109
12.263,62.2553,0.003952
12.294,62.3101,0.003952
12.325,62.3647,0.003952
12.356,62.4216,0.003952
12.387,62.4773,0.003952
12.419,62.5365,0.003952
12.450,62.5934,0.003952
12.480,62.6509,0.002315
12.511,62.7108,0.002315
12.542,62.7711,0.002315
12.574,62.8311,0.002315
12.606,62.8922,0.002315
12.636,62.9490,0.002315
12.667,63.0068,0.002315
12.698,63.0634,0.002315
12.729,63.1185,-0.000329
12.761,63.1769,-0.000329
12.790,63.2274,-0.000329
12.821,63.2822,-0.000329
12.852,63.3336,-0.000329
12.884,63.3879,-0.000329
12.915,63.4397,-0.000329
12.946,63.4907,-0.000329
12.977,63.5404,-0.000329
13.008,63.5910,-0.004733
13.038,63.6395,-0.004733
13.071,63.6898,-0.004733
13.100,63.7347,-0.004733
13.132,63.7822,-0.004733
13.163,63.8285,-0.004733
13.195,63.8736,-0.004733
13.226,63.9186,-0.013973
13.257,63.9620,-0.013973
13.288,64.0056,-0.013973
13.319,64.0469,-0.013973
13.350,64.0896,-0.013973
13.381,64.1300,-0.013973
13.412,64.1701,-0.013973
13.444,64.2107,-0.013973
13.475,64.2489,-0.034449
13.505,64.2856,-0.034449
13.535,64.3223,-0.034449
13.566,64.3586,-0.034449
13.597,64.3936,-0.034449
13.628,64.4289,-0.034449
13.659,64.4625,-0.034449
13.689,64.4950,-0.034449
13.720,64.5277,-0.034449
13.752,64.5603,-0.070008
13.781,64.5903,-0.070008
13.812,64.6208,-0.070008
13.843,64.6504,-0.070008
13.874,64.6802,-0.070008
13.905,64.7084,-0.070008
13.937,64.7369,-0.070008
13.968,64.7639,-0.114525
13.998,64.7901,-0.114525
14.029,64.8150,-0.114525
14.061,64.8407,-0.114525
14.092,64.8646,-0.114525
14.124,64.8883,-0.114525
14.155,64.9106,-0.114525
14.186,64.9331,-0.114525
14.217,64.9538,-0.163681
14.248,64.9749,-0.163681
14.280,64.9946,-0.163681
14.313,65.0147,-0.163681
14.343,65.0323,-0.163681
14.375,65.0505,-0.163681
14.406,65.0668,-0.163681
14.440,65.0853,-0.163681
14.467,65.0977,-0.245395
14.498,65.1122,-0.245395
14.529,65.1261,-0.245395
14.559,65.1390,-0.245395
14.591,65.1516,-0.245395
14.620,65.1625,-0.245395
14.651,65.1737,-0.245395
14.682,65.1836,-0.245395
14.712,65.1928,-0.394068
14.743,65.2015,-0.394068
14.774,65.2097,-0.394068
14.805,65.2172,-0.394068
14.836,65.2237,-0.394068
14.867,65.2295,-0.394068
14.898,65.2346,-0.394068
14.929,65.2391,-0.394068
14.960,65.2428,-0.560864
14.992,65.2458,-0.560864
15.022,65.2480,-0.560864
15.053,65.2495,-0.560864
15.083,65.2502,-0.560864
15.114,65.2503,-0.560864
15.145,65.2503,-0.560864
15.177,65.2503,-0.560864
15.207,65.2503,-0.560864
15.238,65.2503,-0.586468
15.270,65.2503,-0.586468
15.301,65.2503,-0.586468
15.332,65.2503,-0.586468
15.362,65.2503,-0.586468
15.393,65.2503,-0.586468
15.424,65.2503,-0.586468
15.455,65.2503,-0.586468
15.486,65.2503,-0.444899
15.520,65.2503,-0.444899
15.547,65.2503,-0.444899
15.581,65.2503,-0.444899
15.610,65.2503,-0.444899
15.640,65.2503,-0.444899
15.671,65.2503,-0.444899
15.703,65.2503,-0.444899
15.733,65.2503,-0.444899
15.764,65.2503,-0.315930
15.795,65.2503,-0.315930
15.826,65.2503,-0.315930
15.858,65.2503,-0.315930
15.888,65.2503,-0.315930
15.919,65.2503,-0.315930
15.951,65.2503,-0.315930
15.981,65.2503,-0.264017
16.012,65.2503,-0.264017
16.042,65.2503,-0.264017
16.072,65.2503,-0.264017
16.103,65.2503,-0.264017
16.134,65.2503,-0.264017
16.166,65.2503,-0.264017
16.197,65.2503,-0.264017
16.228,65.2503,-0.238385
16.259,65.2503,-0.238385
16.290,65.2503,-0.238385
16.322,65.2503,-0.238385
16.352,65.2503,-0.238385
16.382,65.2503,-0.238385
16.413,65.2503,-0.238385
16.444,65.2503,-0.238385
16.475,65.2503,-0.222962
16.506,65.2503,-0.222962
16.537,65.2503,-0.222962
16.567,65.2503,-0.222962
16.598,65.2503,-0.222962
16.629,65.2503,-0.222962
16.659,65.2503,-0.222962
16.689,65.2503,-0.222962
16.720,65.2503,-0.212104
16.750,65.2503,-0.212104
16.780,65.2503,-0.212104
16.812,65.2503,-0.212104
16.842,65.2503,-0.212104
16.874,65.2503,-0.212104
16.904,65.2503,-0.212104
16.934,65.2503,-0.212104
16.966,65.2503,-0.212104
16.996,65.2503,-0.203748
17.027,65.2503,-0.203748
17.059,65.2503,-0.203748
17.090,65.2503,-0.203748
17.122,65.2503,-0.203748
17.153,65.2503,-0.203748
17.184,65.2503,-0.203748
17.215,65.2503,-0.203748
17.247,65.2503,-0.197010
17.279,65.2503,-0.197010
17.308,65.2503,-0.197010
17.339,65.2503,-0.197010
17.369,65.2503,-0.197010
17.401,65.2503,-0.197010
17.432,65.2503,-0.197010
17.463,65.2503,-0.197010
17.494,65.2503,-0.191384
17.528,65.2503,-0.191384
17.556,65.2503,-0.191384
17.588,65.2503,-0.191384
17.618,65.2503,-0.191384
17.648,65.2503,-0.191384
17.679,65.2503,-0.191384
17.714,65.2503,-0.191384
17.741,65.2503,-0.186745
17.772,65.2503,-0.186745
17.803,65.2503,-0.186745
17.840,65.2503,-0.186745
17.866,65.2503,-0.186745
17.896,65.2503,-0.186745
17.927,65.2503,-0.186745
17.957,65.2503,-0.186745
17.989,65.2503,-0.182764
18.020,65.2503,-0.182764
18.050,65.2503,-0.182764
18.081,65.2503,-0.182764
18.112,65.2503,-0.182764
18.144,65.2503,-0.182764
18.173,65.2503,-0.182764
18.206,65.2503,-0.182764
18.237,65.2503,-0.179198
18.268,65.2503,-0.179198
18.298,65.2503,-0.179198
18.330,65.2503,-0.179198
18.361,65.2503,-0.179198
18.392,65.2503,-0.179198
18.423,65.2503,-0.179198
18.454,65.2503,-0.179198
18.485,65.2503,-0.179198
18.516,65.2503,-0.176046
18.547,65.2503,-0.176046
18.578,65.2503,-0.176046
18.609,65.2503,-0.176046
18.641,65.2503,-0.176046
18.671,65.2503,-0.176046
18.701,65.2503,-0.176046
18.732,65.2503,-0.173232
18.763,65.2503,-0.173232
18.793,65.2503,-0.173232
18.824,65.2503,-0.173232
18.855,65.2503,-0.173232
18.885,65.2503,-0.173232
18.916,65.2503,-0.173232
18.947,65.2503,-0.173232
18.979,65.2503,-0.170635
19.009,65.2503,-0.170635
19.040,65.2503,-0.170635
19.071,65.2503,-0.170635
19.102,65.2503,-0.170635
19.133,65.2503,-0.170635
19.163,65.2503,-0.170635
19.195,65.2503,-0.170635
19.226,65.2503,-0.168367
19.257,65.2503,-0.168367
19.288,65.2503,-0.168367
19.318,65.2503,-0.168367
19.349,65.2503,-0.168367
19.380,65.2503,-0.168367
19.410,65.2503,-0.168367
19.441,65.2503,-0.168367
19.472,65.2503,-0.166203
19.503,65.2503,-0.166203
19.534,65.2503,-0.166203
19.565,65.2503,-0.166203
19.596,65.2503,-0.166203
19.627,65.2503,-0.166203
19.657,65.2503,-0.166203
19.688,65.2503,-0.166203
19.719,65.2503,-0.163860
19.750,65.2503,-0.163860
19.782,65.2503,-0.163860
19.813,65.2503,-0.163860
19.845,65.2503,-0.163860
19.876,65.2503,-0.163860
19.907,65.2503,-0.163860
19.939,65.2503,-0.163860
19.970,65.2503,-0.161912
20.001,65.2500,-0.161912
20.032,65.2490,-0.161912
20.062,65.2472,-0.161912
20.093,65.2449,-0.161912
20.125,65.2417,-0.161912
20.155,65.2377,-0.161912
20.187,65.2330,-0.161912
20.218,65.2276,-0.113142
20.248,65.2217,-0.113142
20.279,65.2149,-0.113142
20.311,65.2071,-0.113142
20.341,65.1990,-0.113142
20.371,65.1902,-0.113142
20.402,65.1805,-0.113142
20.434,65.1700,-0.113142
20.465,65.1586,-0.113142
20.495,65.1469,0.111119
20.527,65.1338,0.111119
20.558,65.1210,0.111119
20.589,65.1070,0.111119
20.619,65.0918,0.111119
20.650,65.0765,0.111119
20.681,65.0605,0.111119
20.713,65.0431,0.111119
20.743,65.0257,0.178671
20.774,65.0070,0.178671
20.805,64.9882,0.178671
20.836,64.9676,0.178671
20.868,64.9470,0.178671
20.899,64.9250,0.178671
20.930,64.9034,0.178671
20.961,64.8805,0.178671
20.992,64.8571,0.079992
21.024,64.8318,0.079992
21.056,64.8066,0.079992
21.087,64.7804,0.079992
21.117,64.7547,0.079992
21.148,64.7272,0.079992
21.179,64.6994,0.079992
21.211,64.6705,0.079992
21.241,64.6410,0.105125
21.272,64.6111,0.105125
21.303,64.5801,0.105125
21.335,64.5485,0.105125
21.368,64.5131,0.105125
21.397,64.4831,0.105125
21.428,64.4493,0.105125
21.459,64.4142,0.137325
21.490,64.3796,0.137325
21.523,64.3414,0.137325
21.552,64.3074,0.137325
21.583,64.2683,0.137325
21.616,64.2270,0.137325
21.645,64.1914,0.137325
21.676,64.1522,0.137325
21.707,64.1117,0.137325
21.738,64.0704,0.170682
21.769,64.0285,0.170682
21.804,63.9808,0.170682
21.831,63.9428,0.170682
21.862,63.8989,0.170682
21.893,63.8546,0.170682
21.925,63.8081,0.170682
21.955,63.7639,0.170682
21.986,63.7160,0.190141
22.017,63.6685,0.190141
22.048,63.6203,0.190141
22.082,63.5665,0.190141
22.109,63.5224,0.190141
22.141,63.4712,0.190141
22.172,63.4190,0.190141
22.206,63.3632,0.190141
22.234,63.3153,0.190141
22.265,63.2614,0.191440
22.296,63.2074,0.191440
22.323,63.1592,0.191440
22.357,63.0985,0.191440
22.389,63.0399,0.191440
22.421,62.9832,0.191440
22.452,62.9239,0.191440
22.483,62.8654,0.197848
22.515,62.8032,0.197848
22.543,62.7508,0.197848
22.574,62.6901,0.197848
22.605,62.6297,0.197848
22.636,62.5716,0.197848
22.668,62.5115,0.197848
22.699,62.4519,0.197848
22.730,62.3968,0.197848
22.760,62.3414,0.164604
22.792,62.2846,0.164604
22.823,62.2304,0.164604
22.853,62.1778,0.164604
22.884,62.1243,0.164604
22.915,62.0727,0.164604
22.945,62.0214,0.164604
22.976,61.9702,0.068785
23.007,61.9198,0.068785
23.039,61.8691,0.068785
23.070,61.8212,0.068785
23.101,61.7721,0.068785
23.132,61.7249,0.068785
23.163,61.6774,0.068785
23.194,61.6320,0.068785
23.225,61.5861,0.068785
23.257,61.5415,0.013446
23.287,61.4976,0.013446
23.317,61.4558,0.013446
23.349,61.4116,0.013446
23.375,61.3778,0.013446
23.412,61.3280,0.013446
23.442,61.2900,0.013446
23.474,61.2493,0.011734
23.505,61.2105,0.011734
23.537,61.1711,0.011734
23.568,61.1338,0.011734
23.599,61.0972,0.011734
23.630,61.0617,0.011734
23.660,61.0278,0.011734
23.691,60.9934,0.011734
23.722,60.9593,0.010962
23.752,60.9280,0.010962
23.784,60.8946,0.010962
23.815,60.8639,0.010962
23.845,60.8331,0.010962
23.875,60.8046,0.010962
23.907,60.7742,0.010962
23.939,60.7456,0.010962
23.968,60.7183,0.010624
24.000,60.6914,0.010624
24.030,60.6649,0.010624
24.062,60.6393,0.010624
24.094,60.6131,0.010624
24.126,60.5890,0.010624
24.156,60.5657,0.010624
24.187,60.5434,0.010624
24.218,60.5211,0.010398
24.249,60.4999,0.010398
24.280,60.4793,0.010398
24.311,60.4592,0.010398
24.343,60.4402,0.010398
24.374,60.4220,0.010398
24.404,60.4043,0.010398
24.435,60.3878,0.010398
24.466,60.3718,0.010191
24.499,60.3550,0.010191
24.530,60.3409,0.010191
24.560,60.3270,0.010191
24.591,60.3142,0.010191
24.622,60.3014,0.010191
24.653,60.2895,0.010191
24.685,60.2780,0.010191
24.715,60.2681,0.009946
24.746,60.2588,0.009946
24.777,60.2498,0.009946
24.810,60.2413,0.009946
24.840,60.2342,0.009946
24.871,60.2274,0.009946
24.902,60.2216,0.009946
24.933,60.2164,0.009946
24.964,60.2120,0.009946
24.995,60.2082,0.009720
25.026,60.2052,0.009720
25.058,60.2028,0.009720
25.088,60.2013,0.009720
25.119,60.2005,0.009720
25.150,60.2004,0.009720
25.180,60.2004,0.009720
25.211,60.2004,0.009476
25.243,60.2004,0.009476
25.273,60.2004,0.009476
25.305,60.2004,0.009476
25.337,60.2004,0.009476
25.367,60.2004,0.009476
25.398,60.2004,0.009476
25.429,60.2004,0.009476
25.461,60.2004,0.009476
25.492,60.2004,0.009476
25.523,60.2004,0.009287
25.555,60.2004,0.009287
25.585,60.2004,0.009287
25.616,60.2004,0.009287
25.646,60.2004,0.009287
25.677,60.2004,0.009287
25.708,60.2004,0.009287
25.739,60.2004,0.009184
25.770,60.2005,0.009184
25.801,60.2011,0.009184
25.834,60.2026,0.009184
25.863,60.2046,0.009184
25.894,60.2075,0.009184
25.926,60.2110,0.009184
25.957,60.2155,0.009184
25.987,60.2204,0.009052
26.018,60.2260,0.009052
26.049,60.2326,0.009052
26.080,60.2398,0.009052
26.111,60.2476,0.009052
26.143,60.2567,0.009052
26.173,60.2658,0.009052
26.205,60.2761,0.009052
26.235,60.2869,0.008798
26.268,60.2990,0.008798
26.297,60.3107,0.008798
26.329,60.3245,0.008798
26.360,60.3381,0.008798
26.391,60.3528,0.008798
26.423,60.3683,0.008798
26.455,60.3845,0.008798
26.485,60.4009,0.008365
26.517,60.4188,0.008365
26.547,60.4366,0.008365
26.577,60.4547,0.008365
26.608,60.4744,0.008365
26.640,60.4955,0.008365
26.671,60.5171,0.008365
26.702,60.5382,0.008365
26.734,60.5616,0.007857
26.765,60.5848,0.007857
26.797,60.6100,0.007857
26.827,60.6339,0.007857
26.859,60.6601,0.007857
26.890,60.6864,0.007857
26.922,60.7143,0.007857
26.953,60.7422,0.007857
26.985,60.7712,0.007396
27.017,60.8009,0.007396
27.048,60.8320,0.007396
27.079,60.8614,0.007396
27.109,60.8924,0.007396
27.140,60.9250,0.007396
27.170,60.9565,0.007396
27.202,60.9899,0.007396
27.233,61.0246,0.006897
27.264,61.0600,0.006897
27.294,61.0952,0.006897
27.325,61.1309,0.006897
27.355,61.1679,0.006897
27.387,61.2053,0.006897
27.417,61.2441,0.006897
27.448,61.2828,0.006897
27.480,61.3245,0.006286
27.512,61.3657,0.006286
27.542,61.4072,0.006286
27.573,61.4488,0.006286
27.604,61.4914,0.006286
27.635,61.5345,0.006286
27.665,61.5789,0.006286
27.693,61.6191,0.006286
27.728,61.6704,0.005476
27.759,61.7172,0.005476
27.790,61.7647,0.005476
27.821,61.8137,0.005476
27.853,61.8629,0.005476
27.883,61.9118,0.005476
27.914,61.9609,0.005476
27.945,62.0121,0.005476
27.976,62.0654,0.004225
28.008,62.1173,0.004225
28.038,62.1698,0.004225
28.068,62.2222,0.004225
28.100,62.2790,0.004225
28.132,62.3341,0.004225
28.164,62.3935,0.004225
28.194,62.4485,0.004225
28.226,62.5084,0.002644
28.257,62.5662,0.002644
28.288,62.6254,0.002644
28.319,62.6838,0.002644
28.350,62.7464,0.002644
28.381,62.8039,0.002644
28.412,62.8641,0.002644
28.444,62.9214,0.002644
28.475,62.9796,0.000442
28.506,63.0350,0.000442
28.536,63.0902,0.000442
28.567,63.1465,0.000442
28.598,63.1989,0.000442
28.629,63.2531,0.000442
28.660,63.3060,0.000442
28.691,63.3585,0.000442
28.722,63.4097,0.000442
28.754,63.4616,-0.003312
28.784,63.5100,-0.003312
28.815,63.5605,-0.003312
28.847,63.6089,-0.003312
28.878,63.6575,-0.003312
28.909,63.7041,-0.003312
28.940,63.7519,-0.003312
28.971,63.7960,-0.011103
29.002,63.8413,-0.011103
29.032,63.8847,-0.011103
29.063,63.9279,-0.011103
29.094,63.9697,-0.011103
29.125,64.0126,-0.011103
29.156,64.0531,-0.011103
29.188,64.0947,-0.011103
29.219,64.1335,-0.028756
29.249,64.1717,-0.028756
29.279,64.2094,-0.028756
29.311,64.2486,-0.028756
29.342,64.2849,-0.028756
29.373,64.3223,-0.028756
29.405,64.3570,-0.028756
29.436,64.3928,-0.028756
29.465,64.4240,-0.061492
29.498,64.4599,-0.061492
29.528,64.4909,-0.061492
29.560,64.5239,-0.061492
29.591,64.5544,-0.061492
29.621,64.5847,-0.061492
29.652,64.6131,-0.061492
29.684,64.6436,-0.061492
29.715,64.6709,-0.104720
29.746,64.6986,-0.104720
29.777,64.7258,-0.104720
29.807,64.7511,-0.104720
29.838,64.7757,-0.104720
29.869,64.8005,-0.104720
29.901,64.8243,-0.104720
29.932,64.8480,-0.104720
29.963,64.8702,-0.152286
29.995,64.8920,-0.152286
30.026,64.9131,-0.152286
30.058,64.9338,-0.152286
30.087,64.9518,-0.152286
30.118,64.9707,-0.152286
30.149,64.9885,-0.152286
30.179,65.0054,-0.152286
30.210,65.0218,-0.222567
30.241,65.0378,-0.222567
30.272,65.0523,-0.222567
30.303,65.0665,-0.222567
30.334,65.0806,-0.222567
30.365,65.0931,-0.222567
30.395,65.1052,-0.222567
30.427,65.1164,-0.222567
30.458,65.1274,-0.222567
30.488,65.1371,-0.357841
30.520,65.1465,-0.357841
30.551,65.1548,-0.357841
30.583,65.1629,-0.357841
30.613,65.1699,-0.357841
30.645,65.1763,-0.357841
30.675,65.1816,-0.357841
30.707,65.1866,-0.357841
30.738,65.1907,-0.529351
30.772,65.1945,-0.529351
30.800,65.1969,-0.529351
30.831,65.1987,-0.529351
30.863,65.1999,-0.529351
30.894,65.2004,-0.529351
30.925,65.2004,-0.529351
30.955,65.2004,-0.529351
30.986,65.2004,-0.596244
31.017,65.2004,-0.596244
31.047,65.2004,-0.596244
31.083,65.2004,-0.596244
31.110,65.2004,-0.596244
31.141,65.2004,-0.596244
31.171,65.2004,-0.596244
31.204,65.2004,-0.596244
31.233,65.2004,-0.475189
31.264,65.2004,-0.475189
31.295,65.2004,-0.475189
31.327,65.2004,-0.475189
31.357,65.2004,-0.475189
31.387,65.2004,-0.475189
31.418,65.2004,-0.475189
31.449,65.2004,-0.475189
31.480,65.2004,-0.475189
31.511,65.2004,-0.329875
31.542,65.2004,-0.329875
31.573,65.2004,-0.329875
31.604,65.2004,-0.329875
31.635,65.2004,-0.329875
31.665,65.2004,-0.329875
31.696,65.2004,-0.329875
31.727,65.2004,-0.272580
31.760,65.2004,-0.272580
31.790,65.2004,-0.272580
31.821,65.2004,-0.272580
31.852,65.2004,-0.272580
31.877,65.2004,-0.272580
31.914,65.2004,-0.272580
31.946,65.2004,-0.272580
31.977,65.2004,-0.243711
32.009,65.2004,-0.243711
32.040,65.2004,-0.243711
32.070,65.2004,-0.243711
32.101,65.2004,-0.243711
32.132,65.2004,-0.243711
32.163,65.2004,-0.243711
32.195,65.2004,-0.243711
32.226,65.2004,-0.226049
32.256,65.2004,-0.226049
32.286,65.2004,-0.226049
32.317,65.2004,-0.226049
32.348,65.2004,-0.226049
32.379,65.2004,-0.226049
32.410,65.2004,-0.226049
32.441,65.2004,-0.226049
32.473,65.2004,-0.226049
32.503,65.2004,-0.213750
32.534,65.2004,-0.213750
32.566,65.2004,-0.213750
32.597,65.2004,-0.213750
32.627,65.2004,-0.213750
32.659,65.2004,-0.213750
32.689,65.2004,-0.213750
32.720,65.2004,-0.213750
32.752,65.2004,-0.204595
32.782,65.2004,-0.204595
32.813,65.2004,-0.204595
32.845,65.2004,-0.204595
32.875,65.2004,-0.204595
32.907,65.2004,-0.204595
32.937,65.2004,-0.204595
32.969,65.2004,-0.204595
33.000,65.2004,-0.197481
33.031,65.2004,-0.197481
33.062,65.2004,-0.197481
33.093,65.2004,-0.197481
33.125,65.2004,-0.197481
33.155,65.2004,-0.197481
33.185,65.2004,-0.197481
33.216,65.2004,-0.197481
33.248,65.2004,-0.191685
33.278,65.2004,-0.191685
33.309,65.2004,-0.191685
33.341,65.2004,-0.191685
33.372,65.2004,-0.191685
33.403,65.2004,-0.191685
33.434,65.2004,-0.191685
33.465,65.2004,-0.191685
33.496,65.2004,-0.186820
33.527,65.2004,-0.186820
33.558,65.2004,-0.186820
33.589,65.2004,-0.186820
33.619,65.2004,-0.186820
33.649,65.2004,-0.186820
33.680,65.2004,-0.186820
33.711,65.2004,-0.186820
33.742,65.2004,-0.182633
33.773,65.2004,-0.182633
33.804,65.2004,-0.182633
33.836,65.2004,-0.182633
33.867,65.2004,-0.182633
33.900,65.2004,-0.182633
33.929,65.2004,-0.182633
33.960,65.2004,-0.182633
33.990,65.2004,-0.178963
34.021,65.2004,-0.178963
34.052,65.2004,-0.178963
34.083,65.2004,-0.178963
34.114,65.2004,-0.178963
34.145,65.2004,-0.178963
34.176,65.2004,-0.178963
34.208,65.2004,-0.178963
34.238,65.2004,-0.178963
34.269,65.2004,-0.175763
34.300,65.2004,-0.175763
34.332,65.2004,-0.175763
34.362,65.2004,-0.175763
34.393,65.2004,-0.175763
34.424,65.2004,-0.175763
34.455,65.2004,-0.175763
34.486,65.2004,-0.172950
34.517,65.2004,-0.172950
34.548,65.2004,-0.172950
34.580,65.2004,-0.172950
34.610,65.2004,-0.172950
34.641,65.2004,-0.172950
34.672,65.2004,-0.172950
34.703,65.2004,-0.172950
34.734,65.2004,-0.170278
34.765,65.2004,-0.170278
34.797,65.2004,-0.170278
34.828,65.2004,-0.170278
34.858,65.2004,-0.170278
34.889,65.2004,-0.170278
34.920,65.2004,-0.170278
34.950,65.2004,-0.170278
34.982,65.2004,-0.167850
35.011,65.2004,-0.167850
35.042,65.2004,-0.167850
35.073,65.2004,-0.167850
35.104,65.2004,-0.167850
35.134,65.2001,-0.167850
35.165,65.1992,-0.167850
35.197,65.1976,-0.167850
35.226,65.1954,-0.166081
35.258,65.1923,-0.166081
35.289,65.1885,-0.166081
35.320,65.1839,-0.166081
35.350,65.1788,-0.166081
35.381,65.1727,-0.166081
35.412,65.1663,-0.166081
35.444,65.1586,-0.166081
35.474,65.1505,-0.001289
35.506,65.1415,-0.001289
35.537,65.1320,-0.001289
35.567,65.1215,-0.001289
35.598,65.1107,-0.001289
35.629,65.0987,-0.001289
35.660,65.0864,-0.001289
35.691,65.0730,-0.001289
35.722,65.0596,0.124857
35.753,65.0443,0.124857
35.785,65.0285,0.124857
35.817,65.0120,0.124857
35.847,64.9955,0.124857
35.880,64.9772,0.124857
35.910,64.9593,0.124857
35.941,64.9402,0.124857
35.972,64.9198,0.080509
36.002,64.9000,0.080509
36.032,64.8794,0.080509
36.063,64.8572,0.080509
36.095,64.8342,0.080509
36.127,64.8101,0.080509
36.156,64.7871,0.080509
36.188,64.7611,0.080509
36.219,64.7364,0.087595
36.250,64.7100,0.087595
36.281,64.6831,0.087595
36.312,64.6547,0.087595
36.343,64.6256,0.087595
36.374,64.5966,0.087595
36.406,64.5667,0.087595
36.437,64.5355,0.087595
36.468,64.5040,0.087595
36.499,64.4721,0.117715
36.530,64.4390,0.117715
36.561,64.4056,0.117715
36.592,64.3706,0.117715
36.623,64.3354,0.117715
36.655,64.2986,0.117715
36.686,64.2622,0.117715
36.717,64.2247,0.117715
36.748,64.1868,0.154036
36.779,64.1470,0.154036
36.810,64.1076,0.154036
36.842,64.0678,0.154036
36.872,64.0275,0.154036
36.903,63.9857,0.154036
36.935,63.9423,0.154036
36.965,63.8990,0.154036
36.995,63.8572,0.154036
37.026,63.8120,0.192861
37.057,63.7680,0.192861
37.088,63.7211,0.192861
37.119,63.6757,0.192861
37.150,63.6274,0.192861
37.181,63.5801,0.192861
37.210,63.5332,0.192861
37.241,63.4846,0.213590
37.273,63.4324,0.213590
37.303,63.3821,0.213590
37.334,63.3301,0.213590
37.366,63.2758,0.213590
37.396,63.2247,0.213590
37.427,63.1715,0.213590
37.458,63.1168,0.213590
37.489,63.0619,0.211191
37.520,63.0054,0.211191
37.551,62.9491,0.211191
37.581,62.8919,0.211191
37.611,62.8352,0.211191
37.644,62.7741,0.211191
37.673,62.7163,0.211191
37.705,62.6545,0.211191
37.736,62.5954,0.213572
37.765,62.5384,0.213572
37.796,62.4813,0.213572
37.830,62.4162,0.213572
37.857,62.3673,0.213572
37.887,62.3115,0.213572
37.917,62.2591,0.213572
37.948,62.2036,0.213572
37.979,62.1501,0.125026
38.009,62.0973,0.125026
38.040,62.0455,0.125026
38.071,61.9921,0.125026
38.101,61.9430,0.125026
38.132,61.8920,0.125026
38.163,61.8409,0.125026
38.196,61.7906,0.125026
38.225,61.7446,0.021793
38.256,61.6971,0.021793
38.287,61.6502,0.021793
38.319,61.6024,0.021793
38.349,61.5580,0.021793
38.380,61.5123,0.021793
38.411,61.4696,0.021793
38.442,61.4248,0.021793
38.472,61.3845,0.012637
38.503,61.3416,0.012637
38.532,61.3030,0.012637
38.563,61.2629,0.012637
38.593,61.2233,0.012637
38.624,61.1846,0.012637
38.656,61.1452,0.012637
38.687,61.1077,0.012637
38.718,61.0701,0.011499
38.749,61.0343,0.011499
38.780,60.9984,0.011499
38.812,60.9633,0.011499
38.844,60.9287,0.011499
38.874,60.8954,0.011499
38.906,60.8625,0.011499
38.936,60.8314,0.011499
38.968,60.7994,0.010962
38.998,60.7694,0.010962
39.028,60.7407,0.010962
39.060,60.7107,0.010962
39.091,60.6827,0.010962
39.122,60.6553,0.010962
39.154,60.6284,0.010962
39.187,60.6003,0.010962
39.216,60.5761,0.010558
39.248,60.5516,0.010558
39.279,60.5277,0.010558
39.310,60.5040,0.010558
39.340,60.4826,0.010558
39.371,60.4607,0.010558
39.402,60.4402,0.010558
39.434,60.4193,0.010558
39.465,60.4003,0.010558
39.496,60.3807,0.010247
39.527,60.3636,0.010247
39.558,60.3460,0.010247
39.588,60.3300,0.010247
39.619,60.3140,0.010247
39.650,60.2993,0.010247
39.681,60.2848,0.010247
39.712,60.2712,0.010247
39.743,60.2585,0.010021
39.774,60.2460,0.010021
39.805,60.2351,0.010021
39.835,60.2244,0.010021
39.866,60.2144,0.010021
39.898,60.2048,0.010021
39.928,60.1966,0.010021
39.959,60.1887,0.010021
39.989,60.1818,0.009777
40.021,60.1751,0.009777
40.052,60.1696,0.009777
40.083,60.1646,0.009777
40.114,60.1604,0.009777
40.145,60.1571,0.009777
40.176,60.1542,0.009777
40.207,60.1522,0.009777
40.239,60.1510,0.009504
40.268,60.1504,0.009504
40.300,60.1504,0.009504
40.332,60.1504,0.009504
40.362,60.1504,0.009504
40.391,60.1504,0.009504
40.422,60.1504,0.009504
40.453,60.1504,0.009504
40.483,60.1504,0.009334
40.515,60.1504,0.009334
40.544,60.1504,0.009334
40.575,60.1504,0.009334
40.606,60.1504,0.009334
40.638,60.1504,0.009334
40.668,60.1504,0.009334
40.700,60.1504,0.009334
40.732,60.1504,0.009221
40.762,60.1504,0.009221
40.793,60.1504,0.009221
40.824,60.1504,0.009221
40.855,60.1504,0.009221
40.888,60.1504,0.009221
40.918,60.1504,0.009221
40.948,60.1505,0.009221
40.980,60.1512,0.009137
41.012,60.1527,0.009137
41.042,60.1548,0.009137
41.073,60.1578,0.009137
41.104,60.1614,0.009137
41.138,60.1662,0.009137
41.166,60.1708,0.009137
41.196,60.1765,0.009137
41.227,60.1830,0.008911
41.258,60.1904,0.008911
41.290,60.1985,0.008911
41.321,60.2071,0.008911
41.351,60.2167,0.008911
41.383,60.2269,0.008911
41.413,60.2374,0.008911
41.443,60.2488,0.008911
41.475,60.2614,0.008911
41.506,60.2746,0.008525
41.536,60.2882,0.008525
41.568,60.3026,0.008525
41.599,60.3181,0.008525
41.630,60.3338,0.008525
41.661,60.3505,0.008525
41.691,60.3675,0.008525
41.722,60.3863,0.008525
41.754,60.4050,0.008205
41.785,60.4250,0.008205
41.815,60.4444,0.008205
41.846,60.4660,0.008205
41.877,60.4872,0.008205
41.908,60.5104,0.008205
41.939,60.5326,0.008205
41.971,60.5575,0.008205
42.001,60.5821,0.007754
42.033,60.6083,0.007754
42.062,60.6322,0.007754
42.092,60.6590,0.007754
42.123,60.6853,0.007754
42.157,60.7179,0.007754
42.185,60.7433,0.007754
42.216,60.7728,0.007754
42.246,60.8026,0.007264
42.283,60.8398,0.007264
42.308,60.8665,0.007264
42.339,60.8984,0.007264
42.369,60.9305,0.007264
42.400,60.9648,0.007264
42.434,61.0030,0.007264
42.462,61.0344,0.007264
42.496,61.0747,0.006690
42.524,61.1080,0.006690
42.554,61.1448,0.006690
42.585,61.1829,0.006690
42.620,61.2274,0.006690
42.648,61.2629,0.006690
42.679,61.3049,0.006690
42.710,61.3447,0.006690
42.741,61.3878,0.005947
42.771,61.4278,0.005947
42.801,61.4718,0.005947
42.833,61.5162,0.005947
42.864,61.5611,0.005947
42.895,61.6064,0.005947
42.926,61.6534,0.005947
42.956,61.6999,0.005128
42.987,61.7463,0.005128
43.017,61.7934,0.005128
43.049,61.8442,0.005128
43.079,61.8930,0.005128
43.110,61.9426,0.005128
43.141,61.9950,0.005128
43.171,62.0457,0.005128
43.202,62.0982,0.005128
43.233,62.1512,0.004131
43.263,62.2047,0.004131
43.294,62.2589,0.004131
43.324,62.3138,0.004131
43.355,62.3689,0.004131
43.386,62.4279,0.004131
43.417,62.4862,0.004131
43.448,62.5438,0.004131
43.479,62.6043,0.002324
43.510,62.6632,0.002324
43.541,62.7227,0.002324
43.572,62.7819,0.002324
43.604,62.8414,0.002324
43.634,62.8991,0.002324
43.665,62.9539,0.002324
43.696,63.0097,0.002324
43.729,63.0709,-0.000753
43.757,63.1190,-0.000753
43.789,63.1741,-0.000753
43.819,63.2271,-0.000753
43.850,63.2794,-0.000753
43.880,63.3300,-0.000753
43.912,63.3819,-0.000753
43.944,63.4332,-0.000753
43.975,63.4840,-0.000753
44.006,63.5322,-0.005740
44.037,63.5815,-0.005740
44.068,63.6287,-0.005740
44.099,63.6756,-0.005740
44.130,63.7209,-0.005740
44.161,63.7662,-0.005740
44.192,63.8096,-0.005740
44.222,63.8540,-0.016156
44.253,63.8961,-0.016156
44.290,63.9462,-0.016156
44.316,63.9813,-0.016156
44.348,64.0234,-0.016156
44.381,64.0655,-0.016156
44.410,64.1028,-0.016156
44.442,64.1444,-0.016156
44.472,64.1793,-0.016156
44.503,64.2170,-0.038599
44.534,64.2531,-0.038599
44.567,64.2924,-0.038599
44.596,64.3239,-0.038599
44.627,64.3590,-0.038599
44.658,64.3927,-0.038599
44.690,64.4260,-0.038599
44.721,64.4580,-0.038599
44.752,64.4895,-0.075786
44.783,64.5206,-0.075786
44.813,64.5489,-0.075786
44.845,64.5790,-0.075786
44.876,64.6080,-0.075786
44.907,64.6348,-0.075786
44.939,64.6631,-0.075786
44.969,64.6890,-0.120500
45.001,64.7143,-0.120500
45.032,64.7395,-0.120500
45.063,64.7638,-0.120500
45.094,64.7869,-0.120500
45.125,64.8096,-0.120500
45.154,64.8304,-0.120500
45.186,64.8524,-0.120500
45.217,64.8727,-0.170598
45.249,64.8929,-0.170598
45.279,64.9114,-0.170598
45.310,64.9299,-0.170598
45.341,64.9472,-0.170598
45.373,64.9646,-0.170598
45.403,64.9803,-0.170598
45.435,64.9963,-0.170598
45.466,65.0105,-0.257505
45.497,65.0247,-0.257505
45.528,65.0378,-0.257505
45.560,65.0504,-0.257505
45.590,65.0618,-0.257505
45.622,65.0730,-0.257505
45.652,65.0829,-0.257505
45.683,65.0928,-0.257505
45.715,65.1016,-0.411975
45.746,65.1098,-0.411975
45.777,65.1171,-0.411975
45.809,65.1238,-0.411975
45.840,65.1298,-0.411975
45.871,65.1349,-0.411975
45.902,65.1391,-0.411975
45.932,65.1428,-0.411975
45.963,65.1458,-0.574169
45.995,65.1480,-0.574169
46.025,65.1495,-0.574169
46.056,65.1503,-0.574169
46.087,65.1504,-0.574169
46.119,65.1504,-0.574169
46.150,65.1504,-0.574169
46.180,65.1504,-0.574169
46.212,65.1504,-0.575186
46.243,65.1504,-0.575186
46.274,65.1504,-0.575186
46.305,65.1504,-0.575186
46.337,65.1504,-0.575186
46.368,65.1504,-0.575186
46.399,65.1504,-0.575186
46.431,65.1504,-0.575186
46.461,65.1504,-0.575186
46.492,65.1504,-0.575186
46.523,65.1504,-0.425685
46.555,65.1504,-0.425685
46.587,65.1504,-0.425685
46.619,65.1504,-0.425685
46.648,65.1504,-0.425685
46.679,65.1504,-0.425685
46.710,65.1504,-0.425685
46.741,65.1504,-0.425685
46.772,65.1504,-0.309870
46.805,65.1504,-0.309870
46.835,65.1504,-0.309870
46.865,65.1504,-0.309870
46.896,65.1504,-0.309870
46.927,65.1504,-0.309870
46.956,65.1504,-0.309870
46.987,65.1504,-0.261288
47.019,65.1504,-0.261288
47.049,65.1504,-0.261288
47.081,65.1504,-0.261288
47.112,65.1504,-0.261288
47.143,65.1504,-0.261288
47.173,65.1504,-0.261288
47.204,65.1504,-0.261288
47.235,65.1504,-0.236296
47.266,65.1504,-0.236296
47.297,65.1504,-0.236296
47.327,65.1504,-0.236296
47.358,65.1504,-0.236296
47.389,65.1504,-0.236296
47.420,65.1504,-0.236296
47.451,65.1504,-0.236296
47.482,65.1504,-0.221410
47.514,65.1504,-0.221410
47.546,65.1504,-0.221410
47.577,65.1504,-0.221410
47.608,65.1504,-0.221410
47.638,65.1504,-0.221410
47.669,65.1504,-0.221410
47.699,65.1504,-0.221410
47.730,65.1504,-0.210927
47.762,65.1504,-0.210927
47.793,65.1504,-0.210927
47.823,65.1504,-0.210927
47.854,65.1504,-0.210927
47.885,65.1504,-0.210927
47.916,65.1504,-0.210927
47.947,65.1504,-0.210927
47.979,65.1504,-0.210927
48.010,65.1504,-0.202844
48.042,65.1504,-0.202844
48.072,65.1504,-0.202844
48.103,65.1504,-0.202844
48.135,65.1504,-0.202844
48.166,65.1504,-0.202844
48.197,65.1504,-0.202844
48.228,65.1504,-0.202844
48.261,65.1504,-0.196314
48.291,65.1504,-0.196314
48.322,65.1504,-0.196314
48.354,65.1504,-0.196314
48.384,65.1504,-0.196314
48.416,65.1504,-0.196314
48.447,65.1504,-0.196314
48.478,65.1504,-0.196314
48.508,65.1504,-0.190838
48.540,65.1504,-0.190838
48.570,65.1504,-0.190838
48.602,65.1504,-0.190838
48.632,65.1504,-0.190838
48.663,65.1504,-0.190838
48.693,65.1504,-0.190838
48.724,65.1504,-0.190838
48.755,65.1504,-0.186208
48.786,65.1504,-0.186208
48.817,65.1504,-0.186208
48.847,65.1504,-0.186208
48.875,65.1504,-0.186208
48.908,65.1504,-0.186208
48.940,65.1504,-0.186208
48.970,65.1504,-0.182228
49.001,65.1504,-0.182228
49.032,65.1504,-0.182228
49.063,65.1504,-0.182228
49.094,65.1504,-0.182228
49.126,65.1504,-0.182228
49.156,65.1504,-0.182228
49.187,65.1504,-0.182228
49.217,65.1504,-0.178699
49.250,65.1504,-0.178699
49.280,65.1504,-0.178699
49.312,65.1504,-0.178699
49.343,65.1504,-0.178699
49.375,65.1504,-0.178699
49.405,65.1504,-0.178699
49.435,65.1504,-0.178699
49.466,65.1504,-0.175547
49.498,65.1504,-0.175547
49.528,65.1504,-0.175547
49.558,65.1504,-0.175547
49.589,65.1504,-0.175547
49.619,65.1504,-0.175547
49.651,65.1504,-0.175547
49.682,65.1504,-0.175547
49.714,65.1504,-0.172799
49.746,65.1504,-0.172799
49.777,65.1504,-0.172799
49.808,65.1504,-0.172799
49.839,65.1504,-0.172799
49.870,65.1504,-0.172799
49.901,65.1504,-0.172799
49.932,65.1504,-0.172799
49.963,65.1504,-0.170259
49.994,65.1504,-0.170259
50.025,65.1504,-0.170259
50.056,65.1504,-0.170259
50.087,65.1504,-0.170259
50.120,65.1504,-0.170259
50.148,65.1504,-0.170259
50.180,65.1504,-0.170259
50.211,65.1504,-0.167925
50.242,65.1504,-0.167925
50.273,65.1504,-0.167925
50.304,65.1504,-0.167925
50.336,65.1504,-0.167925
50.367,65.1504,-0.167925
50.397,65.1504,-0.167925
50.429,65.1504,-0.167925
50.459,65.1504,-0.167925
50.490,65.1504,-0.167925
50.521,65.1504,-0.165789
50.553,65.1504,-0.165789
50.583,65.1504,-0.165789
50.615,65.1504,-0.165789
50.647,65.1504,-0.165789
50.677,65.1504,-0.165789
50.709,65.1504,-0.165789
50.740,65.1504,-0.163672
50.771,65.1504,-0.163672
50.803,65.1504,-0.163672
50.835,65.1504,-0.163672
50.865,65.1504,-0.163672
50.897,65.1504,-0.163672
50.928,65.1504,-0.163672
50.959,65.1504,-0.163672
50.991,65.1504,-0.161517
51.022,65.1504,-0.161517
51.053,65.1504,-0.161517
51.085,65.1503,-0.161517
51.116,65.1495,-0.161517
51.147,65.1479,-0.161517
51.178,65.1458,-0.161517
51.210,65.1426,-0.161517
51.242,65.1388,-0.161517
51.271,65.1345,-0.157876
51.302,65.1295,-0.157876
51.333,65.1235,-0.157876
51.365,65.1168,-0.157876
51.395,65.1096,-0.157876
51.428,65.1011,-0.157876
51.458,65.0926,-0.157876
51.488,65.0833,-0.157876
51.518,65.0731,0.142453
51.550,65.0621,0.142453
51.579,65.0508,0.142453
51.610,65.0386,0.142453
51.641,65.0251,0.142453
51.672,65.0117,0.142453
51.703,64.9967,0.142453
51.735,64.9816,0.257524
51.766,64.9655,0.257524
51.796,64.9490,0.257524
51.827,64.9319,0.257524
51.858,64.9130,0.257524
51.889,64.8940,0.257524
51.920,64.8744,0.257524
51.951,64.8540,0.257524
51.982,64.8328,0.077978
52.014,64.8102,0.077978
52.046,64.7875,0.077978
52.077,64.7639,0.077978
52.108,64.7406,0.077978
52.139,64.7154,0.077978
52.170,64.6896,0.077978
52.201,64.6635,0.077978
52.232,64.6364,0.095170
52.263,64.6083,0.095170
52.294,64.5800,0.095170
52.326,64.5504,0.095170
52.356,64.5212,0.095170
52.388,64.4888,0.095170
52.419,64.4581,0.095170
52.452,64.4235,0.095170
52.484,64.3905,0.125883
52.513,64.3589,0.125883
52.543,64.3253,0.125883
52.574,64.2906,0.125883
52.605,64.2549,0.125883
52.636,64.2183,0.125883
52.667,64.1818,0.125883
52.698,64.1442,0.125883
52.728,64.1057,0.161865
52.759,64.0655,0.161865
52.791,64.0260,0.161865
52.822,63.9842,0.161865
52.853,63.9426,0.161865
52.884,63.9005,0.161865
52.915,63.8573,0.161865
52.946,63.8127,0.161865
52.978,63.7683,0.195721
53.009,63.7225,0.195721
53.039,63.6778,0.195721
53.071,63.6301,0.195721
53.102,63.5822,0.195721
53.133,63.5346,0.195721
53.164,63.4851,0.195721
53.195,63.4360,0.195721
53.226,63.3840,0.208716
53.258,63.3327,0.208716
53.288,63.2827,0.208716
53.319,63.2316,0.208716
53.350,63.1762,0.208716
53.381,63.1221,0.208716
53.412,63.0672,0.208716
53.442,63.0141,0.208716
53.473,62.9593,0.207079
53.505,62.9006,0.207079
53.536,62.8434,0.207079
53.567,62.7841,0.207079
53.598,62.7258,0.207079
53.629,62.6640,0.207079
53.660,62.6042,0.207079
53.691,62.5466,0.207079
53.722,62.4856,0.210335
53.753,62.4277,0.210335
53.784,62.3699,0.210335
53.816,62.3116,0.210335
53.845,62.2573,0.210335
53.877,62.2006,0.210335
53.908,62.1464,0.210335
53.940,62.0905,0.210335
53.970,62.0375,0.116003
54.002,61.9832,0.116003
54.033,61.9301,0.116003
54.065,61.8789,0.116003
54.095,61.8295,0.116003
54.126,61.7807,0.116003
54.157,61.7311,0.116003
54.188,61.6828,0.116003
54.219,61.6354,0.116003
54.250,61.5878,0.015639
54.281,61.5406,0.015639
54.312,61.4950,0.015639
54.344,61.4505,0.015639
54.374,61.4066,0.015639
54.406,61.3630,0.015639
54.437,61.3199,0.015639
54.468,61.2785,0.012270
54.500,61.2362,0.012270
54.532,61.1947,0.012270
54.561,61.1577,0.012270
54.592,61.1187,0.012270
54.623,61.0802,0.012270
54.655,61.0426,0.012270
54.685,61.0066,0.012270
54.716,60.9700,0.012270
54.748,60.9348,0.011292
54.778,60.9016,0.011292
54.810,60.8670,0.011292
54.839,60.8354,0.011292
54.870,60.8027,0.011292
54.901,60.7709,0.011292
54.932,60.7409,0.011292
54.963,60.7105,0.010831
54.994,60.6817,0.010831
55.026,60.6520,0.010831
55.055,60.6245,0.010831
55.086,60.5979,0.010831
55.117,60.5717,0.010831
55.148,60.5454,0.010831
55.179,60.5202,0.010831
55.210,60.4955,0.010831
55.241,60.4727,0.010492
55.271,60.4499,0.010492
55.301,60.4286,0.010492
55.332,60.4067,0.010492
55.363,60.3864,0.010492
55.395,60.3659,0.010492
55.429,60.3447,0.010492
55.456,60.3282,0.010492
55.487,60.3111,0.010162
55.518,60.2936,0.010162
55.549,60.2770,0.010162
55.580,60.2615,0.010162
55.611,60.2460,0.010162
55.643,60.2322,0.010162
55.673,60.2187,0.010162
55.705,60.2058,0.010162
55.736,60.1939,0.009908
55.766,60.1825,0.009908
55.798,60.1721,0.009908
55.829,60.1622,0.009908
55.860,60.1529,0.009908
55.891,60.1444,0.009908
55.922,60.1367,0.009908
55.953,60.1297,0.009908
55.984,60.1237,0.009683
56.016,60.1180,0.009683
56.046,60.1134,0.009683
56.078,60.1093,0.009683
56.109,60.1061,0.009683
56.140,60.1036,0.009683
56.173,60.1016,0.009683
56.202,60.1006,0.009400
56.233,60.1003,0.009400
56.264,60.1003,0.009400
56.295,60.1003,0.009400
56.326,60.1003,0.009400
56.356,60.1003,0.009400
56.387,60.1003,0.009400
56.417,60.1003,0.009400
56.448,60.1003,0.009400
56.480,60.1003,0.009400
56.511,60.1003,0.009193
56.543,60.1003,0.009193
56.573,60.1003,0.009193
56.605,60.1003,0.009193
56.636,60.1003,0.009193
56.667,60.1003,0.009193
56.698,60.1003,0.009193
56.729,60.1003,0.009193
56.760,60.1003,0.009127
56.791,60.1008,0.009127
56.822,60.1020,0.009127
56.853,60.1039,0.009127
56.884,60.1065,0.009127
56.915,60.1099,0.009127
56.946,60.1142,0.009127
56.978,60.1192,0.009127
57.009,60.1246,0.008958
57.039,60.1308,0.008958
57.071,60.1380,0.008958
57.102,60.1458,0.008958
57.132,60.1542,0.008958
57.164,60.1636,0.008958
57.195,60.1734,0.008958
57.226,60.1840,0.008958
57.256,60.1953,0.008666
57.288,60.2078,0.008666
57.318,60.2202,0.008666
57.350,60.2341,0.008666
57.381,60.2482,0.008666
57.413,60.2640,0.008666
57.444,60.2797,0.008666
57.476,60.2967,0.008666
57.507,60.3141,0.008252
57.538,60.3322,0.008252
57.569,60.3507,0.008252
57.600,60.3705,0.008252
57.631,60.3910,0.008252
57.663,60.4121,0.008252
57.693,60.4333,0.008252
57.724,60.4561,0.008252
57.755,60.4788,0.007857
57.785,60.5021,0.007857
57.817,60.5269,0.007857
57.847,60.5516,0.007857
57.878,60.5776,0.007857
57.910,60.6055,0.007857
57.940,60.6318,0.007857
57.971,60.6597,0.007857
58.002,60.6883,0.007443
58.031,60.7169,0.007443
58.062,60.7471,0.007443
58.093,60.7777,0.007443
58.123,60.8094,0.007443
58.156,60.8430,0.007443
58.186,60.8755,0.007443
58.218,60.9100,0.007443
58.249,60.9457,0.006794
58.280,60.9796,0.006794
58.310,61.0144,0.006794
58.341,61.0520,0.006794
58.372,61.0897,0.006794
58.404,61.1289,0.006794
58.434,61.1670,0.006794
58.466,61.2082,0.006794
58.497,61.2489,0.006097
58.527,61.2883,0.006097
58.558,61.3296,0.006097
58.588,61.3719,0.006097
58.619,61.4148,0.006097
58.650,61.4585,0.006097
58.681,61.5037,0.006097
58.712,61.5495,0.006097
58.743,61.5962,0.005364
58.774,61.6430,0.005364
58.805,61.6910,0.005364
58.836,61.7386,0.005364
58.869,61.7910,0.005364
58.897,61.8370,0.005364
58.928,61.8876,0.005364
58.962,61.9442,0.005364
58.989,61.9893,0.005364
59.021,62.0438,0.004272
59.052,62.0970,0.004272
59.084,62.1525,0.004272
59.114,62.2063,0.004272
59.144,62.2608,0.004272
59.174,62.3147,0.004272
59.205,62.3735,0.004272
59.237,62.4318,0.002710
59.272,62.4978,0.002710
59.300,62.5505,0.002710
59.331,62.6119,0.002710
59.362,62.6715,0.002710
59.397,62.7381,0.002710
59.424,62.7891,0.002710
59.455,62.8473,0.002710
59.486,62.9022,0.000339
59.517,62.9600,0.000339
59.548,63.0143,0.000339
59.578,63.0677,0.000339
59.609,63.1226,0.000339
59.640,63.1765,0.000339
59.671,63.2265,0.000339
59.702,63.2799,0.000339
59.733,63.3308,-0.003613
59.765,63.3817,-0.003613
59.797,63.4344,-0.003613
59.826,63.4803,-0.003613
59.858,63.5288,-0.003613
59.890,63.5779,-0.003613
59.921,63.6248,-0.003613
59.951,63.6695,-0.003613
59.982,63.7146,-0.011809
60.013,63.7598,-0.011809
60.043,63.8025,-0.011809
60.075,63.8461,-0.011809
60.105,63.8873,-0.011809
60.136,63.9295,-0.011809
60.167,63.9700,-0.011809
60.198,64.0091,-0.011809
60.230,64.0513,-0.011809
60.260,64.0890,-0.030130
60.291,64.1263,-0.030130
60.321,64.1627,-0.030130
60.355,64.2033,-0.030130
60.383,64.2348,-0.030130
60.414,64.2702,-0.030130
60.445,64.3038,-0.030130
60.476,64.3375,-0.030130
60.506,64.3701,-0.063318
60.537,64.4023,-0.063318
60.568,64.4346,-0.063318
60.600,64.4659,-0.063318
60.631,64.4960,-0.063318
60.662,64.5253,-0.063318
60.693,64.5542,-0.063318
60.724,64.5815,-0.063318
60.755,64.6079,-0.106734
60.786,64.6343,-0.106734
60.817,64.6597,-0.106734
60.848,64.6848,-0.106734
60.879,64.7092,-0.106734
60.910,64.7325,-0.106734
60.942,64.7559,-0.106734
60.972,64.7782,-0.106734
61.004,64.7991,-0.154234
61.035,64.8205,-0.154234
61.066,64.8401,-0.154234
61.096,64.8584,-0.154234
61.127,64.8770,-0.154234
61.158,64.8949,-0.154234
61.189,64.9119,-0.154234
61.220,64.9278,-0.154234
61.252,64.9435,-0.154234
61.283,64.9583,-0.224101
61.314,64.9723,-0.224101
61.345,64.9858,-0.224101
61.376,64.9982,-0.224101
61.407,65.0101,-0.224101
61.438,65.0213,-0.224101
61.469,65.0316,-0.224101
61.500,65.0409,-0.358650
61.535,65.0512,-0.358650
61.562,65.0581,-0.358650
61.593,65.0657,-0.358650
61.624,65.0724,-0.358650
61.656,65.0787,-0.358650
61.685,65.0837,-0.358650
61.718,65.0884,-0.358650
61.747,65.0918,-0.528674
61.777,65.0949,-0.528674
61.809,65.0974,-0.528674
61.841,65.0992,-0.528674
61.871,65.1000,-0.528674
61.902,65.1003,-0.528674
61.934,65.1003,-0.528674
61.965,65.1003,-0.528674
61.997,65.1003,-0.593563
62.027,65.1003,-0.593563
62.059,65.1003,-0.593563
62.089,65.1003,-0.593563
62.120,65.1003,-0.593563
62.152,65.1003,-0.593563
62.182,65.1003,-0.593563
62.213,65.1003,-0.593563
62.245,65.1003,-0.472827
62.275,65.1003,-0.472827
62.305,65.1003,-0.472827
62.337,65.1003,-0.472827
62.368,65.1003,-0.472827
62.397,65.1003,-0.472827
62.428,65.1003,-0.472827
62.460,65.1003,-0.472827
62.491,65.1003,-0.328784
62.522,65.1003,-0.328784
62.552,65.1003,-0.328784
62.583,65.1003,-0.328784
62.614,65.1003,-0.328784
62.646,65.1003,-0.328784
62.677,65.1003,-0.328784
62.708,65.1003,-0.271554
62.739,65.1003,-0.271554
62.771,65.1003,-0.271554
62.802,65.1003,-0.271554
62.833,65.1003,-0.271554
62.864,65.1003,-0.271554
62.896,65.1003,-0.271554
62.926,65.1003,-0.271554
62.957,65.1003,-0.271554
62.988,65.1003,-0.242779
63.018,65.1003,-0.242779
63.049,65.1003,-0.242779
63.082,65.1003,-0.242779
63.111,65.1003,-0.242779
63.142,65.1003,-0.242779
63.172,65.1003,-0.242779
63.202,65.1003,-0.242779
63.232,65.1003,-0.242779
63.264,65.1003,-0.225080
63.294,65.1003,-0.225080
63.326,65.1003,-0.225080
63.356,65.1003,-0.225080
63.387,65.1003,-0.225080
63.418,65.1003,-0.225080
63.449,65.1003,-0.225080
63.481,65.1003,-0.212856
63.512,65.1003,-0.212856
63.544,65.1003,-0.212856
63.575,65.1003,-0.212856
63.605,65.1003,-0.212856
63.637,65.1003,-0.212856
63.669,65.1003,-0.212856
63.700,65.1003,-0.212856
63.730,65.1003,-0.212856
63.761,65.1003,-0.203757
63.792,65.1003,-0.203757
63.823,65.1003,-0.203757
63.854,65.1003,-0.203757
63.885,65.1003,-0.203757
63.916,65.1003,-0.203757
63.947,65.1003,-0.203757
63.977,65.1003,-0.196662
64.008,65.1003,-0.196662
64.039,65.1003,-0.196662
64.071,65.1003,-0.196662
64.101,65.1003,-0.196662
64.132,65.1003,-0.196662
64.162,65.1003,-0.196662
64.193,65.1003,-0.196662
64.224,65.1003,-0.190904
64.255,65.1003,-0.190904
64.286,65.1003,-0.190904
64.317,65.1003,-0.190904
64.348,65.1003,-0.190904
64.378,65.1003,-0.190904
64.409,65.1003,-0.190904
64.441,65.1003,-0.190904
64.472,65.1003,-0.190904
64.504,65.1003,-0.185992
64.534,65.1003,-0.185992
64.565,65.1003,-0.185992
64.596,65.1003,-0.185992
64.628,65.1003,-0.185992
64.659,65.1003,-0.185992
64.690,65.1003,-0.185992
64.720,65.1003,-0.181776
64.751,65.1003,-0.181776
64.782,65.1003,-0.181776
64.813,65.1003,-0.181776
64.844,65.1003,-0.181776
64.875,65.1003,-0.181776
64.905,65.1003,-0.181776
64.936,65.1003,-0.181776
64.966,65.1003,-0.178125
64.998,65.1003,-0.178125
65.028,65.1003,-0.178125
65.060,65.1003,-0.178125
65.090,65.1003,-0.178125
65.120,65.1003,-0.178125
65.152,65.1003,-0.178125
65.183,65.1003,-0.178125
65.214,65.1003,-0.174935
65.245,65.1003,-0.174935
65.276,65.1003,-0.174935
65.307,65.1003,-0.174935
65.338,65.1003,-0.174935
65.369,65.1003,-0.174935
65.400,65.1003,-0.174935
65.431,65.1003,-0.174935
65.462,65.1003,-0.174935
65.492,65.1003,-0.172103
65.523,65.1003,-0.172103
65.554,65.1003,-0.172103
65.586,65.1003,-0.172103
65.617,65.1003,-0.172103
65.647,65.1003,-0.172103
65.678,65.1003,-0.172103
65.709,65.1003,-0.169393
65.741,65.1003,-0.169393
65.771,65.1003,-0.169393
65.802,65.1003,-0.169393
65.832,65.1003,-0.169393
65.863,65.1003,-0.169393
65.895,65.1003,-0.169393
65.926,65.1003,-0.169393
65.956,65.1003,-0.169393
65.987,65.1003,-0.169393
66.024,65.1003,-0.166909
66.064,65.1003,-0.166909
66.095,65.1003,-0.166909
66.127,65.1003,-0.166909
66.159,65.1002,-0.166909
66.190,65.0995,-0.166909
66.221,65.0982,-0.166909
66.252,65.0961,-0.164923
66.283,65.0931,-0.164923
66.313,65.0896,-0.164923
66.346,65.0851,-0.164923
66.376,65.0802,-0.164923
66.408,65.0744,-0.164923
66.438,65.0679,-0.164923
66.469,65.0607,-0.164923
66.500,65.0529,-0.076585
66.532,65.0438,-0.076585
66.564,65.0343,-0.076585
66.594,65.0242,-0.076585
66.625,65.0136,-0.076585
66.656,65.0019,-0.076585
66.686,64.9899,-0.076585
66.717,64.9769,-0.076585
66.748,64.9631,0.064080
66.779,64.9483,0.064080
66.811,64.9330,0.064080
66.845,64.9154,0.064080
66.872,64.9005,0.064080
66.904,64.8829,0.064080
66.935,64.8649,0.064080
66.966,64.8453,0.094163
66.997,64.8262,0.094163
67.028,64.8057,0.094163
67.059,64.7848,0.094163
67.089,64.7631,0.094163
67.123,64.7387,0.094163
67.152,64.7177,0.094163
67.182,64.6938,0.094163
67.213,64.6688,0.094163
67.244,64.6440,0.083502
67.275,64.6176,0.083502
67.305,64.5917,0.083502
67.340,64.5599,0.083502
67.367,64.5363,0.083502
67.399,64.5053,0.083502
67.429,64.4767,0.083502
67.460,64.4464,0.083502
67.490,64.4167,0.111796
67.521,64.3842,0.111796
67.552,64.3517,0.111796
67.583,64.3186,0.111796
67.614,64.2842,0.111796
67.646,64.2485,0.111796
67.677,64.2123,0.111796
67.708,64.1767,0.111796
67.739,64.1393,0.111796
67.770,64.1024,0.145822
67.801,64.0637,0.145822
67.832,64.0242,0.145822
67.863,63.9838,0.145822
67.894,63.9435,0.145822
67.925,63.9023,0.145822
67.955,63.8604,0.145822
67.986,63.8182,0.180130
68.017,63.7741,0.180130
68.048,63.7308,0.180130
68.079,63.6847,0.180130
68.111,63.6389,0.180130
68.142,63.5920,0.180130
68.171,63.5477,0.180130
68.203,63.4984,0.180130
68.233,63.4509,0.195891
68.265,63.4005,0.195891
68.295,63.3525,0.195891
68.326,63.3024,0.195891
68.355,63.2528,0.195891
68.387,63.1994,0.195891
68.417,63.1478,0.195891
68.449,63.0925,0.195891
68.480,63.0385,0.195373
68.514,62.9767,0.195373
68.542,62.9258,0.195373
68.573,62.8697,0.195373
68.604,62.8129,0.195373
68.635,62.7529,0.195373
68.667,62.6950,0.195373
68.698,62.6348,0.195373
68.729,62.5742,0.203287
68.760,62.5134,0.203287
68.791,62.4554,0.203287
68.822,62.3966,0.203287
68.852,62.3399,0.203287
68.884,62.2816,0.203287
68.914,62.2264,0.203287
68.945,62.1703,0.203287
68.976,62.1144,0.122618
69.011,62.0531,0.122618
69.038,62.0061,0.122618
69.070,61.9527,0.122618
69.101,61.8998,0.122618
69.132,61.8483,0.122618
69.164,61.7957,0.122618
69.196,61.7449,0.122618
69.225,61.6966,0.023675
69.257,61.6490,0.023675
69.287,61.6028,0.023675
69.317,61.5557,0.023675
69.348,61.5091,0.023675
69.379,61.4635,0.023675
69.410,61.4196,0.023675
69.441,61.3737,0.023675
69.472,61.3311,0.012628
69.503,61.2868,0.012628
69.535,61.2457,0.012628
69.566,61.2033,0.012628
69.597,61.1635,0.012628
69.629,61.1220,0.012628
69.659,61.0838,0.012628
69.690,61.0452,0.012628
69.721,61.0084,0.011442
69.752,60.9691,0.011442
69.783,60.9343,0.011442
69.814,60.8987,0.011442
69.846,60.8640,0.011442
69.877,60.8294,0.011442
69.908,60.7953,0.011442
69.939,60.7638,0.011442
69.969,60.7328,0.010915
70.000,60.7020,0.010915
70.030,60.6718,0.010915
70.061,60.6419,0.010915
70.093,60.6131,0.010915
70.123,60.5848,0.010915
70.155,60.5570,0.010915
70.186,60.5300,0.010915
70.218,60.5026,0.010511
70.248,60.4780,0.010511
70.279,60.4539,0.010511
70.310,60.4298,0.010511
70.341,60.4069,0.010511
70.372,60.3845,0.010511
70.404,60.3625,0.010511
70.435,60.3414,0.010511
70.466,60.3207,0.010511
70.497,60.3016,0.010200
70.528,60.2828,0.010200
70.559,60.2650,0.010200
70.590,60.2476,0.010200
70.621,60.2311,0.010200
70.652,60.2147,0.010200
70.683,60.1997,0.010200
70.715,60.1846,0.010200
70.746,60.1712,0.009984
70.777,60.1583,0.009984
70.809,60.1462,0.009984
70.841,60.1340,0.009984
70.872,60.1235,0.009984
70.903,60.1137,0.009984
70.934,60.1044,0.009984
70.965,60.0959,0.009984
70.996,60.0879,0.009711
71.027,60.0810,0.009711
71.057,60.0748,0.009711
71.088,60.0691,0.009711
71.119,60.0643,0.009711
71.149,60.0603,0.009711
71.181,60.0567,0.009711
71.212,60.0540,0.009419
71.244,60.0520,0.009419
71.274,60.0508,0.009419
71.305,60.0503,0.009419
71.337,60.0503,0.009419
71.368,60.0503,0.009419
71.399,60.0503,0.009419
71.430,60.0504,0.009419
71.461,60.0513,0.009184
71.492,60.0529,0.009184
71.524,60.0552,0.009184
71.555,60.0582,0.009184
71.585,60.0619,0.009184
71.616,60.0665,0.009184
71.646,60.0716,0.009184
71.677,60.0772,0.009184
71.708,60.0841,0.008873
71.739,60.0913,0.008873
71.771,60.0999,0.008873
71.801,60.1082,0.008873
71.832,60.1179,0.008873
71.863,60.1279,0.008873
71.893,60.1388,0.008873
71.924,60.1504,0.008873
71.955,60.1630,0.008506
71.986,60.1764,0.008506
72.017,60.1898,0.008506
72.048,60.2043,0.008506
72.079,60.2197,0.008506
72.110,60.2358,0.008506
72.141,60.2528,0.008506
72.172,60.2707,0.008506
72.203,60.2888,0.008506
72.234,60.3079,0.008186
72.265,60.3271,0.008186
72.296,60.3478,0.008186
72.327,60.3690,0.008186
72.360,60.3921,0.008186
72.390,60.4140,0.008186
72.421,60.4370,0.008186
72.451,60.4609,0.007810
72.482,60.4855,0.007810
72.513,60.5109,0.007810
72.544,60.5376,0.007810
72.574,60.5636,0.007810
72.606,60.5921,0.007810
72.636,60.6193,0.007810
72.666,60.6487,0.007810
72.697,60.6780,0.007810
72.729,60.7095,0.007283
72.760,60.7399,0.007283
72.791,60.7722,0.007283
72.822,60.8050,0.007283
72.852,60.8380,0.007283
72.883,60.8721,0.007283
72.914,60.9075,0.007283
72.946,60.9438,0.007283
72.977,60.9806,0.007283
73.008,61.0169,0.006643
73.039,61.0561,0.006643
73.071,61.0943,0.006643
73.102,61.1345,0.006643
73.134,61.1751,0.006643
73.164,61.2157,0.006643
73.195,61.2560,0.006643
73.226,61.2986,0.006643
73.256,61.3408,0.005956
73.287,61.3847,0.005956
73.319,61.4294,0.005956
73.350,61.4749,0.005956
73.380,61.5198,0.005956
73.411,61.5668,0.005956
73.442,61.6130,0.005956
73.474,61.6626,0.005956
73.503,61.7092,0.005062
73.536,61.7617,0.005062
73.566,61.8106,0.005062
73.597,61.8612,0.005062
73.628,61.9139,0.005062
73.658,61.9646,0.005062
73.689,62.0166,0.005062
73.720,62.0709,0.005062
73.751,62.1250,0.005062
73.782,62.1801,0.003820
73.814,62.2372,0.003820
73.844,62.2936,0.003820
73.875,62.3510,0.003820
73.906,62.4093,0.003820
73.937,62.4685,0.003820
73.969,62.5296,0.003820
74.000,62.5898,0.002014
74.031,62.6491,0.002014
74.062,62.7079,0.002014
74.093,62.7665,0.002014
74.124,62.8231,0.002014
74.155,62.8806,0.002014
74.186,62.9356,0.002014
74.217,62.9903,0.002014
74.249,63.0466,-0.000743
74.280,63.1005,-0.000743
74.310,63.1510,-0.000743
74.341,63.2037,-0.000743
74.371,63.2532,-0.000743
74.403,63.3060,-0.000743
74.433,63.3549,-0.000743
74.465,63.4052,-0.000743
74.495,63.4527,-0.005749
74.526,63.5000,-0.005749
74.556,63.5460,-0.005749
74.587,63.5914,-0.005749
74.617,63.6364,-0.005749
74.649,63.6829,-0.005749
74.679,63.7260,-0.005749
74.709,63.7680,-0.005749
74.741,63.8113,-0.016843
74.771,63.8522,-0.016843
74.801,63.8939,-0.016843
74.834,63.9368,-0.016843
74.863,63.9746,-0.016843
74.894,64.0127,-0.016843
74.925,64.0505,-0.016843
74.954,64.0868,-0.016843
74.986,64.1256,-0.040302
75.018,64.1620,-0.040302
75.049,64.1979,-0.040302
75.081,64.2337,-0.040302
75.112,64.2677,-0.040302
75.143,64.3014,-0.040302
75.174,64.3341,-0.040302
75.206,64.3669,-0.040302
75.236,64.3968,-0.078082
75.267,64.4268,-0.078082
75.298,64.4576,-0.078082
75.329,64.4867,-0.078082
75.360,64.5153,-0.078082
75.391,64.5422,-0.078082
75.421,64.5688,-0.078082
75.454,64.5955,-0.078082
75.484,64.6206,-0.123144
75.516,64.6455,-0.123144
75.546,64.6690,-0.123144
75.577,64.6920,-0.123144
75.608,64.7143,-0.123144
75.639,64.7364,-0.123144
75.668,64.7562,-0.123144
75.698,64.7762,-0.123144
75.729,64.7954,-0.174644
75.761,64.8151,-0.174644
75.792,64.8328,-0.174644
75.823,64.8501,-0.174644
75.854,64.8676,-0.174644
75.885,64.8829,-0.174644
75.916,64.8980,-0.174644
75.946,64.9125,-0.174644
75.978,64.9264,-0.174644
76.009,64.9398,-0.266934
76.040,64.9518,-0.266934
76.072,64.9640,-0.266934
76.102,64.9744,-0.266934
76.133,64.9846,-0.266934
76.164,64.9940,-0.266934
76.196,65.0029,-0.266934
76.227,65.0107,-0.424442
76.258,65.0179,-0.424442
76.288,65.0244,-0.424442
76.319,65.0302,-0.424442
76.350,65.0352,-0.424442
76.381,65.0396,-0.424442
76.412,65.0432,-0.424442
76.443,65.0460,-0.424442
76.474,65.0482,-0.578112
76.505,65.0495,-0.578112
76.535,65.0502,-0.578112
76.566,65.0503,-0.578112
76.597,65.0503,-0.578112
76.627,65.0503,-0.578112
76.658,65.0503,-0.578112
76.689,65.0503,-0.578112
76.720,65.0503,-0.559067
76.751,65.0503,-0.559067
76.782,65.0503,-0.559067
76.815,65.0503,-0.559067
76.845,65.0503,-0.559067
76.875,65.0503,-0.559067
76.907,65.0503,-0.559067
76.938,65.0503,-0.559067
76.969,65.0503,-0.404889
77.000,65.0503,-0.404889
77.032,65.0503,-0.404889
77.057,65.0503,-0.404889
77.094,65.0503,-0.404889
77.125,65.0503,-0.404889
77.157,65.0503,-0.404889
77.187,65.0503,-0.404889
77.219,65.0503,-0.301806
77.250,65.0503,-0.301806
77.281,65.0503,-0.301806
77.312,65.0503,-0.301806
77.342,65.0503,-0.301806
77.374,65.0503,-0.301806
77.405,65.0503,-0.301806
77.436,65.0503,-0.301806
77.467,65.0503,-0.259491
77.498,65.0503,-0.259491
77.529,65.0503,-0.259491
77.560,65.0503,-0.259491
77.592,65.0503,-0.259491
77.623,65.0503,-0.259491
77.652,65.0503,-0.259491
77.683,65.0503,-0.259491
77.714,65.0503,-0.236127
77.744,65.0503,-0.236127
77.776,65.0503,-0.236127
77.807,65.0503,-0.236127
77.837,65.0503,-0.236127
77.870,65.0503,-0.236127
77.901,65.0503,-0.236127
77.931,65.0503,-0.236127
77.962,65.0503,-0.220968
77.994,65.0503,-0.220968
78.025,65.0503,-0.220968
78.056,65.0503,-0.220968
78.087,65.0503,-0.220968
78.118,65.0503,-0.220968
78.148,65.0503,-0.220968
78.179,65.0503,-0.220968
78.209,65.0503,-0.220968
78.240,65.0503,-0.210081
78.271,65.0503,-0.210081
78.302,65.0503,-0.210081
78.332,65.0503,-0.210081
78.363,65.0503,-0.210081
78.394,65.0503,-0.210081
78.425,65.0503,-0.210081
78.455,65.0503,-0.210081
78.486,65.0503,-0.210081
78.517,65.0503,-0.201847
78.548,65.0503,-0.201847
78.579,65.0503,-0.201847
78.610,65.0503,-0.201847
78.639,65.0503,-0.201847
78.673,65.0503,-0.201847
78.705,65.0503,-0.201847
78.736,65.0503,-0.195354
78.767,65.0503,-0.195354
78.798,65.0503,-0.195354
78.829,65.0503,-0.195354
78.859,65.0503,-0.195354
78.891,65.0503,-0.195354
78.921,65.0503,-0.195354
78.952,65.0503,-0.195354
78.982,65.0503,-0.195354
79.013,65.0503,-0.189981
79.044,65.0503,-0.189981
79.076,65.0503,-0.189981
79.106,65.0503,-0.189981
79.137,65.0503,-0.189981
79.169,65.0503,-0.189981
79.197,65.0503,-0.189981
79.231,65.0503,-0.185361
79.262,65.0503,-0.185361
79.293,65.0503,-0.185361
79.325,65.0503,-0.185361
79.357,65.0503,-0.185361
79.388,65.0503,-0.185361
79.418,65.0503,-0.185361
79.449,65.0503,-0.185361
79.480,65.0503,-0.181409
79.510,65.0503,-0.181409
79.541,65.0503,-0.181409
79.572,65.0503,-0.181409
79.604,65.0503,-0.181409
79.635,65.0503,-0.181409
79.665,65.0503,-0.181409
79.697,65.0503,-0.181409
79.727,65.0503,-0.181409
79.758,65.0503,-0.177994
79.790,65.0503,-0.177994
79.821,65.0503,-0.177994
79.852,65.0503,-0.177994
79.883,65.0503,-0.177994
79.914,65.0503,-0.177994
79.946,65.0503,-0.177994
79.977,65.0503,-0.174851
80.007,65.0503,-0.174851
80.039,65.0503,-0.174851
80.070,65.0503,-0.174851
80.101,65.0503,-0.174851
80.132,65.0503,-0.174851
80.163,65.0503,-0.174851
80.195,65.0503,-0.174851
80.226,65.0503,-0.174851
80.257,65.0503,-0.172009
80.288,65.0503,-0.172009
80.319,65.0503,-0.172009
80.351,65.0503,-0.172009
80.380,65.0503,-0.172009
80.411,65.0503,-0.172009
80.443,65.0503,-0.172009
80.473,65.0503,-0.169412
80.505,65.0503,-0.169412
80.536,65.0503,-0.169412
80.568,65.0503,-0.169412
80.599,65.0503,-0.169412
80.630,65.0503,-0.169412
80.661,65.0503,-0.169412
80.692,65.0503,-0.169412
80.723,65.0503,-0.167116
80.755,65.0499,-0.167116
80.786,65.0489,-0.167116
80.817,65.0471,-0.167116
80.848,65.0446,-0.167116
80.879,65.0412,-0.167116
80.909,65.0374,-0.167116
80.941,65.0327,-0.167116
80.971,65.0275,-0.154347
81.003,65.0209,-0.154347
81.034,65.0141,-0.154347
81.066,65.0061,-0.154347
81.097,64.9980,-0.154347
81.127,64.9889,-0.154347
81.158,64.9794,-0.154347
81.189,64.9687,-0.154347
81.220,64.9573,0.123201
81.251,64.9455,0.123201
81.277,64.9352,0.123201
81.314,64.9192,0.123201
81.345,64.9048,0.123201
81.376,64.8898,0.123201
81.407,64.8742,0.123201
81.438,64.8578,0.123201
81.469,64.8409,0.228175
81.499,64.8238,0.228175
81.530,64.8052,0.228175
81.560,64.7864,0.228175
81.591,64.7665,0.228175
81.623,64.7448,0.228175
81.654,64.7237,0.228175
81.686,64.7007,0.228175
81.717,64.6780,0.076811
81.748,64.6540,0.076811
81.779,64.6291,0.076811
81.810,64.6046,0.076811
81.841,64.5788,0.076811
81.872,64.5526,0.076811
81.903,64.5247,0.076811
81.935,64.4957,0.076811
81.965,64.4683,0.076811
81.996,64.4382,0.101493
82.027,64.4085,0.101493
82.057,64.3785,0.101493
82.088,64.3467,0.101493
82.120,64.3138,0.101493
82.150,64.2811,0.101493
82.181,64.2471,0.101493
82.216,64.2085,0.101493
82.245,64.1752,0.101493
82.279,64.1366,0.134304
82.307,64.1023,0.134304
82.339,64.0641,0.134304
82.369,64.0273,0.134304
82.401,63.9868,0.134304
82.432,63.9470,0.134304
82.463,63.9064,0.134304
82.495,63.8649,0.134304
82.526,63.8223,0.169722
82.558,63.7794,0.169722
82.587,63.7373,0.169722
82.618,63.6941,0.169722
82.649,63.6481,0.169722
82.680,63.6034,0.169722
82.712,63.5549,0.169722
82.743,63.5087,0.169722
82.774,63.4598,0.192663
82.806,63.4101,0.192663
82.836,63.3630,0.192663
82.866,63.3150,0.192663
82.897,63.2634,0.192663
82.929,63.2120,0.192663
82.960,63.1601,0.192663
82.990,63.1083,0.194950
83.021,63.0546,0.194950
83.051,63.0009,0.194950
83.082,62.9475,0.194950
83.114,62.8908,0.194950
83.145,62.8344,0.194950
83.175,62.7778,0.194950
83.207,62.7198,0.194950
83.238,62.6607,0.200040
83.269,62.6008,0.200040
83.300,62.5406,0.200040
83.330,62.4811,0.200040
83.361,62.4222,0.200040
83.392,62.3628,0.200040
83.423,62.3048,0.200040
83.451,62.2521,0.200040
83.485,62.1904,0.170870
83.517,62.1340,0.170870
83.548,62.0773,0.170870
83.578,62.0236,0.170870
83.609,61.9691,0.170870
83.642,61.9149,0.170870
83.673,61.8625,0.170870
83.703,61.8118,0.170870
83.735,61.7600,0.074092
83.766,61.7080,0.074092
83.796,61.6604,0.074092
83.829,61.6100,0.074092
83.858,61.5637,0.074092
83.892,61.5125,0.074092
83.920,61.4701,0.074092
83.954,61.4200,0.074092
83.982,61.3791,0.074092
84.014,61.3333,0.013286
84.045,61.2897,0.013286
84.075,61.2482,0.013286
84.106,61.2057,0.013286
84.138,61.1634,0.013286
84.169,61.1223,0.013286
84.200,61.0830,0.013286
84.231,61.0431,0.011724
84.262,61.0040,0.011724
84.293,60.9660,0.011724
84.324,60.9297,0.011724
84.355,60.8927,0.011724
84.387,60.8567,0.011724
84.418,60.8213,0.011724
84.449,60.7870,0.011724
84.480,60.7534,0.011724
84.512,60.7195,0.011066
84.542,60.6888,0.011066
84.573,60.6574,0.011066
84.605,60.6263,0.011066
84.636,60.5962,0.011066
84.666,60.5676,0.011066
84.702,60.5344,0.011066
84.728,60.5117,0.011066
84.759,60.4852,0.010689
84.790,60.4592,0.010689
84.821,60.4330,0.010689
84.852,60.4081,0.010689
84.883,60.3842,0.010689
84.914,60.3608,0.010689
84.945,60.3385,0.010689
84.976,60.3166,0.010379
85.007,60.2961,0.010379
85.038,60.2751,0.010379
85.069,60.2559,0.010379
85.100,60.2367,0.010379
85.130,60.2188,0.010379
85.161,60.2017,0.010379
85.192,60.1850,0.010379
85.223,60.1690,0.010134
85.254,60.1535,0.010134
85.286,60.1388,0.010134
85.318,60.1247,0.010134
85.348,60.1119,0.010134
85.379,60.0995,0.010134
85.409,60.0879,0.010134
85.440,60.0771,0.010134
85.471,60.0668,0.009852
85.502,60.0575,0.009852
85.533,60.0486,0.009852
85.566,60.0401,0.009852
85.596,60.0332,0.009852
85.627,60.0266,0.009852
85.657,60.0208,0.009852
85.690,60.0156,0.009852
85.720,60.0113,0.009476
85.751,60.0076,0.009476
85.782,60.0046,0.009476
85.814,60.0025,0.009476
85.845,60.0011,0.009476
85.876,60.0004,0.009476
85.906,60.0003,0.009476
85.937,60.0003,0.009476
85.967,60.0003,0.009203
85.998,60.0003,0.009203
86.029,60.0003,0.009203
86.060,60.0003,0.009203
86.091,60.0003,0.009203
86.123,60.0003,0.009203
86.153,60.0003,0.009203
86.185,60.0003,0.009203
86.217,60.0003,0.009203
86.248,60.0003,0.009156
86.279,60.0003,0.009156
86.311,60.0003,0.009156
86.342,60.0003,0.009156
86.374,60.0003,0.009156
86.405,60.0003,0.009156
86.437,60.0006,0.009156
86.467,60.0017,0.009165
86.498,60.0034,0.009165
86.529,60.0058,0.009165
86.560,60.0090,0.009165
86.591,60.0130,0.009165
86.621,60.0174,0.009165
86.653,60.0230,0.009165
86.683,60.0287,0.009165
86.714,60.0355,0.009165
86.745,60.0431,0.008977
86.777,60.0519,0.008977
86.807,60.0605,0.008977
86.839,60.0704,0.008977
86.868,60.0802,0.008977
86.899,60.0916,0.008977
86.930,60.1032,0.008977
86.960,60.1154,0.008563
86.992,60.1293,0.008563
87.023,60.1431,0.008563
87.054,60.1582,0.008563
87.085,60.1732,0.008563
87.116,60.1897,0.008563
87.147,60.2066,0.008563
87.177,60.2239,0.008563
87.208,60.2419,0.008563
87.239,60.2611,0.008196
87.269,60.2807,0.008196
87.301,60.3013,0.008196
87.332,60.3235,0.008196
87.364,60.3456,0.008196
87.395,60.3687,0.008196
87.427,60.3925,0.008196
87.457,60.4165,0.007791
87.488,60.4422,0.007791
87.520,60.4678,0.007791
87.552,60.4948,0.007791
87.583,60.5217,0.007791
87.613,60.5491,0.007791
87.644,60.5783,0.007791
87.674,60.6060,0.007791
87.705,60.6365,0.007791
87.735,60.6668,0.007283
87.766,60.6981,0.007283
87.797,60.7301,0.007283
87.829,60.7647,0.007283
87.860,60.7974,0.007283
87.891,60.8319,0.007283
87.922,60.8669,0.007283
87.952,60.9025,0.006709
87.984,60.9400,0.006709
88.014,60.9761,0.006709
88.046,61.0149,0.006709
88.077,61.0533,0.006709
88.108,61.0931,0.006709
88.139,61.1339,0.006709
88.171,61.1752,0.006709
88.202,61.2176,0.006709
88.234,61.2627,0.005966
88.264,61.3030,0.005966
88.295,61.3481,0.005966
88.327,61.3937,0.005966
88.358,61.4391,0.005966
88.389,61.4845,0.005966
88.421,61.5322,0.005966
88.451,61.5799,0.005966
88.482,61.6282,0.005966
88.513,61.6770,0.005025
88.545,61.7276,0.005025
88.575,61.7771,0.005025
88.607,61.8301,0.005025
88.638,61.8809,0.005025
88.668,61.9336,0.005025
88.699,61.9849,0.005025
88.729,62.0394,0.005025
88.760,62.0936,0.003811
88.791,62.1495,0.003811
88.823,62.2057,0.003811
88.854,62.2640,0.003811
88.886,62.3224,0.003811
88.916,62.3812,0.003811
88.948,62.4401,0.003811
88.979,62.5012,0.002080
89.011,62.5635,0.002080
89.042,62.6222,0.002080
89.073,62.6813,0.002080
89.107,62.7441,0.002080
89.135,62.7962,0.002080
89.166,62.8532,0.002080
89.198,62.9075,0.002080
89.228,62.9617,0.002080
89.259,63.0158,-0.000687
89.290,63.0688,-0.000687
89.320,63.1209,-0.000687
89.352,63.1731,-0.000687
89.386,63.2298,-0.000687
89.413,63.2749,-0.000687
89.445,63.3243,-0.000687
89.476,63.3747,-0.005702
89.508,63.4232,-0.005702
89.539,63.4718,-0.005702
89.571,63.5202,-0.005702
89.601,63.5654,-0.005702
89.633,63.6122,-0.005702
89.664,63.6554,-0.005702
89.695,63.7008,-0.005702
89.725,63.7423,-0.016815
89.756,63.7840,-0.016815
89.787,63.8263,-0.016815
89.819,63.8672,-0.016815
89.850,63.9089,-0.016815
89.882,63.9485,-0.016815
89.913,63.9882,-0.016815
89.943,64.0247,-0.016815
89.975,64.0631,-0.040471
90.005,64.0988,-0.040471
90.037,64.1360,-0.040471
90.068,64.1712,-0.040471
90.099,64.2048,-0.040471
90.131,64.2391,-0.040471
90.161,64.2712,-0.040471
90.193,64.3049,-0.040471
90.224,64.3363,-0.078467
90.256,64.3683,-0.078467
90.288,64.3987,-0.078467
90.319,64.4279,-0.078467
90.351,64.4570,-0.078467
90.382,64.4852,-0.078467
90.413,64.5129,-0.078467
90.443,64.5376,-0.078467
90.474,64.5636,-0.123690
90.505,64.5877,-0.123690
90.535,64.6121,-0.123690
90.567,64.6357,-0.123690
90.598,64.6588,-0.123690
90.630,64.6813,-0.123690
90.662,64.7029,-0.123690
90.694,64.7239,-0.123690
90.724,64.7435,-0.175048
90.756,64.7626,-0.175048
90.787,64.7803,-0.175048
90.817,64.7977,-0.175048
90.848,64.8145,-0.175048
90.880,64.8309,-0.175048
90.910,64.8460,-0.175048
90.940,64.8602,-0.175048
90.969,64.8731,-0.175048
91.004,64.8877,-0.268242
91.033,64.8996,-0.268242
91.065,64.9116,-0.268242
91.095,64.9225,-0.268242
91.125,64.9326,-0.268242
91.158,64.9425,-0.268242
91.189,64.9512,-0.268242
91.220,64.9593,-0.425082
91.251,64.9667,-0.425082
91.282,64.9734,-0.425082
91.312,64.9791,-0.425082
91.343,64.9843,-0.425082
91.378,64.9893,-0.425082
91.408,64.9927,-0.425082
91.438,64.9957,-0.425082
91.469,64.9978,-0.425082
91.500,64.9994,-0.579204
91.531,65.0002,-0.579204
91.562,65.0003,-0.579204
91.592,65.0003,-0.579204
91.622,65.0003,-0.579204
91.652,65.0003,-0.579204
91.683,65.0003,-0.579204
