Elapsed Time (s),Position (mm),Force (N)
-0.006,67.8003,-0.400288
0.025,67.8003,-0.400288
0.056,67.8003,-0.361247
0.088,67.8003,-0.361247
0.117,67.8003,-0.361247
0.149,67.8003,-0.361247
0.179,67.8003,-0.361247
0.209,67.8003,-0.361247
0.240,67.8003,-0.361247
0.271,67.8003,-0.361247
0.303,67.8003,-0.254551
0.333,67.8003,-0.254551
0.365,67.8003,-0.254551
0.396,67.8003,-0.254551
0.427,67.8003,-0.254551
0.458,67.8003,-0.254551
0.489,67.8003,-0.254551
0.522,67.8003,-0.254551
0.551,67.8003,-0.205395
0.582,67.8003,-0.205395
0.613,67.8003,-0.205395
0.644,67.8003,-0.205395
0.675,67.8003,-0.205395
0.705,67.8003,-0.205395
0.736,67.8003,-0.205395
0.767,67.8003,-0.205395
0.798,67.8003,-0.185211
0.829,67.8003,-0.185211
0.860,67.8003,-0.185211
0.891,67.8003,-0.185211
0.922,67.8003,-0.185211
0.953,67.8003,-0.185211
0.984,67.8003,-0.185211
1.015,67.8003,-0.185211
1.047,67.8003,-0.173006
1.077,67.8003,-0.173006
1.109,67.8003,-0.173006
1.140,67.8003,-0.173006
1.171,67.8003,-0.173006
1.203,67.8003,-0.173006
1.234,67.8003,-0.173006
1.265,67.8003,-0.173006
1.296,67.8003,-0.164349
1.327,67.8003,-0.164349
1.355,67.8003,-0.164349
1.389,67.8003,-0.164349
1.419,67.8003,-0.164349
1.450,67.8003,-0.164349
1.482,67.8003,-0.164349
1.513,67.8003,-0.157706
1.545,67.8003,-0.157706
1.576,67.8003,-0.157706
1.607,67.8003,-0.157706
1.637,67.8003,-0.157706
1.667,67.8003,-0.157706
1.698,67.8003,-0.157706
1.728,67.8003,-0.157706
1.760,67.8003,-0.157706
1.791,67.8003,-0.152399
1.822,67.8003,-0.152399
1.852,67.8003,-0.152399
1.883,67.8003,-0.152399
1.914,67.8003,-0.152399
1.945,67.8003,-0.152399
1.975,67.8003,-0.152399
2.007,67.8003,-0.152399
2.037,67.8003,-0.147977
2.068,67.8003,-0.147977
2.099,67.8003,-0.147977
2.130,67.8003,-0.147977
2.161,67.8003,-0.147977
2.193,67.8003,-0.147977
2.223,67.8003,-0.147977
2.254,67.8003,-0.147977
2.285,67.8003,-0.144166
2.317,67.8003,-0.144166
2.348,67.8003,-0.144166
2.379,67.8003,-0.144166
2.408,67.8003,-0.144166
2.439,67.8003,-0.144166
2.470,67.8003,-0.144166
2.501,67.8003,-0.144166
2.532,67.8003,-0.144166
2.563,67.8003,-0.140910
2.594,67.8003,-0.140910
2.625,67.8003,-0.140910
2.656,67.8003,-0.140910
2.688,67.8003,-0.140910
2.718,67.8003,-0.140910
2.748,67.8003,-0.140910
2.780,67.8003,-0.140910
2.811,67.8003,-0.138068
2.842,67.8003,-0.138068
2.873,67.8003,-0.138068
2.904,67.8003,-0.138068
2.935,67.8003,-0.138068
2.966,67.8003,-0.138068
2.998,67.8003,-0.138068
3.028,67.8003,-0.138068
3.059,67.8003,-0.135518
3.090,67.8003,-0.135518
3.121,67.8003,-0.135518
3.154,67.8003,-0.135518
3.184,67.8003,-0.135518
3.214,67.8003,-0.135518
3.244,67.8003,-0.135518
3.276,67.8003,-0.135518
3.306,67.8003,-0.133166
3.337,67.8003,-0.133166
3.368,67.8003,-0.133166
3.399,67.8003,-0.133166
3.430,67.8003,-0.133166
3.461,67.8003,-0.133166
3.493,67.8003,-0.133166
3.524,67.8003,-0.133166
3.555,67.8003,-0.130983
3.586,67.8003,-0.130983
3.616,67.8003,-0.130983
3.647,67.8003,-0.130983
3.678,67.8003,-0.130983
3.710,67.8003,-0.130983
3.740,67.8003,-0.130983
3.771,67.8003,-0.130983
3.802,67.8003,-0.129063
3.834,67.8003,-0.129063
3.866,67.8003,-0.129063
3.897,67.8003,-0.129063
3.927,67.8003,-0.129063
3.959,67.8003,-0.129063
3.990,67.8003,-0.129063
4.022,67.8003,-0.129063
4.053,67.8003,-0.127548
4.084,67.8003,-0.127548
4.115,67.8003,-0.127548
4.146,67.7996,-0.127548
4.177,67.7984,-0.127548
4.207,67.7964,-0.127548
4.239,67.7937,-0.127548
4.270,67.7902,-0.125920
4.301,67.7861,-0.125920
4.331,67.7812,-0.125920
4.363,67.7753,-0.125920
4.395,67.7689,-0.125920
4.426,67.7618,-0.125920
4.458,67.7536,-0.125920
4.489,67.7452,-0.125920
4.519,67.7359,0.050219
4.550,67.7259,0.050219
4.581,67.7153,0.050219
4.613,67.7032,0.050219
4.643,67.6916,0.050219
4.675,67.6782,0.050219
4.705,67.6651,0.050219
4.736,67.6506,0.050219
4.767,67.6353,0.050219
4.797,67.6197,0.130145
4.828,67.6034,0.130145
4.860,67.5861,0.130145
4.892,67.5671,0.130145
4.922,67.5485,0.130145
4.954,67.5287,0.130145
4.984,67.5091,0.130145
5.016,67.4874,0.046239
5.047,67.4658,0.046239
5.078,67.4431,0.046239
5.109,67.4200,0.046239
5.139,67.3971,0.046239
5.171,67.3716,0.046239
5.202,67.3470,0.046239
5.233,67.3198,0.046239
5.265,67.2930,0.046239
5.295,67.2655,0.072746
5.327,67.2367,0.072746
5.357,67.2084,0.072746
5.388,67.1793,0.072746
5.418,67.1484,0.072746
5.449,67.1184,0.072746
5.480,67.0871,0.072746
5.511,67.0539,0.072746
5.542,67.0207,0.104080
5.575,66.9847,0.104080
5.606,66.9497,0.104080
5.637,66.9150,0.104080
5.667,66.8791,0.104080
5.699,66.8416,0.104080
5.729,66.8046,0.104080
5.761,66.7650,0.104080
5.792,66.7255,0.137955
5.822,66.6873,0.137955
5.853,66.6465,0.137955
5.884,66.6051,0.137955
5.916,66.5623,0.137955
5.947,66.5184,0.137955
5.978,66.4747,0.137955
6.009,66.4314,0.137955
6.039,66.3873,0.168198
6.071,66.3405,0.168198
6.102,66.2931,0.168198
6.133,66.2456,0.168198
6.164,66.1989,0.168198
6.194,66.1515,0.168198
6.225,66.1030,0.168198
6.256,66.0518,0.168198
6.288,66.0003,0.176375
6.318,65.9497,0.176375
6.350,65.8969,0.176375
6.381,65.8432,0.176375
6.412,65.7892,0.176375
6.443,65.7353,0.176375
6.474,65.6787,0.176375
6.506,65.6227,0.176375
6.537,65.5657,0.172536
6.568,65.5086,0.172536
6.599,65.4492,0.172536
6.631,65.3888,0.172536
6.662,65.3306,0.172536
6.694,65.2687,0.172536
6.725,65.2062,0.172536
6.756,65.1485,0.172536
6.786,65.0897,0.172536
6.816,65.0348,0.159042
6.847,64.9760,0.159042
6.878,64.9206,0.159042
6.909,64.8640,0.159042
6.940,64.8102,0.159042
6.971,64.7551,0.159042
7.002,64.7025,0.159042
7.033,64.6492,0.159042
7.063,64.5991,0.078806
7.096,64.5428,0.078806
7.125,64.4954,0.078806
7.156,64.4470,0.078806
7.187,64.3977,0.078806
7.218,64.3489,0.078806
7.249,64.3004,0.078806
7.280,64.2536,0.011339
7.311,64.2074,0.011339
7.341,64.1620,0.011339
7.372,64.1185,0.011339
7.403,64.0739,0.011339
7.433,64.0316,0.011339
7.464,63.9885,0.011339
7.494,63.9475,0.011339
7.528,63.9021,0.009758
7.556,63.8661,0.009758
7.587,63.8261,0.009758
7.618,63.7875,0.009758
7.649,63.7483,0.009758
7.679,63.7112,0.009758
7.710,63.6754,0.009758
7.740,63.6399,0.009758
7.771,63.6049,0.009758
7.802,63.5685,0.009127
7.834,63.5336,0.009127
7.865,63.5004,0.009127
7.896,63.4673,0.009127
7.927,63.4354,0.009127
7.958,63.4051,0.009127
7.990,63.3734,0.009127
8.021,63.3434,0.009127
8.052,63.3141,0.008732
8.083,63.2857,0.008732
8.114,63.2585,0.008732
8.145,63.2320,0.008732
8.176,63.2054,0.008732
8.207,63.1804,0.008732
8.238,63.1556,0.008732
8.269,63.1317,0.008732
8.301,63.1077,0.008732
8.331,63.0859,0.008516
8.362,63.0644,0.008516
8.393,63.0433,0.008516
8.425,63.0225,0.008516
8.456,63.0027,0.008516
8.488,62.9834,0.008516
8.519,62.9656,0.008516
8.551,62.9475,0.008393
8.582,62.9310,0.008393
8.613,62.9147,0.008393
8.644,62.9002,0.008393
8.675,62.8855,0.008393
8.706,62.8719,0.008393
8.737,62.8590,0.008393
8.767,62.8468,0.008393
8.798,62.8354,0.008393
8.829,62.8246,0.008262
8.861,62.8146,0.008262
8.893,62.8048,0.008262
8.924,62.7965,0.008262
8.955,62.7885,0.008262
8.985,62.7818,0.008262
9.016,62.7752,0.008262
9.047,62.7695,0.008102
9.081,62.7642,0.008102
9.109,62.7604,0.008102
9.140,62.7570,0.008102
9.171,62.7542,0.008102
9.203,62.7521,0.008102
9.232,62.7509,0.008102
9.263,62.7503,0.008102
9.295,62.7503,0.007876
9.326,62.7503,0.007876
9.356,62.7503,0.007876
9.387,62.7503,0.007876
9.419,62.7503,0.007876
9.450,62.7504,0.007876
9.481,62.7513,0.007876
9.513,62.7529,0.007876
9.544,62.7551,0.007744
9.576,62.7583,0.007744
9.607,62.7619,0.007744
9.639,62.7666,0.007744
9.670,62.7719,0.007744
9.700,62.7778,0.007744
9.731,62.7843,0.007744
9.762,62.7917,0.007744
9.792,62.7999,0.007547
9.824,62.8087,0.007547
9.854,62.8181,0.007547
9.885,62.8283,0.007547
9.916,62.8393,0.007547
9.947,62.8514,0.007547
9.979,62.8640,0.007547
10.009,62.8767,0.007547
10.040,62.8905,0.007274
10.071,62.9054,0.007274
10.103,62.9209,0.007274
10.132,62.9368,0.007274
10.163,62.9532,0.007274
10.194,62.9708,0.007274
10.226,62.9891,0.007274
10.257,63.0084,0.007274
10.288,63.0286,0.007020
10.318,63.0483,0.007020
10.349,63.0691,0.007020
10.381,63.0917,0.007020
10.412,63.1145,0.007020
10.444,63.1386,0.007020
10.475,63.1630,0.007020
10.506,63.1876,0.007020
10.537,63.2135,0.006709
10.569,63.2400,0.006709
10.600,63.2673,0.006709
10.631,63.2955,0.006709
10.662,63.3238,0.006709
10.693,63.3528,0.006709
10.724,63.3832,0.006709
10.756,63.4145,0.006709
10.786,63.4454,0.006380
10.818,63.4790,0.006380
10.850,63.5120,0.006380
10.879,63.5444,0.006380
10.911,63.5791,0.006380
10.941,63.6129,0.006380
10.972,63.6496,0.006380
11.003,63.6862,0.006380
11.034,63.7241,0.005919
11.065,63.7614,0.005919
11.096,63.7996,0.005919
11.128,63.8404,0.005919
11.158,63.8790,0.005919
11.190,63.9221,0.005919
11.219,63.9603,0.005919
11.251,64.0037,0.005919
11.282,64.0473,0.005354
11.312,64.0896,0.005354
11.343,64.1333,0.005354
11.375,64.1805,0.005354
11.406,64.2269,0.005354
11.437,64.2729,0.005354
11.468,64.3217,0.005354
11.499,64.3687,0.005354
11.529,64.4183,0.004592
11.561,64.4674,0.004592
11.593,64.5190,0.004592
11.622,64.5671,0.004592
11.653,64.6196,0.004592
11.684,64.6724,0.004592
11.716,64.7267,0.004592
11.747,64.7798,0.004592
11.777,64.8347,0.004592
11.808,64.8898,0.003510
11.839,64.9441,0.003510
11.872,65.0071,0.003510
11.900,65.0565,0.003510
11.931,65.1169,0.003510
11.961,65.1742,0.003510
12.000,65.2497,0.003510
12.039,65.3246,0.003510
12.069,65.3829,0.001967
12.100,65.4395,0.001967
12.132,65.4990,0.001967
12.162,65.5538,0.001967
12.194,65.6119,0.001967
12.225,65.6671,0.001967
12.257,65.7226,0.001967
12.287,65.7748,-0.000292
12.317,65.8283,-0.000292
12.348,65.8793,-0.000292
12.379,65.9306,-0.000292
12.409,65.9815,-0.000292
12.441,66.0338,-0.000292
12.472,66.0835,-0.000292
12.502,66.1300,-0.000292
12.534,66.1785,-0.004234
12.565,66.2268,-0.004234
12.595,66.2728,-0.004234
12.626,66.3183,-0.004234
12.657,66.3635,-0.004234
12.688,66.4080,-0.004234
12.718,66.4508,-0.004234
12.749,66.4938,-0.004234
12.781,66.5368,-0.012882
12.812,66.5784,-0.012882
12.842,66.6189,-0.012882
12.874,66.6602,-0.012882
12.903,66.6976,-0.012882
12.935,66.7376,-0.012882
12.965,66.7741,-0.012882
12.995,66.8101,-0.012882
13.026,66.8460,-0.031682
13.056,66.8819,-0.031682
13.087,66.9172,-0.031682
13.118,66.9518,-0.031682
13.149,66.9854,-0.031682
13.180,67.0182,-0.031682
13.210,67.0498,-0.031682
13.241,67.0808,-0.031682
13.272,67.1113,-0.063111
13.304,67.1423,-0.063111
13.334,67.1717,-0.063111
13.367,67.2016,-0.063111
13.397,67.2283,-0.063111
13.427,67.2554,-0.063111
13.459,67.2817,-0.063111
13.491,67.3083,-0.063111
13.521,67.3327,-0.101361
13.552,67.3571,-0.101361
13.583,67.3811,-0.101361
13.615,67.4046,-0.101361
13.646,67.4266,-0.101361
13.681,67.4513,-0.101361
13.708,67.4685,-0.101361
13.740,67.4888,-0.101361
13.770,67.5071,-0.101361
13.801,67.5256,-0.141597
13.832,67.5438,-0.141597
13.863,67.5603,-0.141597
13.896,67.5781,-0.141597
13.924,67.5920,-0.141597
13.955,67.6072,-0.141597
13.987,67.6211,-0.141597
14.018,67.6346,-0.141597
14.050,67.6475,-0.201565
14.081,67.6595,-0.201565
14.111,67.6702,-0.201565
14.141,67.6803,-0.201565
14.173,67.6903,-0.201565
14.204,67.6993,-0.201565
14.235,67.7077,-0.201565
14.266,67.7151,-0.201565
14.298,67.7220,-0.201565
14.330,67.7282,-0.308045
14.359,67.7333,-0.308045
14.391,67.7380,-0.308045
14.422,67.7418,-0.308045
14.452,67.7450,-0.308045
14.484,67.7474,-0.308045
14.515,67.7490,-0.308045
14.544,67.7500,-0.308045
14.576,67.7503,-0.405896
14.606,67.7503,-0.405896
14.636,67.7503,-0.405896
14.667,67.7503,-0.405896
14.698,67.7503,-0.405896
14.729,67.7503,-0.405896
14.760,67.7503,-0.405896
14.791,67.7503,-0.363759
14.822,67.7503,-0.363759
14.853,67.7503,-0.363759
14.884,67.7503,-0.363759
14.915,67.7503,-0.363759
14.946,67.7503,-0.363759
14.977,67.7503,-0.363759
15.009,67.7503,-0.363759
15.039,67.7503,-0.252650
15.071,67.7503,-0.252650
15.099,67.7503,-0.252650
15.131,67.7503,-0.252650
15.162,67.7503,-0.252650
15.192,67.7503,-0.252650
15.222,67.7503,-0.252650
15.252,67.7503,-0.252650
15.283,67.7503,-0.202383
15.314,67.7503,-0.202383
15.345,67.7503,-0.202383
15.376,67.7503,-0.202383
15.407,67.7503,-0.202383
15.438,67.7503,-0.202383
15.469,67.7503,-0.202383
15.500,67.7503,-0.202383
15.532,67.7503,-0.184317
15.565,67.7503,-0.184317
15.594,67.7503,-0.184317
15.627,67.7503,-0.184317
15.656,67.7503,-0.184317
15.686,67.7503,-0.184317
15.717,67.7503,-0.184317
15.749,67.7503,-0.184317
15.780,67.7503,-0.173769
15.817,67.7503,-0.173769
15.860,67.7503,-0.173769
15.890,67.7503,-0.173769
15.922,67.7503,-0.173769
15.953,67.7503,-0.173769
15.984,67.7503,-0.173769
16.015,67.7503,-0.165780
16.047,67.7503,-0.165780
16.077,67.7503,-0.165780
16.109,67.7503,-0.165780
16.142,67.7503,-0.165780
16.171,67.7503,-0.165780
16.205,67.7503,-0.165780
16.233,67.7503,-0.165780
16.263,67.7503,-0.165780
16.295,67.7503,-0.159522
16.326,67.7503,-0.159522
16.356,67.7503,-0.159522
16.387,67.7503,-0.159522
16.418,67.7503,-0.159522
16.449,67.7503,-0.159522
16.480,67.7503,-0.159522
16.511,67.7503,-0.159522
16.542,67.7503,-0.159522
16.572,67.7503,-0.154432
16.604,67.7503,-0.154432
16.635,67.7503,-0.154432
16.666,67.7503,-0.154432
16.696,67.7503,-0.154432
16.728,67.7503,-0.154432
16.759,67.7503,-0.154432
16.791,67.7503,-0.154432
16.822,67.7503,-0.150113
16.854,67.7503,-0.150113
16.885,67.7503,-0.150113
16.916,67.7503,-0.150113
16.947,67.7503,-0.150113
16.978,67.7503,-0.150113
17.010,67.7503,-0.150113
17.041,67.7503,-0.146471
17.072,67.7503,-0.146471
17.103,67.7503,-0.146471
17.133,67.7503,-0.146471
17.164,67.7503,-0.146471
17.195,67.7503,-0.146471
17.226,67.7503,-0.146471
17.257,67.7503,-0.146471
17.288,67.7503,-0.143309
17.319,67.7503,-0.143309
17.350,67.7503,-0.143309
17.381,67.7503,-0.143309
17.412,67.7503,-0.143309
17.443,67.7503,-0.143309
17.473,67.7503,-0.143309
17.504,67.7503,-0.143309
17.536,67.7503,-0.143309
17.568,67.7503,-0.140477
17.598,67.7503,-0.140477
17.630,67.7503,-0.140477
17.661,67.7503,-0.140477
17.692,67.7503,-0.140477
17.723,67.7503,-0.140477
17.753,67.7503,-0.140477
17.785,67.7503,-0.138021
17.816,67.7503,-0.138021
17.847,67.7503,-0.138021
17.878,67.7503,-0.138021
17.909,67.7503,-0.138021
17.940,67.7503,-0.138021
17.971,67.7503,-0.138021
18.002,67.7503,-0.138021
18.033,67.7503,-0.135857
18.064,67.7503,-0.135857
18.095,67.7503,-0.135857
18.126,67.7503,-0.135857
18.157,67.7503,-0.135857
18.188,67.7503,-0.135857
18.219,67.7503,-0.135857
18.250,67.7503,-0.135857
18.281,67.7503,-0.133824
18.312,67.7503,-0.133824
18.344,67.7503,-0.133824
18.374,67.7503,-0.133824
18.405,67.7503,-0.133824
18.435,67.7503,-0.133824
18.467,67.7503,-0.133824
18.498,67.7503,-0.133824
18.530,67.7503,-0.131914
18.562,67.7503,-0.131914
18.593,67.7503,-0.131914
18.625,67.7503,-0.131914
18.655,67.7503,-0.131914
18.686,67.7503,-0.131914
18.717,67.7503,-0.131914
18.748,67.7503,-0.131914
18.779,67.7503,-0.130221
18.811,67.7503,-0.130221
18.842,67.7503,-0.130221
18.874,67.7503,-0.130221
18.903,67.7503,-0.130221
18.934,67.7503,-0.130221
18.965,67.7503,-0.130221
18.997,67.7503,-0.130221
19.027,67.7503,-0.128668
19.058,67.7503,-0.128668
19.089,67.7503,-0.128668
19.119,67.7503,-0.128668
19.150,67.7503,-0.128668
19.181,67.7503,-0.128668
19.212,67.7503,-0.128668
19.244,67.7503,-0.128668
19.274,67.7500,-0.128668
19.304,67.7493,-0.127322
19.335,67.7476,-0.127322
19.366,67.7453,-0.127322
19.399,67.7421,-0.127322
19.428,67.7385,-0.127322
19.460,67.7338,-0.127322
19.492,67.7285,-0.127322
19.522,67.7226,-0.127322
19.553,67.7157,-0.056420
19.588,67.7075,-0.056420
19.615,67.7004,-0.056420
19.646,67.6915,-0.056420
19.677,67.6819,-0.056420
19.708,67.6714,-0.056420
19.739,67.6606,-0.056420
19.770,67.6486,-0.056420
19.801,67.6363,0.030149
19.832,67.6228,0.030149
19.863,67.6089,0.030149
19.894,67.5938,0.030149
19.926,67.5783,0.030149
19.957,67.5620,0.030149
19.988,67.5454,0.030149
20.018,67.5275,0.030149
20.049,67.5094,0.045336
20.081,67.4897,0.045336
20.112,67.4705,0.045336
20.144,67.4489,0.045336
20.174,67.4283,0.045336
20.206,67.4060,0.045336
20.237,67.3824,0.045336
20.268,67.3596,0.045336
20.299,67.3353,0.058105
20.330,67.3106,0.058105
20.360,67.2857,0.058105
20.390,67.2595,0.058105
20.421,67.2326,0.058105
20.452,67.2045,0.058105
20.483,67.1769,0.058105
20.514,67.1470,0.087407
20.545,67.1179,0.087407
20.576,67.0864,0.087407
20.606,67.0554,0.087407
20.638,67.0231,0.087407
20.668,66.9906,0.087407
20.699,66.9570,0.087407
20.730,66.9222,0.087407
20.761,66.8878,0.087407
20.793,66.8509,0.119155
20.823,66.8145,0.119155
20.856,66.7758,0.119155
20.886,66.7397,0.119155
20.916,66.7018,0.119155
20.947,66.6625,0.119155
20.978,66.6220,0.119155
21.008,66.5826,0.119155
21.039,66.5417,0.152192
21.070,66.4985,0.152192
21.101,66.4555,0.152192
21.132,66.4118,0.152192
21.163,66.3673,0.152192
21.193,66.3243,0.152192
21.224,66.2784,0.152192
21.255,66.2305,0.152192
21.286,66.1836,0.176177
21.317,66.1362,0.176177
21.348,66.0869,0.176177
21.379,66.0363,0.176177
21.410,65.9870,0.176177
21.441,65.9359,0.176177
21.472,65.8857,0.176177
21.503,65.8324,0.176177
21.533,65.7808,0.176177
21.564,65.7262,0.177608
21.596,65.6704,0.177608
21.627,65.6151,0.177608
21.661,65.5499,0.177608
21.689,65.5031,0.177608
21.719,65.4456,0.177608
21.751,65.3868,0.177608
21.781,65.3274,0.177608
21.812,65.2682,0.174606
21.844,65.2083,0.174606
21.874,65.1469,0.174606
21.905,65.0884,0.174606
21.936,65.0302,0.174606
21.967,64.9739,0.174606
21.998,64.9172,0.174606
22.028,64.8598,0.174606
22.059,64.8053,0.102556
22.090,64.7502,0.102556
22.122,64.6956,0.102556
22.152,64.6425,0.102556
22.183,64.5899,0.102556
22.214,64.5367,0.102556
22.246,64.4854,0.102556
22.277,64.4335,0.102556
22.309,64.3839,0.019375
22.339,64.3359,0.019375
22.370,64.2871,0.019375
22.402,64.2372,0.019375
22.433,64.1898,0.019375
22.464,64.1455,0.019375
22.495,64.0997,0.019375
22.526,64.0549,0.019375
22.556,64.0116,0.019375
22.588,63.9672,0.010388
22.619,63.9248,0.010388
22.653,63.8793,0.010388
22.681,63.8418,0.010388
22.711,63.8024,0.010388
22.743,63.7613,0.010388
22.773,63.7234,0.009438
22.804,63.6859,0.009438
22.835,63.6481,0.009438
22.866,63.6108,0.009438
22.900,63.5716,0.009438
22.928,63.5391,0.009438
22.960,63.5042,0.009438
22.991,63.4712,0.009438
23.022,63.4380,0.009438
23.053,63.4054,0.008939
23.084,63.3730,0.008939
23.114,63.3426,0.008939
23.145,63.3133,0.008939
23.176,63.2840,0.008939
23.207,63.2551,0.008939
23.239,63.2263,0.008939
23.269,63.1991,0.008685
23.301,63.1716,0.008685
23.332,63.1463,0.008685
23.364,63.1205,0.008685
23.394,63.0963,0.008685
23.425,63.0734,0.008685
23.456,63.0503,0.008685
23.486,63.0282,0.008685
23.517,63.0075,0.008685
23.549,62.9858,0.008497
23.579,62.9665,0.008497
23.609,62.9472,0.008497
23.642,62.9276,0.008497
23.672,62.9105,0.008497
23.706,62.8919,0.008497
23.737,62.8753,0.008497
23.766,62.8609,0.008497
23.797,62.8459,0.008497
23.829,62.8316,0.008318
23.860,62.8181,0.008318
23.891,62.8053,0.008318
23.922,62.7932,0.008318
23.953,62.7820,0.008318
23.984,62.7715,0.008318
24.018,62.7608,0.008318
24.045,62.7528,0.008318
24.077,62.7440,0.008186
24.106,62.7373,0.008186
24.137,62.7302,0.008186
24.168,62.7239,0.008186
24.199,62.7184,0.008186
24.229,62.7137,0.008186
24.260,62.7097,0.008186
24.292,62.7062,0.008008
24.322,62.7038,0.008008
24.354,62.7018,0.008008
24.385,62.7007,0.008008
24.415,62.7003,0.008008
24.446,62.7003,0.008008
24.476,62.7003,0.008008
24.507,62.7003,0.008008
24.538,62.7003,0.007876
24.568,62.7005,0.007876
24.600,62.7015,0.007876
24.631,62.7031,0.007876
24.662,62.7055,0.007876
24.693,62.7087,0.007876
24.724,62.7126,0.007876
24.754,62.7172,0.007876
24.786,62.7225,0.007725
24.816,62.7286,0.007725
24.847,62.7353,0.007725
24.879,62.7431,0.007725
24.910,62.7511,0.007725
24.942,62.7604,0.007725
24.973,62.7701,0.007725
25.004,62.7805,0.007725
25.034,62.7912,0.007481
25.065,62.8036,0.007481
25.095,62.8156,0.007481
25.126,62.8288,0.007481
25.157,62.8428,0.007481
25.188,62.8574,0.007481
25.219,62.8732,0.007481
25.250,62.8896,0.007481
25.281,62.9062,0.007208
25.313,62.9244,0.007208
25.343,62.9424,0.007208
25.375,62.9622,0.007208
25.405,62.9815,0.007208
25.436,63.0015,0.007208
25.467,63.0231,0.007208
25.497,63.0447,0.007208
25.527,63.0665,0.006897
25.558,63.0900,0.006897
25.590,63.1149,0.006897
25.621,63.1392,0.006897
25.652,63.1659,0.006897
25.684,63.1923,0.006897
25.715,63.2205,0.006897
25.746,63.2471,0.006897
25.776,63.2753,0.006897
25.807,63.3044,0.006521
25.838,63.3344,0.006521
25.868,63.3651,0.006521
25.900,63.3966,0.006521
25.931,63.4298,0.006521
25.963,63.4625,0.006521
25.994,63.4974,0.006521
26.026,63.5317,0.006088
26.055,63.5659,0.006088
26.086,63.6010,0.006088
26.117,63.6377,0.006088
26.149,63.6755,0.006088
26.181,63.7153,0.006088
26.211,63.7528,0.006088
26.247,63.8003,0.006088
26.274,63.8335,0.005571
26.304,63.8742,0.005571
26.336,63.9155,0.005571
26.366,63.9576,0.005571
26.400,64.0048,0.005571
26.429,64.0452,0.005571
26.460,64.0911,0.005571
26.491,64.1356,0.005571
26.528,64.1906,0.005571
26.568,64.2515,0.005571
26.599,64.2996,0.004921
26.631,64.3486,0.004921
26.664,64.4029,0.004921
26.693,64.4490,0.004921
26.725,64.5016,0.004921
26.755,64.5520,0.004921
26.786,64.6041,0.004921
26.818,64.6570,0.003999
26.850,64.7131,0.003999
26.880,64.7658,0.003999
26.911,64.8217,0.003999
26.942,64.8796,0.003999
26.973,64.9337,0.003999
27.003,64.9918,0.003999
27.034,65.0486,0.003999
27.066,65.1090,0.002748
27.097,65.1671,0.002748
27.128,65.2291,0.002748
27.160,65.2905,0.002748
27.191,65.3492,0.002748
27.221,65.4054,0.002748
27.252,65.4617,0.002748
27.283,65.5189,0.002748
27.314,65.5753,0.000922
27.345,65.6311,0.000922
27.376,65.6838,0.000922
27.407,65.7376,0.000922
27.438,65.7911,0.000922
27.469,65.8435,0.000922
27.500,65.8956,0.000922
27.532,65.9485,-0.002108
27.563,65.9985,-0.002108
27.593,66.0463,-0.002108
27.624,66.0944,-0.002108
27.654,66.1415,-0.002108
27.686,66.1891,-0.002108
27.717,66.2358,-0.002108
27.748,66.2827,-0.002108
27.778,66.3267,-0.002108
27.810,66.3713,-0.008026
27.841,66.4153,-0.008026
27.872,66.4581,-0.008026
27.903,66.5012,-0.008026
27.935,66.5423,-0.008026
27.966,66.5836,-0.008026
27.997,66.6232,-0.008026
28.027,66.6627,-0.008026
28.061,66.7040,-0.021369
28.088,66.7361,-0.021369
28.120,66.7745,-0.021369
28.151,66.8117,-0.021369
28.183,66.8476,-0.021369
28.215,66.8839,-0.021369
28.246,66.9182,-0.021369
28.278,66.9521,-0.021369
28.308,66.9843,-0.047312
28.340,67.0173,-0.047312
28.377,67.0536,-0.047312
28.417,67.0926,-0.047312
28.448,67.1231,-0.047312
28.480,67.1519,-0.047312
28.512,67.1803,-0.047312
28.542,67.2069,-0.083417
28.573,67.2335,-0.083417
28.604,67.2598,-0.083417
28.635,67.2838,-0.083417
28.665,67.3084,-0.083417
28.698,67.3326,-0.083417
28.729,67.3556,-0.083417
28.760,67.3776,-0.083417
28.791,67.3992,-0.122665
28.822,67.4195,-0.122665
28.853,67.4395,-0.122665
28.885,67.4590,-0.122665
28.916,67.4778,-0.122665
28.947,67.4950,-0.122665
28.978,67.5117,-0.122665
29.009,67.5279,-0.122665
29.041,67.5437,-0.168509
29.074,67.5597,-0.168509
29.102,67.5724,-0.168509
29.133,67.5853,-0.168509
29.165,67.5982,-0.168509
29.194,67.6095,-0.168509
29.226,67.6208,-0.168509
29.255,67.6310,-0.168509
29.287,67.6405,-0.253920
29.323,67.6512,-0.253920
29.349,67.6578,-0.253920
29.381,67.6658,-0.253920
29.411,67.6723,-0.253920
29.443,67.6783,-0.253920
29.474,67.6838,-0.253920
29.505,67.6881,-0.253920
29.537,67.6921,-0.369019
29.566,67.6951,-0.369019
29.597,67.6974,-0.369019
29.628,67.6992,-0.369019
29.659,67.7001,-0.369019
29.690,67.7003,-0.369019
29.721,67.7003,-0.369019
29.752,67.7003,-0.369019
29.783,67.7003,-0.397691
29.815,67.7003,-0.397691
29.846,67.7003,-0.397691
29.878,67.7003,-0.397691
29.909,67.7003,-0.397691
29.941,67.7003,-0.397691
29.972,67.7003,-0.397691
30.003,67.7003,-0.397691
30.034,67.7003,-0.305852
30.065,67.7003,-0.305852
30.096,67.7003,-0.305852
30.128,67.7003,-0.305852
30.160,67.7003,-0.305852
30.191,67.7003,-0.305852
30.222,67.7003,-0.305852
30.253,67.7003,-0.305852
30.284,67.7003,-0.222341
30.314,67.7003,-0.222341
30.346,67.7003,-0.222341
30.377,67.7003,-0.222341
30.408,67.7003,-0.222341
30.439,67.7003,-0.222341
30.469,67.7003,-0.222341
30.501,67.7003,-0.222341
30.532,67.7003,-0.194508
30.563,67.7003,-0.194508
30.594,67.7003,-0.194508
30.625,67.7003,-0.194508
30.655,67.7003,-0.194508
30.686,67.7003,-0.194508
30.718,67.7003,-0.194508
30.749,67.7003,-0.194508
30.781,67.7003,-0.194508
30.812,67.7003,-0.179791
30.843,67.7003,-0.179791
30.874,67.7003,-0.179791
30.905,67.7003,-0.179791
30.935,67.7003,-0.179791
30.967,67.7003,-0.179791
30.997,67.7003,-0.179791
31.029,67.7003,-0.170042
31.060,67.7003,-0.170042
31.091,67.7003,-0.170042
31.122,67.7003,-0.170042
31.153,67.7003,-0.170042
31.184,67.7003,-0.170042
31.214,67.7003,-0.170042
31.246,67.7003,-0.170042
31.277,67.7003,-0.162759
31.308,67.7003,-0.162759
31.339,67.7003,-0.162759
31.370,67.7003,-0.162759
31.401,67.7003,-0.162759
31.432,67.7003,-0.162759
31.463,67.7003,-0.162759
31.494,67.7003,-0.162759
31.526,67.7003,-0.156991
31.557,67.7003,-0.156991
31.589,67.7003,-0.156991
31.620,67.7003,-0.156991
31.652,67.7003,-0.156991
31.682,67.7003,-0.156991
31.714,67.7003,-0.156991
31.744,67.7003,-0.156991
31.776,67.7003,-0.156991
31.806,67.7003,-0.152305
31.837,67.7003,-0.152305
31.868,67.7003,-0.152305
31.899,67.7003,-0.152305
31.929,67.7003,-0.152305
31.961,67.7003,-0.152305
31.992,67.7003,-0.152305
32.023,67.7003,-0.152305
32.053,67.7003,-0.152305
32.084,67.7003,-0.148334
32.114,67.7003,-0.148334
32.145,67.7003,-0.148334
32.175,67.7003,-0.148334
32.207,67.7003,-0.148334
32.239,67.7003,-0.148334
32.272,67.7003,-0.148334
32.303,67.7003,-0.148334
32.332,67.7003,-0.144853
32.364,67.7003,-0.144853
32.398,67.7003,-0.144853
32.427,67.7003,-0.144853
32.458,67.7003,-0.144853
32.488,67.7003,-0.144853
32.519,67.7003,-0.144853
32.549,67.7003,-0.144853
32.580,67.7003,-0.141917
32.612,67.7003,-0.141917
32.643,67.7003,-0.141917
32.674,67.7003,-0.141917
32.707,67.7003,-0.141917
32.734,67.7003,-0.141917
32.766,67.7003,-0.141917
32.797,67.7003,-0.141917
32.828,67.7003,-0.139292
32.858,67.7003,-0.139292
32.890,67.7003,-0.139292
32.921,67.7003,-0.139292
32.952,67.7003,-0.139292
32.982,67.7003,-0.139292
33.014,67.7003,-0.139292
33.045,67.7003,-0.139292
33.075,67.7003,-0.136930
33.106,67.7003,-0.136930
33.137,67.7003,-0.136930
33.168,67.7003,-0.136930
33.199,67.7003,-0.136930
33.229,67.7003,-0.136930
33.261,67.7003,-0.136930
33.292,67.7003,-0.134822
33.323,67.7003,-0.134822
33.354,67.7003,-0.134822
33.385,67.7003,-0.134822
33.416,67.7003,-0.134822
33.446,67.7003,-0.134822
33.478,67.7003,-0.134822
33.509,67.7003,-0.134822
33.540,67.7003,-0.134822
33.571,67.7003,-0.132912
33.602,67.7003,-0.132912
33.633,67.7003,-0.132912
33.664,67.7003,-0.132912
33.693,67.7003,-0.132912
33.724,67.7003,-0.132912
33.755,67.7003,-0.132912
33.786,67.7003,-0.132912
33.814,67.7003,-0.131274
33.849,67.7003,-0.131274
33.881,67.7002,-0.131274
33.912,67.6994,-0.131274
33.943,67.6981,-0.131274
33.973,67.6958,-0.131274
34.005,67.6930,-0.131274
34.036,67.6893,-0.129825
34.067,67.6849,-0.129825
34.098,67.6797,-0.129825
34.129,67.6740,-0.129825
34.161,67.6672,-0.129825
34.192,67.6599,-0.129825
34.223,67.6519,-0.129825
34.254,67.6433,-0.129825
34.286,67.6335,-0.129825
34.316,67.6234,0.053842
34.347,67.6124,0.053842
34.377,67.6011,0.053842
34.410,67.5879,0.053842
34.441,67.5749,0.053842
34.471,67.5616,0.053842
34.501,67.5473,0.053842
34.533,67.5316,0.135810
34.563,67.5156,0.135810
34.595,67.4989,0.135810
34.626,67.4814,0.135810
34.656,67.4637,0.135810
34.687,67.4449,0.135810
34.718,67.4245,0.135810
34.749,67.4048,0.135810
34.780,67.3833,0.135810
34.811,67.3620,0.045910
34.842,67.3385,0.045910
34.874,67.3151,0.045910
34.905,67.2914,0.045910
34.935,67.2672,0.045910
34.966,67.2412,0.045910
34.997,67.2152,0.045910
35.028,67.1890,0.072238
35.059,67.1604,0.072238
35.089,67.1333,0.072238
35.121,67.1031,0.072238
35.152,67.0741,0.072238
35.182,67.0438,0.072238
35.213,67.0132,0.072238
35.245,66.9797,0.072238
35.275,66.9477,0.103582
35.307,66.9136,0.103582
35.337,66.8804,0.103582
35.368,66.8452,0.103582
35.399,66.8104,0.103582
35.430,66.7729,0.103582
35.461,66.7363,0.103582
35.492,66.6982,0.103582
35.523,66.6605,0.138087
35.553,66.6215,0.138087
35.585,66.5812,0.138087
35.616,66.5397,0.138087
35.647,66.4985,0.138087
35.679,66.4554,0.138087
35.710,66.4124,0.138087
35.742,66.3674,0.138087
35.773,66.3219,0.138087
35.805,66.2759,0.174531
35.836,66.2306,0.174531
35.867,66.1842,0.174531
35.897,66.1381,0.174531
35.929,66.0880,0.174531
35.957,66.0448,0.174531
35.990,65.9923,0.174531
36.021,65.9410,0.174531
36.052,65.8906,0.191882
36.083,65.8387,0.191882
36.114,65.7864,0.191882
36.146,65.7323,0.191882
36.176,65.6780,0.191882
36.207,65.6251,0.191882
36.238,65.5695,0.191882
36.269,65.5138,0.191882
36.301,65.4544,0.191882
36.332,65.3978,0.185851
36.363,65.3379,0.185851
36.395,65.2791,0.185851
36.426,65.2176,0.185851
36.457,65.1588,0.185851
36.488,65.0974,0.185851
36.519,65.0386,0.185851
36.551,64.9780,0.177053
36.582,64.9207,0.177053
36.612,64.8640,0.177053
36.643,64.8081,0.177053
36.675,64.7503,0.177053
36.706,64.6960,0.177053
36.736,64.6444,0.177053
36.767,64.5905,0.177053
36.797,64.5382,0.093363
36.828,64.4864,0.093363
36.858,64.4369,0.093363
36.890,64.3842,0.093363
36.921,64.3350,0.093363
36.952,64.2858,0.093363
36.983,64.2371,0.093363
37.015,64.1886,0.093363
37.046,64.1417,0.011734
37.077,64.0952,0.011734
37.108,64.0505,0.011734
37.141,64.0014,0.011734
37.169,63.9626,0.011734
37.201,63.9178,0.011734
37.231,63.8770,0.011734
37.261,63.8350,0.011734
37.292,63.7941,0.009861
37.323,63.7546,0.009861
37.353,63.7146,0.009861
37.384,63.6761,0.009861
37.415,63.6377,0.009861
37.446,63.6006,0.009861
37.477,63.5633,0.009861
37.508,63.5277,0.009861
37.539,63.4922,0.009861
37.570,63.4589,0.009174
37.601,63.4240,0.009174
37.633,63.3902,0.009174
37.663,63.3589,0.009174
37.694,63.3275,0.009174
37.724,63.2968,0.009174
37.755,63.2665,0.009174
37.787,63.2365,0.008873
37.820,63.2054,0.008873
37.849,63.1788,0.008873
37.880,63.1514,0.008873
37.911,63.1254,0.008873
37.941,63.0994,0.008873
37.973,63.0745,0.008873
38.003,63.0499,0.008873
38.035,63.0254,0.008666
38.065,63.0029,0.008666
38.096,62.9812,0.008666
38.127,62.9598,0.008666
38.158,62.9390,0.008666
38.189,62.9188,0.008666
38.220,62.8995,0.008666
38.252,62.8804,0.008666
38.283,62.8623,0.008506
38.314,62.8445,0.008506
38.345,62.8285,0.008506
38.377,62.8120,0.008506
38.407,62.7977,0.008506
38.439,62.7829,0.008506
38.470,62.7695,0.008506
38.501,62.7569,0.008506
38.532,62.7446,0.008356
38.563,62.7330,0.008356
38.594,62.7226,0.008356
38.625,62.7126,0.008356
38.656,62.7035,0.008356
38.687,62.6951,0.008356
38.719,62.6870,0.008356
38.750,62.6801,0.008356
38.782,62.6739,0.008139
38.812,62.6684,0.008139
38.843,62.6637,0.008139
38.874,62.6596,0.008139
38.905,62.6563,0.008139
38.936,62.6537,0.008139
38.968,62.6518,0.008139
38.999,62.6507,0.008139
39.030,62.6503,0.007970
39.061,62.6503,0.007970
39.091,62.6503,0.007970
39.121,62.6503,0.007970
39.153,62.6503,0.007970
39.184,62.6503,0.007970
39.215,62.6503,0.007970
39.246,62.6504,0.007970
39.277,62.6512,0.007885
39.308,62.6528,0.007885
39.339,62.6549,0.007885
39.370,62.6579,0.007885
39.401,62.6616,0.007885
39.433,62.6662,0.007885
39.463,62.6710,0.007885
39.495,62.6771,0.007885
39.526,62.6838,0.007631
39.558,62.6914,0.007631
39.589,62.6994,0.007631
39.621,62.7087,0.007631
39.652,62.7180,0.007631
39.683,62.7287,0.007631
39.715,62.7397,0.007631
39.745,62.7510,0.007631
39.778,62.7643,0.007321
39.808,62.7772,0.007321
39.840,62.7916,0.007321
39.870,62.8060,0.007321
39.900,62.8207,0.007321
39.931,62.8370,0.007321
39.961,62.8532,0.007321
39.992,62.8710,0.007321
40.023,62.8891,0.007321
40.054,62.9083,0.007076
40.085,62.9283,0.007076
40.116,62.9483,0.007076
40.147,62.9692,0.007076
40.178,62.9916,0.007076
40.209,63.0141,0.007076
40.240,63.0375,0.007076
40.270,63.0612,0.007076
40.302,63.0858,0.006813
40.334,63.1126,0.006813
40.364,63.1380,0.006813
40.395,63.1649,0.006813
40.428,63.1955,0.006813
40.456,63.2206,0.006813
40.487,63.2497,0.006813
40.518,63.2792,0.006813
40.549,63.3104,0.006474
40.580,63.3417,0.006474
40.611,63.3739,0.006474
40.642,63.4069,0.006474
40.674,63.4418,0.006474
40.706,63.4756,0.006474
40.736,63.5112,0.006474
40.767,63.5451,0.006474
40.797,63.5815,0.005994
40.828,63.6179,0.005994
40.859,63.6560,0.005994
40.890,63.6952,0.005994
40.922,63.7347,0.005994
40.951,63.7733,0.005994
40.983,63.8148,0.005994
41.014,63.8567,0.005994
41.044,63.8977,0.005467
41.076,63.9416,0.005467
41.107,63.9846,0.005467
41.138,64.0298,0.005467
41.169,64.0750,0.005467
41.201,64.1222,0.005467
41.232,64.1682,0.005467
41.262,64.2162,0.005467
41.293,64.2637,0.004761
41.323,64.3106,0.004761
41.357,64.3643,0.004761
41.385,64.4101,0.004761
41.415,64.4591,0.004761
41.447,64.5120,0.004761
41.477,64.5633,0.004761
41.508,64.6175,0.004761
41.539,64.6700,0.003745
41.570,64.7262,0.003745
41.601,64.7802,0.003745
41.633,64.8380,0.003745
41.663,64.8929,0.003745
41.695,64.9536,0.003745
41.726,65.0111,0.003745
41.758,65.0725,0.003745
41.789,65.1303,0.002362
41.820,65.1898,0.002362
41.851,65.2516,0.002362
41.882,65.3094,0.002362
41.913,65.3679,0.002362
41.944,65.4231,0.002362
41.976,65.4819,0.002362
42.006,65.5373,0.002362
42.037,65.5923,0.002362
42.068,65.6461,0.000273
42.099,65.6991,0.000273
42.129,65.7510,0.000273
42.160,65.8027,0.000273
42.190,65.8536,0.000273
42.222,65.9052,0.000273
42.253,65.9559,0.000273
42.284,66.0051,0.000273
42.315,66.0529,-0.003340
42.346,66.1013,-0.003340
42.377,66.1485,-0.003340
42.407,66.1935,-0.003340
42.439,66.2407,-0.003340
42.470,66.2858,-0.003340
42.501,66.3293,-0.003340
42.531,66.3719,-0.010981
42.562,66.4150,-0.010981
42.592,66.4561,-0.010981
42.623,66.4973,-0.010981
42.655,66.5382,-0.010981
42.685,66.5773,-0.010981
42.715,66.6146,-0.010981
42.746,66.6545,-0.010981
42.778,66.6915,-0.027900
42.808,66.7275,-0.027900
42.838,66.7629,-0.027900
42.869,66.7983,-0.027900
42.900,66.8342,-0.027900
42.928,66.8643,-0.027900
42.962,66.9005,-0.027900
42.993,66.9346,-0.027900
43.024,66.9660,-0.057757
43.056,66.9976,-0.057757
43.088,67.0290,-0.057757
43.119,67.0587,-0.057757
43.150,67.0880,-0.057757
43.181,67.1158,-0.057757
43.211,67.1432,-0.057757
43.242,67.1690,-0.057757
43.272,67.1954,-0.057757
43.303,67.2206,-0.095574
43.335,67.2454,-0.095574
43.366,67.2692,-0.095574
43.397,67.2929,-0.095574
43.429,67.3158,-0.095574
43.460,67.3378,-0.095574
43.492,67.3589,-0.095574
43.522,67.3788,-0.095574
43.553,67.3983,-0.135189
43.584,67.4174,-0.135189
43.616,67.4355,-0.135189
43.648,67.4532,-0.135189
43.678,67.4696,-0.135189
43.709,67.4857,-0.135189
43.740,67.5007,-0.135189
43.770,67.5148,-0.188419
43.801,67.5282,-0.188419
43.831,67.5408,-0.188419
43.864,67.5538,-0.188419
43.894,67.5649,-0.188419
43.927,67.5763,-0.188419
43.956,67.5857,-0.188419
43.987,67.5953,-0.188419
44.018,67.6037,-0.286026
44.050,67.6117,-0.286026
44.081,67.6189,-0.286026
44.113,67.6256,-0.286026
44.144,67.6312,-0.286026
44.174,67.6359,-0.286026
44.205,67.6403,-0.286026
44.236,67.6436,-0.286026
44.267,67.6464,-0.286026
44.298,67.6483,-0.392770
44.328,67.6497,-0.392770
44.359,67.6503,-0.392770
44.391,67.6503,-0.392770
44.421,67.6503,-0.392770
44.452,67.6503,-0.392770
44.483,67.6503,-0.392770
44.515,67.6503,-0.392770
44.546,67.6503,-0.378853
44.576,67.6503,-0.378853
44.607,67.6503,-0.378853
44.637,67.6503,-0.378853
44.668,67.6503,-0.378853
44.699,67.6503,-0.378853
44.731,67.6503,-0.378853
44.762,67.6503,-0.378853
44.793,67.6503,-0.275581
44.823,67.6503,-0.275581
44.855,67.6503,-0.275581
44.886,67.6503,-0.275581
44.918,67.6503,-0.275581
44.949,67.6503,-0.275581
44.980,67.6503,-0.275581
45.011,67.6503,-0.275581
45.043,67.6503,-0.275581
45.073,67.6503,-0.213553
45.103,67.6503,-0.213553
45.135,67.6503,-0.213553
45.166,67.6503,-0.213553
45.197,67.6503,-0.213553
45.228,67.6503,-0.213553
45.260,67.6503,-0.213553
45.290,67.6503,-0.213553
45.321,67.6503,-0.190678
45.354,67.6503,-0.190678
45.383,67.6503,-0.190678
45.413,67.6503,-0.190678
45.445,67.6503,-0.190678
45.476,67.6503,-0.190678
45.507,67.6503,-0.190678
45.538,67.6503,-0.190678
45.569,67.6503,-0.177617
45.599,67.6503,-0.177617
45.631,67.6503,-0.177617
45.662,67.6503,-0.177617
45.693,67.6503,-0.177617
45.724,67.6503,-0.177617
45.754,67.6503,-0.177617
45.785,67.6503,-0.177617
45.816,67.6503,-0.168593
45.848,67.6503,-0.168593
45.877,67.6503,-0.168593
45.908,67.6503,-0.168593
45.939,67.6503,-0.168593
45.970,67.6503,-0.168593
46.002,67.6503,-0.168593
46.033,67.6503,-0.168593
46.064,67.6503,-0.161781
46.096,67.6503,-0.161781
46.125,67.6503,-0.161781
46.156,67.6503,-0.161781
46.187,67.6503,-0.161781
46.218,67.6503,-0.161781
46.249,67.6503,-0.161781
46.281,67.6503,-0.161781
46.312,67.6503,-0.156370
46.343,67.6503,-0.156370
46.374,67.6503,-0.156370
46.405,67.6503,-0.156370
46.435,67.6503,-0.156370
46.466,67.6503,-0.156370
46.497,67.6503,-0.156370
46.529,67.6503,-0.151910
46.560,67.6503,-0.151910
46.591,67.6503,-0.151910
46.622,67.6503,-0.151910
46.654,67.6503,-0.151910
46.684,67.6503,-0.151910
46.715,67.6503,-0.151910
46.745,67.6503,-0.151910
46.777,67.6503,-0.148061
46.807,67.6503,-0.148061
46.838,67.6503,-0.148061
46.870,67.6503,-0.148061
46.900,67.6503,-0.148061
46.930,67.6503,-0.148061
46.961,67.6503,-0.148061
46.991,67.6503,-0.148061
47.023,67.6503,-0.144730
47.053,67.6503,-0.144730
47.085,67.6503,-0.144730
47.116,67.6503,-0.144730
47.147,67.6503,-0.144730
47.183,67.6503,-0.144730
47.209,67.6503,-0.144730
47.240,67.6503,-0.144730
47.272,67.6503,-0.144730
47.302,67.6503,-0.141804
47.333,67.6503,-0.141804
47.366,67.6503,-0.141804
47.395,67.6503,-0.141804
47.425,67.6503,-0.141804
47.457,67.6503,-0.141804
47.490,67.6503,-0.141804
47.518,67.6503,-0.139254
47.549,67.6503,-0.139254
47.581,67.6503,-0.139254
47.612,67.6503,-0.139254
47.643,67.6503,-0.139254
47.674,67.6503,-0.139254
47.705,67.6503,-0.139254
47.740,67.6503,-0.139254
47.767,67.6503,-0.139254
47.798,67.6503,-0.136986
47.830,67.6503,-0.136986
47.860,67.6503,-0.136986
47.892,67.6503,-0.136986
47.922,67.6503,-0.136986
47.953,67.6503,-0.136986
47.988,67.6503,-0.136986
48.015,67.6503,-0.134831
48.046,67.6503,-0.134831
48.077,67.6503,-0.134831
48.107,67.6503,-0.134831
48.139,67.6503,-0.134831
48.169,67.6503,-0.134831
48.200,67.6503,-0.134831
48.232,67.6503,-0.134831
48.263,67.6503,-0.134831
48.293,67.6503,-0.134831
48.324,67.6503,-0.132893
48.355,67.6503,-0.132893
48.386,67.6503,-0.132893
48.417,67.6503,-0.132893
48.450,67.6503,-0.132893
48.480,67.6503,-0.132893
48.511,67.6503,-0.132893
48.542,67.6503,-0.131331
48.573,67.6503,-0.131331
48.604,67.6503,-0.131331
48.635,67.6503,-0.131331
48.666,67.6503,-0.131331
48.697,67.6498,-0.131331
48.728,67.6486,-0.131331
48.758,67.6466,-0.131331
48.789,67.6440,-0.130221
48.822,67.6405,-0.130221
48.850,67.6367,-0.130221
48.882,67.6317,-0.130221
48.912,67.6261,-0.130221
48.943,67.6201,-0.130221
48.973,67.6132,-0.130221
49.005,67.6053,-0.130221
49.036,67.5969,0.022442
49.067,67.5874,0.022442
49.098,67.5778,0.022442
49.130,67.5669,0.022442
49.160,67.5557,0.022442
49.191,67.5437,0.022442
49.221,67.5310,0.022442
49.251,67.5181,0.022442
49.282,67.5035,0.104814
49.314,67.4882,0.104814
49.345,67.4722,0.104814
49.376,67.4560,0.104814
49.407,67.4386,0.104814
49.439,67.4208,0.104814
49.469,67.4024,0.104814
49.500,67.3828,0.104814
49.532,67.3630,0.043492
49.563,67.3416,0.043492
49.594,67.3202,0.043492
49.625,67.2976,0.043492
49.656,67.2748,0.043492
49.687,67.2510,0.043492
49.719,67.2262,0.043492
49.749,67.2015,0.043492
49.781,67.1749,0.066893
49.811,67.1484,0.066893
49.843,67.1214,0.066893
49.874,67.0930,0.066893
49.905,67.0637,0.066893
49.937,67.0332,0.066893
49.968,67.0037,0.066893
49.998,66.9725,0.066893
50.029,66.9418,0.097475
50.059,66.9092,0.097475
50.091,66.8759,0.097475
50.122,66.8416,0.097475
50.153,66.8068,0.097475
50.184,66.7709,0.097475
50.215,66.7353,0.097475
50.247,66.6973,0.097475
50.278,66.6602,0.130832
50.309,66.6207,0.130832
50.340,66.5826,0.130832
50.371,66.5422,0.130832
50.402,66.5026,0.130832
50.433,66.4612,0.130832
50.464,66.4190,0.130832
50.494,66.3766,0.130832
50.519,66.3419,0.130832
50.557,66.2892,0.165450
50.587,66.2445,0.165450
50.618,66.2002,0.165450
50.649,66.1527,0.165450
50.680,66.1065,0.165450
50.712,66.0569,0.165450
50.743,66.0090,0.165450
50.774,65.9586,0.182840
50.805,65.9089,0.182840
50.836,65.8578,0.182840
50.867,65.8063,0.182840
50.897,65.7564,0.182840
50.929,65.7022,0.182840
50.960,65.6486,0.182840
50.990,65.5944,0.182840
51.021,65.5398,0.182840
51.053,65.4826,0.178511
51.085,65.4257,0.178511
51.116,65.3689,0.178511
51.146,65.3112,0.178511
51.178,65.2512,0.178511
51.209,65.1924,0.178511
51.240,65.1324,0.178511
51.271,65.0717,0.174775
51.303,65.0102,0.174775
51.333,64.9517,0.174775
51.365,64.8937,0.174775
51.396,64.8360,0.174775
51.427,64.7773,0.174775
51.458,64.7220,0.174775
51.488,64.6684,0.174775
51.519,64.6152,0.094934
51.551,64.5593,0.094934
51.582,64.5071,0.094934
51.612,64.4542,0.094934
51.645,64.3983,0.094934
51.674,64.3537,0.094934
51.704,64.3035,0.094934
51.736,64.2528,0.094934
51.767,64.2042,0.094934
51.800,64.1527,0.094934
51.830,64.1086,0.012317
51.861,64.0618,0.012317
51.891,64.0179,0.012317
51.922,63.9728,0.012317
51.953,63.9279,0.012317
51.984,63.8841,0.012317
52.016,63.8398,0.012317
52.046,63.7984,0.010097
52.077,63.7576,0.010097
52.109,63.7159,0.010097
52.139,63.6780,0.010097
52.170,63.6373,0.010097
52.201,63.6002,0.010097
52.232,63.5615,0.010097
52.263,63.5252,0.009372
52.294,63.4885,0.009372
52.325,63.4531,0.009372
52.356,63.4186,0.009372
52.387,63.3843,0.009372
52.418,63.3506,0.009372
52.449,63.3179,0.009372
52.481,63.2846,0.009372
52.512,63.2539,0.009372
52.544,63.2226,0.009005
52.575,63.1923,0.009005
52.606,63.1641,0.009005
52.637,63.1360,0.009005
52.668,63.1081,0.009005
52.699,63.0804,0.009005
52.730,63.0555,0.009005
52.761,63.0302,0.008742
52.792,63.0053,0.008742
52.823,62.9812,0.008742
52.854,62.9571,0.008742
52.885,62.9352,0.008742
52.917,62.9129,0.008742
52.947,62.8928,0.008742
52.979,62.8713,0.008742
53.011,62.8520,0.008742
53.042,62.8329,0.008742
53.072,62.8156,0.008506
53.103,62.7977,0.008506
53.134,62.7814,0.008506
53.166,62.7652,0.008506
53.196,62.7505,0.008506
53.228,62.7359,0.008506
53.258,62.7225,0.008506
53.289,62.7095,0.008506
53.320,62.6968,0.008337
53.351,62.6857,0.008337
53.382,62.6751,0.008337
53.413,62.6650,0.008337
53.443,62.6558,0.008337
53.474,62.6472,0.008337
53.505,62.6394,0.008337
53.536,62.6321,0.008337
53.567,62.6256,0.008233
53.598,62.6199,0.008233
53.629,62.6151,0.008233
53.661,62.6106,0.008233
53.691,62.6073,0.008233
53.719,62.6047,0.008233
53.753,62.6023,0.008233
53.784,62.6010,0.008045
53.815,62.6003,0.008045
53.847,62.6003,0.008045
53.877,62.6003,0.008045
53.907,62.6003,0.008045
53.938,62.6003,0.008045
53.969,62.6007,0.008045
54.000,62.6017,0.008045
54.031,62.6036,0.008045
54.062,62.6060,0.007895
54.093,62.6094,0.007895
54.125,62.6134,0.007895
54.156,62.6182,0.007895
54.187,62.6235,0.007895
54.219,62.6300,0.007895
54.249,62.6367,0.007895
54.281,62.6447,0.007895
54.313,62.6532,0.007725
54.345,62.6626,0.007725
54.375,62.6720,0.007725
54.407,62.6831,0.007725
54.438,62.6943,0.007725
54.469,62.7065,0.007725
54.500,62.7194,0.007725
54.530,62.7324,0.007471
54.561,62.7467,0.007471
54.592,62.7612,0.007471
54.623,62.7773,0.007471
54.653,62.7936,0.007471
54.684,62.8104,0.007471
54.715,62.8284,0.007471
54.746,62.8466,0.007471
54.777,62.8660,0.007471
54.809,62.8865,0.007208
54.840,62.9077,0.007208
54.871,62.9289,0.007208
54.902,62.9512,0.007208
54.933,62.9741,0.007208
54.964,62.9973,0.007208
54.994,63.0216,0.007208
55.026,63.0471,0.006869
55.057,63.0735,0.006869
55.088,63.1005,0.006869
55.119,63.1276,0.006869
55.150,63.1550,0.006869
55.181,63.1844,0.006869
55.211,63.2133,0.006869
55.243,63.2440,0.006869
55.273,63.2739,0.006869
55.304,63.3063,0.006483
55.335,63.3383,0.006483
55.366,63.3705,0.006483
55.398,63.4055,0.006483
55.429,63.4397,0.006483
55.460,63.4753,0.006483
55.491,63.5115,0.006483
55.522,63.5482,0.006032
55.552,63.5848,0.006032
55.584,63.6249,0.006032
55.615,63.6635,0.006032
55.647,63.7038,0.006032
55.678,63.7443,0.006032
55.708,63.7850,0.006032
55.740,63.8283,0.006032
55.771,63.8707,0.005401
55.802,63.9139,0.005401
55.833,63.9580,0.005401
55.864,64.0022,0.005401
55.894,64.0466,0.005401
55.926,64.0944,0.005401
55.956,64.1408,0.005401
55.988,64.1890,0.005401
56.018,64.2361,0.004639
56.050,64.2871,0.004639
56.081,64.3368,0.004639
56.112,64.3878,0.004639
56.143,64.4394,0.004639
56.174,64.4909,0.004639
56.206,64.5439,0.004639
56.237,64.5981,0.004639
56.268,64.6518,0.004639
56.299,64.7081,0.003670
56.330,64.7634,0.003670
56.361,64.8204,0.003670
56.391,64.8762,0.003670
56.423,64.9352,0.003670
56.455,64.9963,0.003670
56.486,65.0556,0.003670
56.516,65.1133,0.003670
56.547,65.1739,0.002145
56.578,65.2326,0.002145
56.609,65.2910,0.002145
56.640,65.3483,0.002145
56.671,65.4045,0.002145
56.703,65.4621,0.002145
56.733,65.5166,0.002145
56.764,65.5722,0.002145
56.794,65.6237,-0.000094
56.825,65.6767,-0.000094
56.856,65.7287,-0.000094
56.887,65.7812,-0.000094
56.919,65.8335,-0.000094
56.949,65.8816,-0.000094
56.980,65.9323,-0.000094
57.012,65.9817,-0.000094
57.042,66.0303,-0.004009
57.073,66.0772,-0.004009
57.104,66.1227,-0.004009
57.134,66.1681,-0.004009
57.165,66.2144,-0.004009
57.197,66.2585,-0.004009
57.227,66.3022,-0.004009
57.259,66.3458,-0.004009
57.290,66.3890,-0.004009
57.321,66.4308,-0.012741
57.352,66.4710,-0.012741
57.383,66.5113,-0.012741
57.414,66.5515,-0.012741
57.445,66.5904,-0.012741
57.476,66.6277,-0.012741
57.508,66.6652,-0.012741
57.539,66.7022,-0.012741
57.570,66.7376,-0.031494
57.601,66.7726,-0.031494
57.632,66.8070,-0.031494
57.665,66.8426,-0.031494
57.694,66.8739,-0.031494
57.725,66.9062,-0.031494
57.756,66.9373,-0.031494
57.787,66.9684,-0.031494
57.818,66.9973,-0.063139
57.848,67.0270,-0.063139
57.880,67.0553,-0.063139
57.911,67.0832,-0.063139
57.941,67.1097,-0.063139
57.973,67.1370,-0.063139
58.004,67.1620,-0.063139
58.034,67.1868,-0.063139
58.066,67.2113,-0.101615
58.097,67.2345,-0.101615
58.128,67.2574,-0.101615
58.158,67.2794,-0.101615
58.190,67.3007,-0.101615
58.222,67.3220,-0.101615
58.252,67.3410,-0.101615
58.283,67.3600,-0.101615
58.314,67.3786,-0.141700
58.346,67.3968,-0.141700
58.376,67.4131,-0.141700
58.407,67.4293,-0.141700
58.437,67.4439,-0.141700
58.467,67.4587,-0.141700
58.498,67.4726,-0.141700
58.530,67.4859,-0.141700
58.561,67.4984,-0.201640
58.591,67.5100,-0.201640
58.622,67.5213,-0.201640
58.653,67.5315,-0.201640
58.685,67.5414,-0.201640
58.716,67.5504,-0.201640
58.747,67.5587,-0.201640
58.778,67.5659,-0.201640
58.809,67.5728,-0.306558
58.840,67.5788,-0.306558
58.872,67.5841,-0.306558
58.902,67.5883,-0.306558
58.933,67.5922,-0.306558
58.965,67.5954,-0.306558
58.995,67.5976,-0.306558
59.027,67.5992,-0.306558
59.057,67.6001,-0.404908
59.087,67.6003,-0.404908
59.118,67.6003,-0.404908
59.149,67.6003,-0.404908
59.180,67.6003,-0.404908
59.211,67.6003,-0.404908
59.242,67.6003,-0.404908
59.272,67.6003,-0.404908
59.303,67.6003,-0.368812
59.334,67.6003,-0.368812
59.365,67.6003,-0.368812
59.396,67.6003,-0.368812
59.427,67.6003,-0.368812
59.458,67.6003,-0.368812
59.490,67.6003,-0.368812
59.521,67.6003,-0.368812
59.552,67.6003,-0.261580
59.583,67.6003,-0.261580
59.614,67.6003,-0.261580
59.646,67.6003,-0.261580
59.677,67.6003,-0.261580
59.708,67.6003,-0.261580
59.739,67.6003,-0.261580
59.770,67.6003,-0.261580
59.801,67.6003,-0.209676
59.832,67.6003,-0.209676
59.864,67.6003,-0.209676
59.896,67.6003,-0.209676
59.928,67.6003,-0.209676
59.958,67.6003,-0.209676
59.990,67.6003,-0.209676
60.021,67.6003,-0.209676
60.052,67.6003,-0.188824
60.082,67.6003,-0.188824
60.113,67.6003,-0.188824
60.144,67.6003,-0.188824
60.175,67.6003,-0.188824
60.206,67.6003,-0.188824
60.237,67.6003,-0.188824
60.267,67.6003,-0.188824
60.299,67.6003,-0.176573
60.331,67.6003,-0.176573
60.360,67.6003,-0.176573
60.392,67.6003,-0.176573
60.425,67.6003,-0.176573
60.454,67.6003,-0.176573
60.485,67.6003,-0.176573
60.516,67.6003,-0.176573
60.547,67.6003,-0.167944
60.579,67.6003,-0.167944
60.610,67.6003,-0.167944
60.640,67.6003,-0.167944
60.672,67.6003,-0.167944
60.703,67.6003,-0.167944
60.734,67.6003,-0.167944
60.764,67.6003,-0.167944
60.795,67.6003,-0.161357
60.826,67.6003,-0.161357
60.856,67.6003,-0.161357
60.888,67.6003,-0.161357
60.919,67.6003,-0.161357
60.950,67.6003,-0.161357
60.981,67.6003,-0.161357
61.012,67.6003,-0.161357
61.042,67.6003,-0.156041
61.073,67.6003,-0.156041
61.104,67.6003,-0.156041
61.136,67.6003,-0.156041
61.166,67.6003,-0.156041
61.197,67.6003,-0.156041
61.228,67.6003,-0.156041
61.259,67.6003,-0.156041
61.290,67.6003,-0.156041
61.321,67.6003,-0.151656
61.352,67.6003,-0.151656
61.383,67.6003,-0.151656
61.414,67.6003,-0.151656
61.445,67.6003,-0.151656
61.477,67.6003,-0.151656
61.507,67.6003,-0.151656
61.538,67.6003,-0.151656
61.569,67.6003,-0.147948
61.601,67.6003,-0.147948
61.632,67.6003,-0.147948
61.663,67.6003,-0.147948
61.695,67.6003,-0.147948
61.725,67.6003,-0.147948
61.757,67.6003,-0.147948
61.787,67.6003,-0.144693
61.817,67.6003,-0.144693
61.849,67.6003,-0.144693
61.880,67.6003,-0.144693
61.911,67.6003,-0.144693
61.942,67.6003,-0.144693
61.974,67.6003,-0.144693
62.007,67.6003,-0.144693
62.037,67.6003,-0.141842
62.067,67.6003,-0.141842
62.099,67.6003,-0.141842
62.129,67.6003,-0.141842
62.161,67.6003,-0.141842
62.191,67.6003,-0.141842
62.222,67.6003,-0.141842
62.253,67.6003,-0.141842
62.284,67.6003,-0.141842
62.315,67.6003,-0.139310
62.346,67.6003,-0.139310
62.376,67.6003,-0.139310
62.407,67.6003,-0.139310
62.438,67.6003,-0.139310
62.470,67.6003,-0.139310
62.499,67.6003,-0.139310
62.530,67.6003,-0.137014
62.561,67.6003,-0.137014
62.592,67.6003,-0.137014
62.623,67.6003,-0.137014
62.654,67.6003,-0.137014
62.686,67.6003,-0.137014
62.716,67.6003,-0.137014
62.748,67.6003,-0.137014
62.778,67.6003,-0.134916
62.809,67.6003,-0.134916
62.840,67.6003,-0.134916
62.871,67.6003,-0.134916
62.902,67.6003,-0.134916
62.932,67.6003,-0.134916
62.963,67.6003,-0.134916
62.993,67.6003,-0.134916
63.025,67.6003,-0.133034
63.056,67.6003,-0.133034
63.087,67.6003,-0.133034
63.118,67.6003,-0.133034
63.149,67.6003,-0.133034
63.181,67.6003,-0.133034
63.212,67.6003,-0.133034
63.242,67.6003,-0.133034
63.273,67.6003,-0.131613
63.303,67.6003,-0.131613
63.334,67.6003,-0.131613
63.364,67.6001,-0.131613
63.395,67.5991,-0.131613
63.426,67.5974,-0.131613
63.456,67.5950,-0.131613
63.487,67.5918,-0.131613
63.518,67.5881,-0.131613
63.549,67.5833,-0.128988
63.580,67.5781,-0.128988
63.610,67.5721,-0.128988
63.641,67.5652,-0.128988
63.673,67.5576,-0.128988
63.703,67.5496,-0.128988
63.734,67.5406,-0.128988
63.765,67.5309,-0.128988
63.796,67.5208,0.041873
63.827,67.5096,0.041873
63.857,67.4979,0.041873
63.891,67.4843,0.041873
63.920,67.4719,0.041873
63.951,67.4576,0.041873
63.982,67.4428,0.041873
64.014,67.4270,0.041873
64.044,67.4111,0.123521
64.076,67.3933,0.123521
64.106,67.3768,0.123521
64.137,67.3584,0.123521
64.167,67.3398,0.123521
64.200,67.3182,0.123521
64.229,67.2990,0.123521
64.260,67.2779,0.123521
64.291,67.2562,0.048225
64.322,67.2334,0.048225
64.353,67.2103,0.048225
64.384,67.1856,0.048225
64.414,67.1612,0.048225
64.446,67.1355,0.048225
64.477,67.1090,0.048225
64.508,67.0817,0.048225
64.537,67.0556,0.075240
64.568,67.0266,0.075240
64.599,66.9982,0.075240
64.632,66.9663,0.075240
64.661,66.9374,0.075240
64.692,66.9051,0.075240
64.724,66.8726,0.075240
64.757,66.8373,0.075240
64.788,66.8044,0.106480
64.819,66.7690,0.106480
64.848,66.7368,0.106480
64.881,66.6978,0.106480
64.910,66.6643,0.106480
64.940,66.6269,0.106480
64.972,66.5882,0.106480
65.002,66.5512,0.106480
65.033,66.5108,0.106480
65.064,66.4715,0.140618
65.095,66.4296,0.140618
65.126,66.3890,0.140618
65.157,66.3472,0.140618
65.189,66.3023,0.140618
65.220,66.2595,0.140618
65.249,66.2164,0.140618
65.281,66.1697,0.172254
65.313,66.1220,0.172254
65.344,66.0770,0.172254
65.375,66.0281,0.172254
65.406,65.9803,0.172254
65.436,65.9333,0.172254
65.467,65.8830,0.172254
65.497,65.8347,0.172254
65.529,65.7817,0.181381
65.559,65.7311,0.181381
65.590,65.6787,0.181381
65.621,65.6264,0.181381
65.652,65.5734,0.181381
65.683,65.5167,0.181381
65.714,65.4617,0.181381
65.746,65.4041,0.181381
65.777,65.3482,0.176479
65.807,65.2911,0.176479
65.839,65.2324,0.176479
65.870,65.1733,0.176479
65.901,65.1132,0.176479
65.932,65.0520,0.176479
65.964,64.9910,0.176479
65.994,64.9326,0.176479
66.025,64.8744,0.157217
66.056,64.8170,0.157217
66.087,64.7592,0.157217
66.119,64.7024,0.157217
66.149,64.6473,0.157217
66.180,64.5930,0.157217
66.212,64.5367,0.157217
66.242,64.4851,0.157217
66.273,64.4317,0.075362
66.304,64.3797,0.075362
66.335,64.3277,0.075362
66.367,64.2770,0.075362
66.398,64.2271,0.075362
66.430,64.1769,0.075362
66.460,64.1287,0.075362
66.492,64.0803,0.075362
66.521,64.0363,0.011245
66.556,63.9858,0.011245
66.583,63.9449,0.011245
66.614,63.8999,0.011245
66.646,63.8558,0.011245
66.677,63.8132,0.011245
66.708,63.7696,0.011245
66.739,63.7285,0.011245
66.770,63.6876,0.011245
66.801,63.6471,0.009767
66.831,63.6089,0.009767
66.862,63.5695,0.009767
66.896,63.5270,0.009767
66.925,63.4936,0.009767
66.957,63.4554,0.009767
66.988,63.4190,0.009767
67.019,63.3838,0.009767
67.050,63.3498,0.009193
67.080,63.3157,0.009193
67.111,63.2841,0.009193
67.142,63.2507,0.009193
67.173,63.2196,0.009193
67.204,63.1891,0.009193
67.235,63.1588,0.009193
67.265,63.1300,0.009193
67.297,63.1005,0.009193
67.328,63.0729,0.008845
67.359,63.0455,0.008845
67.390,63.0195,0.008845
67.421,62.9927,0.008845
67.452,62.9684,0.008845
67.485,62.9429,0.008845
67.515,62.9201,0.008845
67.548,62.8954,0.008629
67.577,62.8747,0.008629
67.608,62.8535,0.008629
67.639,62.8328,0.008629
67.670,62.8125,0.008629
67.701,62.7936,0.008629
67.732,62.7756,0.008629
67.763,62.7573,0.008629
67.793,62.7411,0.008488
67.825,62.7241,0.008488
67.855,62.7092,0.008488
67.887,62.6937,0.008488
67.918,62.6798,0.008488
67.950,62.6659,0.008488
67.980,62.6539,0.008488
68.011,62.6419,0.008488
68.042,62.6310,0.008328
68.072,62.6207,0.008328
68.106,62.6099,0.008328
68.134,62.6018,0.008328
68.166,62.5933,0.008328
68.197,62.5857,0.008328
68.229,62.5785,0.008328
68.258,62.5732,0.008328
68.289,62.5675,0.008205
68.316,62.5636,0.008205
68.351,62.5590,0.008205
68.385,62.5557,0.008205
68.413,62.5533,0.008205
68.446,62.5516,0.008205
68.475,62.5506,0.008205
68.506,62.5504,0.008205
68.538,62.5504,0.008045
68.568,62.5504,0.008045
68.599,62.5504,0.008045
68.630,62.5504,0.008045
68.661,62.5504,0.008045
68.692,62.5504,0.008045
68.723,62.5505,0.008045
68.754,62.5512,0.008045
68.784,62.5528,0.007923
68.816,62.5551,0.007923
68.848,62.5582,0.007923
68.878,62.5618,0.007923
68.910,62.5664,0.007923
68.941,62.5714,0.007923
68.972,62.5776,0.007923
69.003,62.5841,0.007923
69.034,62.5917,0.007923
69.065,62.5995,0.007678
69.097,62.6089,0.007678
69.127,62.6181,0.007678
69.157,62.6280,0.007678
69.189,62.6390,0.007678
69.220,62.6508,0.007678
69.251,62.6635,0.007678
69.282,62.6765,0.007678
69.313,62.6906,0.007415
69.341,62.7036,0.007415
69.374,62.7201,0.007415
69.406,62.7363,0.007415
69.438,62.7540,0.007415
69.468,62.7714,0.007415
69.500,62.7897,0.007415
69.531,62.8086,0.007415
69.562,62.8287,0.007217
69.594,62.8505,0.007217
69.625,62.8710,0.007217
69.656,62.8925,0.007217
69.687,62.9155,0.007217
69.718,62.9392,0.007217
69.749,62.9631,0.007217
69.781,62.9890,0.007217
69.812,63.0147,0.006897
69.843,63.0411,0.006897
69.875,63.0690,0.006897
69.906,63.0966,0.006897
69.937,63.1252,0.006897
69.968,63.1548,0.006897
69.999,63.1847,0.006897
70.031,63.2161,0.006897
70.061,63.2464,0.006587
70.091,63.2779,0.006587
70.122,63.3106,0.006587
70.154,63.3455,0.006587
70.185,63.3796,0.006587
70.216,63.4150,0.006587
70.248,63.4513,0.006587
70.279,63.4890,0.006116
70.310,63.5253,0.006116
70.341,63.5636,0.006116
70.374,63.6048,0.006116
70.403,63.6423,0.006116
70.435,63.6843,0.006116
70.466,63.7246,0.006116
70.497,63.7670,0.006116
70.528,63.8080,0.005476
70.558,63.8510,0.005476
70.589,63.8944,0.005476
70.621,63.9404,0.005476
70.652,63.9858,0.005476
70.683,64.0326,0.005476
70.715,64.0797,0.005476
70.746,64.1283,0.005476
70.777,64.1763,0.004837
70.808,64.2252,0.004837
70.838,64.2743,0.004837
70.869,64.3231,0.004837
70.900,64.3745,0.004837
70.931,64.4267,0.004837
70.962,64.4792,0.004837
70.993,64.5332,0.004837
71.024,64.5856,0.004837
71.056,64.6421,0.003914
71.086,64.6958,0.003914
71.117,64.7533,0.003914
71.148,64.8089,0.003914
71.179,64.8686,0.003914
71.210,64.9263,0.003914
71.243,64.9889,0.003914
71.273,65.0467,0.002352
71.305,65.1093,0.002352
71.336,65.1677,0.002352
71.366,65.2262,0.002352
71.397,65.2822,0.002352
71.428,65.3408,0.002352
71.458,65.3955,0.002352
71.489,65.4492,0.002352
71.522,65.5096,0.002352
71.551,65.5584,0.002352
71.582,65.6127,0.000104
71.613,65.6657,0.000104
71.644,65.7175,0.000104
71.676,65.7699,0.000104
71.707,65.8199,0.000104
71.739,65.8711,0.000104
71.769,65.9199,-0.003707
71.802,65.9701,-0.003707
71.832,66.0168,-0.003707
71.863,66.0641,-0.003707
71.894,66.1096,-0.003707
71.925,66.1548,-0.003707
71.956,66.1995,-0.003707
71.986,66.2439,-0.003707
72.022,66.2928,-0.003707
72.049,66.3292,-0.011847
72.080,66.3715,-0.011847
72.111,66.4121,-0.011847
72.147,66.4594,-0.011847
72.189,66.5120,-0.011847
72.219,66.5502,-0.011847
72.250,66.5874,-0.011847
72.281,66.6254,-0.011847
72.313,66.6623,-0.029753
72.344,66.6977,-0.029753
72.375,66.7322,-0.029753
72.405,66.7654,-0.029753
72.437,66.8000,-0.029753
72.467,66.8321,-0.029753
72.499,66.8644,-0.029753
72.529,66.8960,-0.029753
72.561,66.9265,-0.060843
72.592,66.9565,-0.060843
72.623,66.9851,-0.060843
72.654,67.0136,-0.060843
72.685,67.0421,-0.060843
72.717,67.0688,-0.060843
72.747,67.0952,-0.060843
72.779,67.1202,-0.060843
72.810,67.1457,-0.099216
72.841,67.1687,-0.099216
72.873,67.1930,-0.099216
72.903,67.2147,-0.099216
72.934,67.2368,-0.099216
72.965,67.2580,-0.099216
72.996,67.2776,-0.099216
73.027,67.2975,-0.139169
73.059,67.3171,-0.139169
73.088,67.3336,-0.139169
73.123,67.3538,-0.139169
73.151,67.3680,-0.139169
73.181,67.3835,-0.139169
73.211,67.3986,-0.139169
73.243,67.4129,-0.139169
73.274,67.4272,-0.196860
73.305,67.4401,-0.196860
73.337,67.4526,-0.196860
73.369,67.4650,-0.196860
73.399,67.4748,-0.196860
73.428,67.4847,-0.196860
73.460,67.4942,-0.196860
73.491,67.5029,-0.196860
73.521,67.5107,-0.196860
73.552,67.5181,-0.299962
73.583,67.5243,-0.299962
73.614,67.5303,-0.299962
73.645,67.5352,-0.299962
73.676,67.5396,-0.299962
73.707,67.5432,-0.299962
73.739,67.5461,-0.299962
73.770,67.5482,-0.401389
73.801,67.5496,-0.401389
73.832,67.5504,-0.401389
73.863,67.5504,-0.401389
73.894,67.5504,-0.401389
73.925,67.5504,-0.401389
73.955,67.5504,-0.401389
73.986,67.5504,-0.401389
74.017,67.5504,-0.401389
74.048,67.5504,-0.374449
74.078,67.5504,-0.374449
74.110,67.5504,-0.374449
74.142,67.5504,-0.374449
74.173,67.5504,-0.374449
74.203,67.5504,-0.374449
74.235,67.5504,-0.374449
74.266,67.5504,-0.374449
74.292,67.5504,-0.269362
74.328,67.5504,-0.269362
74.359,67.5504,-0.269362
74.390,67.5504,-0.269362
74.420,67.5504,-0.269362
74.450,67.5504,-0.269362
74.481,67.5504,-0.269362
74.512,67.5504,-0.212395
74.544,67.5504,-0.212395
74.575,67.5504,-0.212395
74.606,67.5504,-0.212395
74.637,67.5504,-0.212395
74.670,67.5504,-0.212395
74.699,67.5504,-0.212395
74.731,67.5504,-0.212395
74.762,67.5504,-0.212395
74.798,67.5504,-0.190320
74.824,67.5504,-0.190320
74.855,67.5504,-0.190320
74.887,67.5504,-0.190320
74.917,67.5504,-0.190320
74.947,67.5504,-0.190320
74.979,67.5504,-0.190320
75.010,67.5504,-0.190320
75.041,67.5504,-0.190320
75.072,67.5504,-0.177655
75.102,67.5504,-0.177655
75.134,67.5504,-0.177655
75.164,67.5504,-0.177655
75.195,67.5504,-0.177655
75.227,67.5504,-0.177655
75.258,67.5504,-0.177655
75.289,67.5504,-0.177655
75.320,67.5504,-0.168781
75.352,67.5504,-0.168781
75.383,67.5504,-0.168781
75.410,67.5504,-0.168781
75.444,67.5504,-0.168781
75.475,67.5504,-0.168781
75.505,67.5504,-0.168781
75.536,67.5504,-0.162054
75.568,67.5504,-0.162054
75.599,67.5504,-0.162054
75.630,67.5504,-0.162054
75.663,67.5504,-0.162054
75.691,67.5504,-0.162054
75.722,67.5504,-0.162054
75.753,67.5504,-0.162054
75.784,67.5504,-0.156718
75.815,67.5504,-0.156718
75.846,67.5504,-0.156718
75.878,67.5504,-0.156718
75.909,67.5504,-0.156718
75.940,67.5504,-0.156718
75.971,67.5504,-0.156718
76.002,67.5504,-0.156718
76.033,67.5504,-0.156718
76.065,67.5504,-0.152296
76.096,67.5504,-0.152296
76.126,67.5504,-0.152296
76.157,67.5504,-0.152296
76.189,67.5504,-0.152296
76.219,67.5504,-0.152296
76.251,67.5504,-0.152296
76.281,67.5504,-0.152296
76.312,67.5504,-0.148541
76.342,67.5504,-0.148541
76.373,67.5504,-0.148541
76.403,67.5504,-0.148541
76.434,67.5504,-0.148541
76.464,67.5504,-0.148541
76.496,67.5504,-0.148541
76.526,67.5504,-0.148541
76.558,67.5504,-0.145191
76.588,67.5504,-0.145191
76.619,67.5504,-0.145191
76.650,67.5504,-0.145191
76.681,67.5504,-0.145191
76.713,67.5504,-0.145191
76.743,67.5504,-0.145191
76.774,67.5504,-0.145191
76.805,67.5504,-0.142331
76.838,67.5504,-0.142331
76.869,67.5504,-0.142331
76.899,67.5504,-0.142331
76.931,67.5504,-0.142331
76.961,67.5504,-0.142331
76.992,67.5504,-0.142331
77.023,67.5504,-0.142331
77.054,67.5504,-0.139837
77.085,67.5504,-0.139837
77.116,67.5504,-0.139837
77.147,67.5504,-0.139837
77.179,67.5504,-0.139837
77.209,67.5504,-0.139837
77.240,67.5504,-0.139837
77.271,67.5504,-0.139837
77.303,67.5504,-0.137541
77.333,67.5504,-0.137541
77.363,67.5504,-0.137541
77.394,67.5504,-0.137541
77.426,67.5504,-0.137541
77.456,67.5504,-0.137541
77.487,67.5504,-0.137541
77.518,67.5504,-0.137541
77.549,67.5504,-0.137541
77.580,67.5504,-0.135434
77.611,67.5504,-0.135434
77.642,67.5504,-0.135434
77.674,67.5504,-0.135434
77.705,67.5504,-0.135434
77.735,67.5504,-0.135434
77.766,67.5504,-0.135434
77.798,67.5504,-0.133467
77.829,67.5504,-0.133467
77.860,67.5504,-0.133467
77.890,67.5504,-0.133467
77.920,67.5504,-0.133467
77.952,67.5504,-0.133467
77.984,67.5504,-0.133467
78.015,67.5504,-0.133467
78.046,67.5504,-0.131971
78.076,67.5504,-0.131971
78.107,67.5504,-0.131971
78.138,67.5504,-0.131971
78.169,67.5504,-0.131971
78.200,67.5502,-0.131971
78.231,67.5495,-0.131971
78.262,67.5480,-0.131971
78.292,67.5459,-0.130757
78.323,67.5428,-0.130757
78.354,67.5392,-0.130757
78.385,67.5349,-0.130757
78.416,67.5296,-0.130757
78.448,67.5238,-0.130757
78.479,67.5171,-0.130757
78.510,67.5098,-0.130757
78.544,67.5010,-0.130757
78.572,67.4931,-0.011517
78.603,67.4834,-0.011517
78.634,67.4732,-0.011517
78.665,67.4622,-0.011517
78.697,67.4501,-0.011517
78.728,67.4379,-0.011517
78.759,67.4245,-0.011517
78.790,67.4107,0.072370
78.821,67.3958,0.072370
78.853,67.3802,0.072370
78.884,67.3640,0.072370
78.914,67.3476,0.072370
78.946,67.3297,0.072370
78.977,67.3116,0.072370
79.008,67.2929,0.072370
79.039,67.2729,0.043953
79.070,67.2521,0.043953
79.101,67.2310,0.043953
79.132,67.2093,0.043953
79.164,67.1861,0.043953
79.198,67.1607,0.043953
79.225,67.1398,0.043953
79.256,67.1140,0.043953
79.287,67.0891,0.043953
79.317,67.0632,0.064852
79.348,67.0367,0.064852
79.380,67.0076,0.064852
79.411,66.9801,0.064852
79.441,66.9507,0.064852
79.472,66.9212,0.064852
79.503,66.8897,0.064852
79.535,66.8584,0.095019
79.567,66.8251,0.095019
79.598,66.7920,0.095019
79.630,66.7571,0.095019
79.661,66.7236,0.095019
79.692,66.6881,0.095019
79.724,66.6512,0.095019
79.753,66.6176,0.095019
79.786,66.5769,0.127981
79.818,66.5386,0.127981
79.848,66.5000,0.127981
79.879,66.4616,0.127981
79.910,66.4211,0.127981
79.942,66.3787,0.127981
79.973,66.3374,0.127981
80.003,66.2959,0.127981
80.034,66.2523,0.127981
80.065,66.2098,0.161894
80.096,66.1659,0.161894
80.127,66.1201,0.161894
80.158,66.0736,0.161894
80.189,66.0278,0.161894
80.220,65.9794,0.161894
80.251,65.9314,0.161894
80.282,65.8820,0.161894
80.314,65.8321,0.181108
80.345,65.7813,0.181108
80.376,65.7301,0.181108
80.406,65.6786,0.181108
80.438,65.6251,0.181108
80.468,65.5743,0.181108
80.501,65.5155,0.181108
80.529,65.4671,0.181108
80.562,65.4081,0.178793
80.592,65.3537,0.178793
80.623,65.2950,0.178793
80.654,65.2387,0.178793
80.688,65.1752,0.178793
80.716,65.1226,0.178793
80.747,65.0608,0.178793
80.778,65.0008,0.178793
80.809,64.9385,0.175970
80.840,64.8816,0.175970
80.871,64.8236,0.175970
80.902,64.7652,0.175970
80.934,64.7076,0.175970
80.965,64.6497,0.175970
80.996,64.5957,0.175970
81.027,64.5398,0.096534
81.058,64.4865,0.096534
81.089,64.4332,0.096534
81.120,64.3809,0.096534
81.151,64.3286,0.096534
81.182,64.2775,0.096534
81.213,64.2268,0.096534
81.245,64.1762,0.096534
81.274,64.1289,0.012835
81.305,64.0802,0.012835
81.337,64.0321,0.012835
81.366,63.9884,0.012835
81.399,63.9389,0.012835
81.431,63.8924,0.012835
81.463,63.8460,0.012835
81.494,63.8027,0.012835
81.524,63.7597,0.010210
81.556,63.7168,0.010210
81.587,63.6756,0.010210
81.618,63.6333,0.010210
81.649,63.5938,0.010210
81.680,63.5540,0.010210
81.712,63.5143,0.010210
81.743,63.4763,0.010210
81.774,63.4382,0.010210
81.805,63.4023,0.009391
81.838,63.3644,0.009391
81.866,63.3315,0.009391
81.898,63.2968,0.009391
81.931,63.2610,0.009391
81.960,63.2298,0.009391
81.991,63.1978,0.009391
82.022,63.1659,0.008996
82.053,63.1354,0.008996
82.085,63.1047,0.008996
82.116,63.0758,0.008996
82.147,63.0466,0.008996
82.179,63.0177,0.008996
82.209,62.9919,0.008996
82.240,62.9646,0.008996
82.271,62.9395,0.008996
82.302,62.9151,0.008751
82.333,62.8912,0.008751
82.364,62.8675,0.008751
82.394,62.8453,0.008751
82.425,62.8231,0.008751
82.456,62.8015,0.008751
82.487,62.7814,0.008751
82.517,62.7617,0.008582
82.549,62.7425,0.008582
82.581,62.7235,0.008582
82.612,62.7060,0.008582
82.643,62.6891,0.008582
82.674,62.6724,0.008582
82.705,62.6574,0.008582
82.736,62.6424,0.008582
82.767,62.6285,0.008582
82.798,62.6150,0.008582
82.829,62.6026,0.008403
82.861,62.5903,0.008403
82.892,62.5794,0.008403
82.923,62.5687,0.008403
82.954,62.5592,0.008403
82.985,62.5502,0.008403
83.016,62.5423,0.008403
83.047,62.5350,0.008196
83.078,62.5280,0.008196
83.108,62.5223,0.008196
83.139,62.5170,0.008196
83.170,62.5125,0.008196
83.201,62.5086,0.008196
83.231,62.5056,0.008196
83.262,62.5032,0.008196
83.293,62.5015,0.008064
83.325,62.5006,0.008064
83.356,62.5004,0.008064
83.387,62.5004,0.008064
83.418,62.5004,0.008064
83.451,62.5004,0.008064
83.480,62.5004,0.008064
83.511,62.5004,0.008064
83.543,62.5007,0.007923
83.573,62.5017,0.007923
83.604,62.5036,0.007923
83.635,62.5061,0.007923
83.665,62.5092,0.007923
83.698,62.5135,0.007923
83.728,62.5180,0.007923
83.759,62.5236,0.007923
83.790,62.5295,0.007923
83.820,62.5365,0.007754
83.851,62.5439,0.007754
83.882,62.5523,0.007754
83.913,62.5611,0.007754
83.943,62.5709,0.007754
83.975,62.5816,0.007754
84.007,62.5934,0.007754
84.038,62.6049,0.007584
84.070,62.6182,0.007584
84.100,62.6311,0.007584
84.131,62.6452,0.007584
84.162,62.6606,0.007584
84.194,62.6765,0.007584
84.224,62.6922,0.007584
84.255,62.7092,0.007584
84.285,62.7270,0.007584
84.316,62.7453,0.007283
84.347,62.7645,0.007283
84.378,62.7840,0.007283
84.409,62.8048,0.007283
84.446,62.8303,0.007283
84.471,62.8488,0.007283
84.503,62.8721,0.007283
84.534,62.8951,0.006991
84.565,62.9203,0.006991
84.596,62.9444,0.006991
84.627,62.9713,0.006991
84.658,62.9968,0.006991
84.688,63.0241,0.006991
84.719,63.0513,0.006991
84.750,63.0798,0.006991
84.780,63.1090,0.006671
84.816,63.1443,0.006671
84.842,63.1706,0.006671
84.873,63.2020,0.006671
84.904,63.2337,0.006671
84.935,63.2676,0.006671
84.966,63.3007,0.006671
84.996,63.3336,0.006671
85.026,63.3682,0.006239
85.062,63.4090,0.006239
85.089,63.4411,0.006239
85.120,63.4788,0.006239
85.151,63.5165,0.006239
85.182,63.5556,0.006239
85.212,63.5946,0.006239
85.245,63.6377,0.006239
85.274,63.6747,0.006239
85.305,63.7175,0.005674
85.337,63.7613,0.005674
85.367,63.8029,0.005674
85.398,63.8468,0.005674
85.433,63.8976,0.005674
85.461,63.9373,0.005674
85.491,63.9828,0.005674
85.525,64.0340,0.005674
85.553,64.0765,0.005674
85.583,64.1238,0.004959
85.615,64.1748,0.004959
85.646,64.2231,0.004959
85.677,64.2755,0.004959
85.708,64.3267,0.004959
85.740,64.3793,0.004959
85.772,64.4327,0.004959
85.803,64.4872,0.004074
85.835,64.5429,0.004074
85.866,64.5967,0.004074
85.896,64.6511,0.004074
85.928,64.7090,0.004074
85.959,64.7664,0.004074
85.990,64.8252,0.004074
86.021,64.8835,0.004074
86.052,64.9414,0.004074
86.083,65.0020,0.002776
86.114,65.0607,0.002776
86.145,65.1210,0.002776
86.175,65.1782,0.002776
86.207,65.2371,0.002776
86.237,65.2921,0.002776
86.269,65.3498,0.002776
86.300,65.4074,0.000790
86.331,65.4601,0.000790
86.362,65.5159,0.000790
86.394,65.5697,0.000790
86.424,65.6228,0.000790
86.456,65.6749,0.000790
86.487,65.7250,0.000790
86.518,65.7757,0.000790
86.549,65.8258,-0.002588
86.580,65.8764,-0.002588
86.611,65.9235,-0.002588
86.642,65.9709,-0.002588
86.673,66.0194,-0.002588
86.706,66.0665,-0.002588
86.735,66.1093,-0.002588
86.767,66.1556,-0.002588
86.798,66.1980,-0.002588
86.829,66.2425,-0.009372
86.859,66.2832,-0.009372
86.891,66.3265,-0.009372
86.921,66.3664,-0.009372
86.952,66.4052,-0.009372
86.983,66.4451,-0.009372
87.014,66.4845,-0.009372
87.045,66.5236,-0.009372
87.077,66.5615,-0.024531
87.108,66.5980,-0.024531
87.139,66.6343,-0.024531
87.170,66.6690,-0.024531
87.202,66.7049,-0.024531
87.233,66.7378,-0.024531
87.263,66.7707,-0.024531
87.294,66.8024,-0.052854
87.326,66.8349,-0.052854
87.357,66.8650,-0.052854
87.388,66.8953,-0.052854
87.418,66.9239,-0.052854
87.449,66.9526,-0.052854
87.481,66.9807,-0.052854
87.512,67.0083,-0.052854
87.544,67.0349,-0.090436
87.575,67.0615,-0.090436
87.606,67.0861,-0.090436
87.637,67.1100,-0.090436
87.669,67.1340,-0.090436
87.700,67.1571,-0.090436
87.730,67.1790,-0.090436
87.761,67.2004,-0.090436
87.792,67.2203,-0.129938
87.825,67.2410,-0.129938
87.855,67.2594,-0.129938
87.886,67.2782,-0.129938
87.917,67.2959,-0.129938
87.948,67.3124,-0.129938
87.978,67.3282,-0.129938
88.010,67.3441,-0.129938
88.041,67.3587,-0.179678
88.072,67.3728,-0.179678
88.102,67.3860,-0.179678
88.133,67.3986,-0.179678
88.166,67.4110,-0.179678
88.195,67.4211,-0.179678
88.225,67.4313,-0.179678
88.257,67.4411,-0.179678
88.288,67.4501,-0.273681
88.319,67.4585,-0.273681
88.351,67.4660,-0.273681
88.382,67.4726,-0.273681
88.417,67.4794,-0.273681
88.444,67.4841,-0.273681
88.476,67.4886,-0.273681
88.506,67.4923,-0.273681
88.538,67.4954,-0.273681
88.567,67.4976,-0.386286
88.598,67.4993,-0.386286
88.629,67.5001,-0.386286
88.660,67.5004,-0.386286
88.691,67.5004,-0.386286
88.722,67.5004,-0.386286
88.753,67.5004,-0.386286
88.784,67.5004,-0.386286
