Elapsed Time (s),Position (mm),Force (N)
-0.018,75.3003,-0.057973
0.013,75.3003,-0.057973
0.044,75.3003,-0.055903
0.075,75.3003,-0.055903
0.106,75.3003,-0.055903
0.136,75.3003,-0.055903
0.167,75.3003,-0.055903
0.198,75.3003,-0.055903
0.230,75.3003,-0.055903
0.261,75.3003,-0.055903
0.293,75.3003,-0.050982
0.323,75.3003,-0.050982
0.354,75.3003,-0.050982
0.385,75.3003,-0.050982
0.416,75.3003,-0.050982
0.448,75.3003,-0.050982
0.478,75.3003,-0.050982
0.509,75.3003,-0.050982
0.540,75.3003,-0.047114
0.570,75.3003,-0.047114
0.601,75.3003,-0.047114
0.633,75.3003,-0.047114
0.665,75.3003,-0.047114
0.696,75.3003,-0.047114
0.727,75.3003,-0.047114
0.758,75.3003,-0.047114
0.790,75.3003,-0.044348
0.821,75.3003,-0.044348
0.851,75.3003,-0.044348
0.881,75.3003,-0.044348
0.912,75.3003,-0.044348
0.943,75.3003,-0.044348
0.974,75.3003,-0.044348
1.004,75.3003,-0.044348
1.035,75.3003,-0.042212
1.066,75.3003,-0.042212
1.097,75.3003,-0.042212
1.128,75.3003,-0.042212
1.159,75.3003,-0.042212
1.190,75.3003,-0.042212
1.221,75.3003,-0.042212
1.255,75.3003,-0.042212
1.282,75.3003,-0.040480
1.315,75.3003,-0.040480
1.345,75.3003,-0.040480
1.375,75.3003,-0.040480
1.407,75.3003,-0.040480
1.438,75.3003,-0.040480
1.468,75.3003,-0.040480
1.499,75.3003,-0.040480
1.530,75.3003,-0.039069
1.561,75.3003,-0.039069
1.592,75.3003,-0.039069
1.624,75.3003,-0.039069
1.655,75.3003,-0.039069
1.685,75.3003,-0.039069
1.716,75.3003,-0.039069
1.747,75.3003,-0.039069
1.778,75.3003,-0.037836
1.813,75.3003,-0.037836
1.840,75.3003,-0.037836
1.871,75.3003,-0.037836
1.901,75.3003,-0.037836
1.933,75.3003,-0.037836
1.964,75.3003,-0.037836
1.994,75.3003,-0.037836
2.026,75.3003,-0.037836
2.056,75.3003,-0.036764
2.087,75.3003,-0.036764
2.119,75.3003,-0.036764
2.150,75.3003,-0.036764
2.187,75.3003,-0.036764
2.227,75.3003,-0.036764
2.262,75.3003,-0.036764
2.290,75.3003,-0.035851
2.321,75.3003,-0.035851
2.352,75.3003,-0.035851
2.383,75.3003,-0.035851
2.414,75.3003,-0.035851
2.444,75.3003,-0.035851
2.476,75.3003,-0.035851
2.511,75.3003,-0.035851
2.539,75.3003,-0.035851
2.570,75.3003,-0.035013
2.601,75.3003,-0.035013
2.634,75.3003,-0.035013
2.665,75.3003,-0.035013
2.694,75.3003,-0.035013
2.725,75.3003,-0.035013
2.756,75.3003,-0.035013
2.786,75.3003,-0.034289
2.820,75.3003,-0.034289
2.849,75.3003,-0.034289
2.879,75.3003,-0.034289
2.910,75.3003,-0.034289
2.941,75.3003,-0.034289
2.972,75.3003,-0.034289
3.003,75.3003,-0.034289
3.034,75.3003,-0.033611
3.066,75.3003,-0.033611
3.096,75.3003,-0.033611
3.127,75.3003,-0.033611
3.159,75.3003,-0.033611
3.190,75.3003,-0.033611
3.221,75.3003,-0.033611
3.252,75.3003,-0.033611
3.283,75.3003,-0.032962
3.315,75.3003,-0.032962
3.345,75.3003,-0.032962
3.376,75.3003,-0.032962
3.406,75.3003,-0.032962
3.437,75.3003,-0.032962
3.468,75.3003,-0.032962
3.500,75.3003,-0.032962
3.531,75.3003,-0.032962
3.562,75.3003,-0.032388
3.592,75.3003,-0.032388
3.624,75.3003,-0.032388
3.654,75.3003,-0.032388
3.686,75.3003,-0.032388
3.717,75.3003,-0.032388
3.747,75.3003,-0.032388
3.778,75.3003,-0.032388
3.808,75.3003,-0.031861
3.839,75.3003,-0.031861
3.870,75.3003,-0.031861
3.902,75.3003,-0.031861
3.931,75.3003,-0.031861
3.962,75.3003,-0.031861
3.993,75.3003,-0.031861
4.024,75.3003,-0.031861
4.054,75.3003,-0.031353
4.086,75.3003,-0.031353
4.116,75.3003,-0.031353
4.147,75.2998,-0.031353
4.178,75.2987,-0.031353
4.209,75.2967,-0.031353
4.240,75.2941,-0.031353
4.271,75.2908,-0.030873
4.305,75.2862,-0.030873
4.333,75.2819,-0.030873
4.364,75.2763,-0.030873
4.398,75.2696,-0.030873
4.425,75.2634,-0.030873
4.456,75.2557,-0.030873
4.487,75.2470,-0.030873
4.518,75.2380,-0.030873
4.548,75.2283,-0.030873
4.579,75.2176,-0.026074
4.610,75.2061,-0.026074
4.641,75.1944,-0.026074
4.673,75.1813,-0.026074
4.705,75.1676,-0.026074
4.735,75.1532,-0.026074
4.766,75.1385,-0.026074
4.797,75.1225,-0.010501
4.828,75.1065,-0.010501
4.859,75.0890,-0.010501
4.890,75.0713,-0.010501
4.922,75.0520,-0.010501
4.952,75.0326,-0.010501
4.983,75.0127,-0.010501
5.014,74.9924,-0.010501
5.045,74.9709,-0.010501
5.076,74.9490,0.012346
5.107,74.9262,0.012346
5.137,74.9028,0.012346
5.169,74.8775,0.012346
5.200,74.8522,0.012346
5.232,74.8252,0.012346
5.263,74.7990,0.012346
5.293,74.7720,0.012346
5.324,74.7441,0.035747
5.355,74.7152,0.035747
5.386,74.6867,0.035747
5.417,74.6557,0.035747
5.448,74.6243,0.035747
5.479,74.5932,0.035747
5.511,74.5597,0.035747
5.540,74.5283,0.035747
5.571,74.4943,0.059940
5.602,74.4596,0.059940
5.634,74.4242,0.059940
5.664,74.3885,0.059940
5.696,74.3508,0.059940
5.727,74.3131,0.059940
5.757,74.2764,0.059940
5.789,74.2357,0.089430
5.820,74.1959,0.089430
5.852,74.1542,0.089430
5.883,74.1142,0.089430
5.913,74.0719,0.089430
5.945,74.0282,0.089430
5.975,73.9868,0.089430
6.006,73.9431,0.089430
6.036,73.8994,0.089430
6.068,73.8530,0.122392
6.098,73.8072,0.122392
6.129,73.7606,0.122392
6.160,73.7133,0.122392
6.191,73.6640,0.122392
6.222,73.6147,0.122392
6.253,73.5662,0.122392
6.284,73.5151,0.122392
6.312,73.4690,0.123916
6.345,73.4129,0.123916
6.376,73.3602,0.123916
6.406,73.3073,0.123916
6.438,73.2531,0.123916
6.469,73.1966,0.123916
6.500,73.1421,0.123916
6.532,73.0834,0.059996
6.562,73.0280,0.059996
6.594,72.9682,0.059996
6.624,72.9115,0.059996
6.656,72.8503,0.059996
6.687,72.7908,0.059996
6.719,72.7281,0.059996
6.749,72.6709,0.059996
6.780,72.6110,0.009786
6.811,72.5526,0.009786
6.843,72.4946,0.009786
6.875,72.4368,0.009786
6.906,72.3785,0.009786
6.936,72.3259,0.009786
6.967,72.2706,0.009786
6.998,72.2172,0.009786
7.029,72.1649,0.008356
7.060,72.1116,0.008356
7.090,72.0618,0.008356
7.121,72.0105,0.008356
7.152,71.9604,0.008356
7.184,71.9106,0.008356
7.214,71.8615,0.008356
7.246,71.8130,0.008356
7.277,71.7654,0.008356
7.307,71.7199,0.007565
7.338,71.6743,0.007565
7.369,71.6292,0.007565
7.400,71.5840,0.007565
7.431,71.5416,0.007565
7.462,71.4981,0.007565
7.494,71.4554,0.007565
7.525,71.4129,0.007104
7.556,71.3715,0.007104
7.587,71.3317,0.007104
7.618,71.2935,0.007104
7.649,71.2538,0.007104
7.680,71.2164,0.007104
7.711,71.1802,0.007104
7.742,71.1439,0.007104
7.772,71.1081,0.006766
7.803,71.0735,0.006766
7.834,71.0389,0.006766
7.865,71.0063,0.006766
7.893,70.9758,0.006766
7.926,70.9423,0.006766
7.957,70.9111,0.006766
7.988,70.8806,0.006766
8.019,70.8502,0.006766
8.050,70.8205,0.006521
8.081,70.7927,0.006521
8.112,70.7653,0.006521
8.142,70.7391,0.006521
8.173,70.7121,0.006521
8.206,70.6858,0.006521
8.236,70.6615,0.006521
8.267,70.6369,0.006521
8.297,70.6146,0.006323
8.329,70.5912,0.006323
8.359,70.5700,0.006323
8.391,70.5483,0.006323
8.421,70.5282,0.006323
8.452,70.5082,0.006323
8.484,70.4892,0.006323
8.514,70.4709,0.006323
8.545,70.4539,0.006088
8.576,70.4370,0.006088
8.606,70.4206,0.006088
8.638,70.4051,0.006088
8.669,70.3906,0.006088
8.700,70.3770,0.006088
8.731,70.3635,0.006088
8.761,70.3516,0.006088
8.791,70.3396,0.005966
8.823,70.3287,0.005966
8.854,70.3184,0.005966
8.884,70.3091,0.005966
8.916,70.3001,0.005966
8.947,70.2918,0.005966
8.977,70.2846,0.005966
9.008,70.2779,0.005966
9.039,70.2721,0.005862
9.070,70.2666,0.005862
9.101,70.2623,0.005862
9.131,70.2584,0.005862
9.163,70.2554,0.005862
9.194,70.2530,0.005862
9.225,70.2515,0.005862
9.256,70.2505,0.005862
9.287,70.2503,0.005730
9.319,70.2503,0.005730
9.349,70.2503,0.005730
9.380,70.2503,0.005730
9.411,70.2503,0.005730
9.442,70.2507,0.005730
9.474,70.2517,0.005730
9.504,70.2534,0.005730
9.534,70.2558,0.005730
9.565,70.2590,0.005721
9.596,70.2629,0.005721
9.627,70.2676,0.005721
9.658,70.2729,0.005721
9.690,70.2791,0.005721
9.720,70.2857,0.005721
9.751,70.2935,0.005721
9.782,70.3017,0.005589
9.813,70.3105,0.005589
9.844,70.3205,0.005589
9.875,70.3306,0.005589
9.906,70.3419,0.005589
9.937,70.3539,0.005589
9.967,70.3662,0.005589
10.000,70.3801,0.005589
10.030,70.3940,0.005354
10.060,70.4085,0.005354
10.091,70.4237,0.005354
10.123,70.4405,0.005354
10.152,70.4567,0.005354
10.187,70.4764,0.005354
10.214,70.4929,0.005354
10.246,70.5128,0.005354
10.277,70.5324,0.005232
10.308,70.5527,0.005232
10.339,70.5738,0.005232
10.370,70.5959,0.005232
10.401,70.6193,0.005232
10.432,70.6428,0.005232
10.463,70.6663,0.005232
10.493,70.6905,0.005232
10.524,70.7164,0.005185
10.554,70.7428,0.005185
10.585,70.7694,0.005185
10.616,70.7974,0.005185
10.647,70.8257,0.005185
10.678,70.8550,0.005185
10.709,70.8849,0.005185
10.740,70.9161,0.005185
10.772,70.9477,0.005185
10.803,70.9811,0.005128
10.833,71.0132,0.005128
10.865,71.0476,0.005128
10.897,71.0833,0.005128
10.928,71.1175,0.005128
10.959,71.1546,0.005128
10.990,71.1911,0.005128
11.021,71.2273,0.005128
11.051,71.2650,0.005128
11.083,71.3045,0.004912
11.113,71.3432,0.004912
11.144,71.3832,0.004912
11.174,71.4230,0.004912
11.206,71.4657,0.004912
11.236,71.5071,0.004912
11.266,71.5489,0.004912
11.298,71.5930,0.004639
11.334,71.6459,0.004639
11.360,71.6832,0.004639
11.390,71.7285,0.004639
11.421,71.7747,0.004639
11.454,71.8273,0.004639
11.482,71.8690,0.004639
11.514,71.9197,0.004639
11.544,71.9681,0.004423
11.575,72.0193,0.004423
11.607,72.0701,0.004423
11.637,72.1220,0.004423
11.668,72.1736,0.004423
11.699,72.2264,0.004423
11.729,72.2790,0.004423
11.760,72.3342,0.004121
11.791,72.3900,0.004121
11.822,72.4457,0.004121
11.853,72.5021,0.004121
11.884,72.5598,0.004121
11.916,72.6206,0.004121
11.946,72.6771,0.004121
11.977,72.7361,0.004121
12.008,72.7974,0.004121
12.039,72.8569,0.003698
12.070,72.9150,0.003698
12.102,72.9751,0.003698
12.132,73.0295,0.003698
12.162,73.0848,0.003698
12.193,73.1410,0.003698
12.224,73.1957,0.003698
12.255,73.2501,0.003698
12.285,73.3031,0.003378
12.316,73.3542,0.003378
12.351,73.4127,0.003378
12.379,73.4597,0.003378
12.410,73.5108,0.003378
12.440,73.5590,0.003378
12.472,73.6098,0.003378
12.503,73.6569,0.003378
12.534,73.7061,0.003378
12.565,73.7530,0.002964
12.598,73.8014,0.002964
12.628,73.8458,0.002964
12.660,73.8928,0.002964
12.689,73.9340,0.002964
12.721,73.9779,0.002964
12.753,74.0214,0.002964
12.784,74.0642,0.002964
12.815,74.1060,0.002051
12.846,74.1458,0.002051
12.878,74.1865,0.002051
12.910,74.2272,0.002051
12.940,74.2647,0.002051
12.971,74.3019,0.002051
13.002,74.3387,0.002051
13.033,74.3747,0.002051
13.065,74.4102,-0.000056
13.095,74.4447,-0.000056
13.126,74.4782,-0.000056
13.157,74.5120,-0.000056
13.189,74.5447,-0.000056
13.223,74.5794,-0.000056
13.251,74.6069,-0.000056
13.282,74.6382,-0.000056
13.313,74.6669,-0.004921
13.343,74.6957,-0.004921
13.374,74.7237,-0.004921
13.406,74.7518,-0.004921
13.437,74.7786,-0.004921
13.468,74.8041,-0.004921
13.499,74.8292,-0.004921
13.530,74.8534,-0.004921
13.561,74.8770,-0.004921
13.592,74.9001,-0.014359
13.624,74.9229,-0.014359
13.658,74.9466,-0.014359
13.685,74.9647,-0.014359
13.716,74.9844,-0.014359
13.747,75.0038,-0.014359
13.779,75.0231,-0.014359
13.810,75.0408,-0.028502
13.841,75.0580,-0.028502
13.873,75.0745,-0.028502
13.904,75.0901,-0.028502
13.936,75.1055,-0.028502
13.967,75.1198,-0.028502
13.997,75.1332,-0.028502
14.028,75.1453,-0.028502
14.058,75.1575,-0.043661
14.090,75.1686,-0.043661
14.121,75.1794,-0.043661
14.153,75.1892,-0.043661
14.183,75.1984,-0.043661
14.216,75.2069,-0.043661
14.246,75.2146,-0.043661
14.277,75.2213,-0.043661
14.308,75.2275,-0.055037
14.340,75.2330,-0.055037
14.370,75.2375,-0.055037
14.405,75.2419,-0.055037
14.433,75.2449,-0.055037
14.465,75.2473,-0.055037
14.495,75.2490,-0.055037
14.526,75.2501,-0.059780
14.557,75.2504,-0.059780
14.588,75.2504,-0.059780
14.619,75.2504,-0.059780
14.650,75.2504,-0.059780
14.681,75.2504,-0.059780
14.712,75.2504,-0.059780
14.744,75.2504,-0.059780
14.775,75.2504,-0.059780
14.806,75.2504,-0.059780
14.837,75.2504,-0.057380
14.868,75.2504,-0.057380
14.898,75.2504,-0.057380
14.930,75.2504,-0.057380
14.962,75.2504,-0.057380
14.991,75.2504,-0.057380
15.022,75.2504,-0.057380
15.054,75.2504,-0.052205
15.085,75.2504,-0.052205
15.116,75.2504,-0.052205
15.148,75.2504,-0.052205
15.178,75.2504,-0.052205
15.209,75.2504,-0.052205
15.240,75.2504,-0.052205
15.271,75.2504,-0.052205
15.301,75.2504,-0.048272
15.332,75.2504,-0.048272
15.363,75.2504,-0.048272
15.394,75.2504,-0.048272
15.425,75.2504,-0.048272
15.457,75.2504,-0.048272
15.487,75.2504,-0.048272
15.519,75.2504,-0.048272
15.550,75.2504,-0.045505
15.581,75.2504,-0.045505
15.611,75.2504,-0.045505
15.642,75.2504,-0.045505
15.672,75.2504,-0.045505
15.703,75.2504,-0.045505
15.734,75.2504,-0.045505
15.765,75.2504,-0.045505
15.796,75.2504,-0.043369
15.829,75.2504,-0.043369
15.858,75.2504,-0.043369
15.888,75.2504,-0.043369
15.919,75.2504,-0.043369
15.950,75.2504,-0.043369
15.981,75.2504,-0.043369
16.012,75.2504,-0.043369
16.043,75.2504,-0.041600
16.074,75.2504,-0.041600
16.105,75.2504,-0.041600
16.136,75.2504,-0.041600
16.167,75.2504,-0.041600
16.199,75.2504,-0.041600
16.230,75.2504,-0.041600
16.261,75.2504,-0.041600
16.293,75.2504,-0.040161
16.325,75.2504,-0.040161
16.356,75.2504,-0.040161
16.388,75.2504,-0.040161
16.419,75.2504,-0.040161
16.450,75.2504,-0.040161
16.481,75.2504,-0.040161
16.512,75.2504,-0.040161
16.543,75.2504,-0.038900
16.574,75.2504,-0.038900
16.605,75.2504,-0.038900
16.636,75.2504,-0.038900
16.668,75.2504,-0.038900
16.698,75.2504,-0.038900
16.729,75.2504,-0.038900
16.761,75.2504,-0.038900
16.792,75.2504,-0.037846
16.827,75.2504,-0.037846
16.854,75.2504,-0.037846
16.885,75.2504,-0.037846
16.916,75.2504,-0.037846
16.948,75.2504,-0.037846
16.979,75.2504,-0.037846
17.010,75.2504,-0.037846
17.041,75.2504,-0.036886
17.072,75.2504,-0.036886
17.102,75.2504,-0.036886
17.140,75.2504,-0.036886
17.180,75.2504,-0.036886
17.211,75.2504,-0.036886
17.242,75.2504,-0.036886
17.274,75.2504,-0.036886
17.305,75.2504,-0.035983
17.336,75.2504,-0.035983
17.369,75.2504,-0.035983
17.397,75.2504,-0.035983
17.427,75.2504,-0.035983
17.458,75.2504,-0.035983
17.490,75.2504,-0.035983
17.520,75.2504,-0.035983
17.551,75.2504,-0.035239
17.582,75.2504,-0.035239
17.613,75.2504,-0.035239
17.645,75.2504,-0.035239
17.676,75.2504,-0.035239
17.708,75.2504,-0.035239
17.740,75.2504,-0.035239
17.771,75.2504,-0.034505
17.803,75.2504,-0.034505
17.833,75.2504,-0.034505
17.864,75.2504,-0.034505
17.896,75.2504,-0.034505
17.927,75.2504,-0.034505
17.959,75.2504,-0.034505
17.990,75.2504,-0.034505
18.020,75.2504,-0.034505
18.052,75.2504,-0.034505
18.083,75.2504,-0.033884
18.114,75.2504,-0.033884
18.146,75.2504,-0.033884
18.177,75.2504,-0.033884
18.208,75.2504,-0.033884
18.239,75.2504,-0.033884
18.270,75.2504,-0.033884
18.301,75.2504,-0.033339
18.333,75.2504,-0.033339
18.363,75.2504,-0.033339
18.395,75.2504,-0.033339
18.425,75.2504,-0.033339
18.457,75.2504,-0.033339
18.487,75.2504,-0.033339
18.518,75.2504,-0.033339
18.549,75.2504,-0.032717
18.580,75.2504,-0.032717
18.611,75.2504,-0.032717
18.642,75.2504,-0.032717
18.673,75.2504,-0.032717
18.703,75.2504,-0.032717
18.734,75.2504,-0.032717
18.765,75.2504,-0.032717
18.795,75.2504,-0.032717
18.827,75.2504,-0.032209
18.857,75.2497,-0.032209
18.889,75.2484,-0.032209
18.920,75.2463,-0.032209
18.950,75.2435,-0.032209
18.982,75.2399,-0.032209
19.012,75.2360,-0.032209
19.042,75.2310,-0.031692
19.073,75.2254,-0.031692
19.104,75.2190,-0.031692
19.136,75.2117,-0.031692
19.165,75.2042,-0.031692
19.197,75.1953,-0.031692
19.228,75.1862,-0.031692
19.258,75.1764,-0.024954
19.289,75.1656,-0.024954
19.320,75.1544,-0.024954
19.351,75.1417,-0.024954
19.382,75.1294,-0.024954
19.413,75.1153,-0.024954
19.444,75.1015,-0.024954
19.475,75.0856,-0.024954
19.505,75.0706,-0.024954
19.537,75.0534,-0.024954
19.568,75.0363,-0.007377
19.599,75.0186,-0.007377
19.629,75.0003,-0.007377
19.662,74.9794,-0.007377
19.691,74.9606,-0.007377
19.720,74.9413,-0.007377
19.752,74.9188,-0.007377
19.782,74.8965,0.015517
19.815,74.8727,0.015517
19.846,74.8494,0.015517
19.876,74.8248,0.015517
19.909,74.7984,0.015517
19.939,74.7736,0.015517
19.970,74.7463,0.015517
20.001,74.7193,0.015517
20.033,74.6901,0.015517
20.063,74.6624,0.015517
20.095,74.6309,0.038702
20.125,74.6023,0.038702
20.156,74.5708,0.038702
20.187,74.5388,0.038702
20.220,74.5045,0.038702
20.250,74.4722,0.038702
20.281,74.4374,0.062951
20.313,74.4020,0.062951
20.344,74.3657,0.062951
20.376,74.3295,0.062951
20.408,74.2919,0.062951
20.437,74.2557,0.062951
20.469,74.2170,0.062951
20.500,74.1771,0.062951
20.533,74.1338,0.091509
20.561,74.0973,0.091509
20.593,74.0560,0.091509
20.623,74.0143,0.091509
20.654,73.9719,0.091509
20.687,73.9258,0.091509
20.716,73.8846,0.091509
20.747,73.8388,0.091509
20.780,73.7897,0.112672
20.807,73.7500,0.112672
20.839,73.7004,0.112672
20.871,73.6516,0.112672
20.902,73.6018,0.112672
20.934,73.5523,0.112672
20.966,73.5015,0.112672
20.996,73.4516,0.112672
21.028,73.3987,0.097061
21.059,73.3470,0.097061
21.090,73.2946,0.097061
21.122,73.2388,0.097061
21.152,73.1864,0.097061
21.183,73.1305,0.097061
21.214,73.0749,0.097061
21.245,73.0184,0.097061
21.276,72.9613,0.042918
21.307,72.9021,0.042918
21.339,72.8427,0.042918
21.369,72.7833,0.042918
21.400,72.7229,0.042918
21.431,72.6632,0.042918
21.462,72.6028,0.042918
21.493,72.5449,0.042918
21.524,72.4862,0.042918
21.555,72.4292,0.009165
21.586,72.3736,0.009165
21.618,72.3165,0.009165
21.649,72.2606,0.009165
21.679,72.2062,0.009165
21.710,72.1544,0.009165
21.741,72.1000,0.009165
21.773,72.0458,0.009165
21.803,71.9970,0.008083
21.834,71.9464,0.008083
21.865,71.8959,0.008083
21.897,71.8460,0.008083
21.928,71.7964,0.008083
21.959,71.7488,0.008083
21.990,71.7015,0.008083
22.021,71.6550,0.008083
22.055,71.6049,0.007387
22.083,71.5643,0.007387
22.114,71.5217,0.007387
22.146,71.4763,0.007387
22.177,71.4337,0.007387
22.207,71.3916,0.007387
22.238,71.3513,0.007387
22.270,71.3091,0.006963
22.300,71.2711,0.006963
22.332,71.2314,0.006963
22.363,71.1930,0.006963
22.394,71.1541,0.006963
22.425,71.1180,0.006963
22.456,71.0811,0.006963
22.487,71.0460,0.006963
22.519,71.0100,0.006624
22.550,70.9764,0.006624
22.582,70.9417,0.006624
22.613,70.9103,0.006624
22.644,70.8777,0.006624
22.674,70.8476,0.006624
22.705,70.8174,0.006624
22.737,70.7871,0.006624
22.768,70.7577,0.006399
22.799,70.7295,0.006399
22.830,70.7028,0.006399
22.861,70.6762,0.006399
22.892,70.6502,0.006399
22.923,70.6248,0.006399
22.955,70.5997,0.006399
22.987,70.5755,0.006399
23.016,70.5536,0.006399
23.049,70.5301,0.006220
23.079,70.5093,0.006220
23.111,70.4872,0.006220
23.141,70.4679,0.006220
23.172,70.4487,0.006220
23.204,70.4296,0.006220
23.234,70.4120,0.006220
23.265,70.3948,0.006220
23.297,70.3781,0.006220
23.331,70.3610,0.006032
23.357,70.3478,0.006032
23.390,70.3329,0.006032
23.421,70.3194,0.006032
23.451,70.3072,0.006032
23.482,70.2946,0.006032
23.513,70.2835,0.006032
23.544,70.2728,0.005862
23.577,70.2623,0.005862
23.606,70.2536,0.005862
23.638,70.2453,0.005862
23.669,70.2373,0.005862
23.699,70.2309,0.005862
23.731,70.2243,0.005862
23.761,70.2188,0.005759
23.792,70.2140,0.005759
23.823,70.2098,0.005759
23.854,70.2066,0.005759
23.885,70.2040,0.005759
23.916,70.2020,0.005759
23.947,70.2009,0.005759
23.978,70.2004,0.005759
24.008,70.2004,0.005759
24.039,70.2004,0.005759
24.071,70.2004,0.005646
24.101,70.2004,0.005646
24.132,70.2004,0.005646
24.162,70.2007,0.005646
24.194,70.2020,0.005646
24.226,70.2040,0.005646
24.257,70.2066,0.005646
24.287,70.2099,0.005646
24.319,70.2140,0.005599
24.350,70.2190,0.005599
24.381,70.2243,0.005599
24.412,70.2306,0.005599
24.443,70.2377,0.005599
24.475,70.2455,0.005599
24.506,70.2539,0.005599
24.536,70.2630,0.005533
24.567,70.2729,0.005533
24.599,70.2838,0.005533
24.629,70.2947,0.005533
24.660,70.3072,0.005533
24.692,70.3198,0.005533
24.723,70.3338,0.005533
24.754,70.3477,0.005533
24.784,70.3627,0.005533
24.815,70.3783,0.005364
24.848,70.3956,0.005364
24.878,70.4126,0.005364
24.909,70.4304,0.005364
24.939,70.4485,0.005364
24.971,70.4680,0.005364
25.001,70.4879,0.005364
25.032,70.5088,0.005364
25.062,70.5301,0.005364
25.093,70.5521,0.005222
25.125,70.5758,0.005222
25.156,70.5993,0.005222
25.186,70.6238,0.005222
25.218,70.6485,0.005222
25.249,70.6754,0.005222
25.281,70.7018,0.005222
25.311,70.7293,0.005081
25.342,70.7565,0.005081
25.373,70.7850,0.005081
25.404,70.8148,0.005081
25.435,70.8450,0.005081
25.465,70.8763,0.005081
25.496,70.9071,0.005081
25.527,70.9399,0.005081
25.558,70.9729,0.004884
25.590,71.0071,0.004884
25.620,71.0409,0.004884
25.651,71.0765,0.004884
25.681,71.1116,0.004884
25.713,71.1494,0.004884
25.743,71.1861,0.004884
25.775,71.2250,0.004884
25.806,71.2639,0.004695
25.838,71.3043,0.004695
25.868,71.3445,0.004695
25.899,71.3855,0.004695
25.930,71.4267,0.004695
25.961,71.4706,0.004695
25.992,71.5143,0.004695
26.023,71.5567,0.004695
26.054,71.6016,0.004554
26.084,71.6477,0.004554
26.115,71.6929,0.004554
26.146,71.7397,0.004554
26.178,71.7886,0.004554
26.209,71.8380,0.004554
26.240,71.8860,0.004554
26.274,71.9418,0.004554
26.301,71.9853,0.004554
26.333,72.0394,0.004328
26.363,72.0897,0.004328
26.394,72.1401,0.004328
26.426,72.1954,0.004328
26.457,72.2505,0.004328
26.487,72.3045,0.004328
26.519,72.3614,0.004328
26.549,72.4178,0.004328
26.580,72.4728,0.004018
26.611,72.5314,0.004018
26.641,72.5882,0.004018
26.673,72.6481,0.004018
26.704,72.7095,0.004018
26.734,72.7672,0.004018
26.767,72.8309,0.004018
26.796,72.8850,0.004018
26.828,72.9453,0.003660
26.859,73.0012,0.003660
26.890,73.0581,0.003660
26.921,73.1131,0.003660
26.955,73.1718,0.003660
26.984,73.2222,0.003660
27.015,73.2771,0.003660
27.046,73.3292,0.003303
27.077,73.3812,0.003303
27.107,73.4308,0.003303
27.138,73.4808,0.003303
27.168,73.5303,0.003303
27.200,73.5794,0.003303
27.231,73.6285,0.003303
27.262,73.6751,0.003303
27.294,73.7223,0.002804
27.325,73.7696,0.002804
27.357,73.8149,0.002804
27.388,73.8597,0.002804
27.418,73.9028,0.002804
27.449,73.9464,0.002804
27.480,73.9882,0.002804
27.512,74.0305,0.002804
27.543,74.0720,0.001807
27.575,74.1134,0.001807
27.606,74.1531,0.001807
27.638,74.1922,0.001807
27.669,74.2303,0.001807
27.699,74.2660,0.001807
27.730,74.3033,0.001807
27.761,74.3385,0.001807
27.792,74.3745,-0.000480
27.823,74.4081,-0.000480
27.853,74.4420,-0.000480
27.884,74.4738,-0.000480
27.915,74.5063,-0.000480
27.946,74.5380,-0.000480
27.977,74.5683,-0.000480
28.009,74.5990,-0.000480
28.040,74.6284,-0.005796
28.071,74.6568,-0.005796
28.103,74.6857,-0.005796
28.134,74.7123,-0.005796
28.166,74.7393,-0.005796
28.197,74.7644,-0.005796
28.228,74.7892,-0.005796
28.259,74.8139,-0.005796
28.290,74.8366,-0.016015
28.321,74.8597,-0.016015
28.351,74.8810,-0.016015
28.382,74.9021,-0.016015
28.413,74.9224,-0.016015
28.446,74.9434,-0.016015
28.476,74.9621,-0.016015
28.510,74.9818,-0.016015
28.539,74.9982,-0.030629
28.570,75.0153,-0.030629
28.601,75.0310,-0.030629
28.632,75.0465,-0.030629
28.663,75.0611,-0.030629
28.693,75.0749,-0.030629
28.725,75.0884,-0.030629
28.755,75.1004,-0.030629
28.786,75.1117,-0.045618
28.817,75.1229,-0.045618
28.843,75.1313,-0.045618
28.879,75.1428,-0.045618
28.909,75.1513,-0.045618
28.940,75.1593,-0.045618
28.971,75.1665,-0.045618
29.001,75.1731,-0.045618
29.032,75.1792,-0.056364
29.063,75.1842,-0.056364
29.094,75.1888,-0.056364
29.125,75.1924,-0.056364
29.156,75.1955,-0.056364
29.186,75.1978,-0.056364
29.217,75.1994,-0.056364
29.248,75.2002,-0.056364
29.279,75.2004,-0.056364
29.309,75.2004,-0.060081
29.344,75.2004,-0.060081
29.373,75.2004,-0.060081
29.403,75.2004,-0.060081
29.433,75.2004,-0.060081
29.465,75.2004,-0.060081
29.496,75.2004,-0.060081
29.528,75.2004,-0.056947
29.560,75.2004,-0.056947
29.591,75.2004,-0.056947
29.623,75.2004,-0.056947
29.654,75.2004,-0.056947
29.685,75.2004,-0.056947
29.717,75.2004,-0.056947
29.747,75.2004,-0.056947
29.779,75.2004,-0.051763
29.809,75.2004,-0.051763
29.840,75.2004,-0.051763
29.871,75.2004,-0.051763
29.901,75.2004,-0.051763
29.932,75.2004,-0.051763
29.964,75.2004,-0.051763
29.995,75.2004,-0.051763
30.026,75.2004,-0.048121
30.057,75.2004,-0.048121
30.088,75.2004,-0.048121
30.118,75.2004,-0.048121
30.149,75.2004,-0.048121
30.181,75.2004,-0.048121
30.212,75.2004,-0.048121
30.243,75.2004,-0.048121
30.275,75.2004,-0.048121
30.306,75.2004,-0.045449
30.338,75.2004,-0.045449
30.368,75.2004,-0.045449
30.399,75.2004,-0.045449
30.430,75.2004,-0.045449
30.461,75.2004,-0.045449
30.493,75.2004,-0.045449
30.525,75.2004,-0.045449
30.555,75.2004,-0.043322
30.586,75.2004,-0.043322
30.617,75.2004,-0.043322
30.648,75.2004,-0.043322
30.680,75.2004,-0.043322
30.711,75.2004,-0.043322
30.742,75.2004,-0.043322
30.773,75.2004,-0.043322
30.807,75.2004,-0.041581
30.836,75.2004,-0.041581
30.866,75.2004,-0.041581
30.898,75.2004,-0.041581
30.929,75.2004,-0.041581
30.960,75.2004,-0.041581
30.991,75.2004,-0.041581
31.022,75.2004,-0.040123
31.053,75.2004,-0.040123
31.084,75.2004,-0.040123
31.115,75.2004,-0.040123
31.146,75.2004,-0.040123
31.178,75.2004,-0.040123
31.210,75.2004,-0.040123
31.241,75.2004,-0.040123
31.272,75.2004,-0.038918
31.303,75.2004,-0.038918
31.336,75.2004,-0.038918
31.366,75.2004,-0.038918
31.399,75.2004,-0.038918
31.428,75.2004,-0.038918
31.459,75.2004,-0.038918
31.491,75.2004,-0.038918
31.522,75.2004,-0.038918
31.549,75.2004,-0.038918
31.584,75.2004,-0.037818
31.613,75.2004,-0.037818
31.647,75.2004,-0.037818
31.675,75.2004,-0.037818
31.707,75.2004,-0.037818
31.738,75.2004,-0.037818
31.769,75.2004,-0.037818
31.800,75.2004,-0.036867
31.831,75.2004,-0.036867
31.863,75.2004,-0.036867
31.893,75.2004,-0.036867
31.926,75.2004,-0.036867
31.956,75.2004,-0.036867
31.987,75.2004,-0.036867
32.019,75.2004,-0.036867
32.050,75.2004,-0.036867
32.082,75.2004,-0.036011
32.113,75.2004,-0.036011
32.144,75.2004,-0.036011
32.175,75.2004,-0.036011
32.206,75.2004,-0.036011
32.236,75.2004,-0.036011
32.268,75.2004,-0.036011
32.298,75.2004,-0.036011
32.329,75.2004,-0.035296
32.360,75.2004,-0.035296
32.391,75.2004,-0.035296
32.422,75.2004,-0.035296
32.454,75.2004,-0.035296
32.485,75.2004,-0.035296
32.516,75.2004,-0.035296
32.548,75.2004,-0.034618
32.578,75.2004,-0.034618
32.610,75.2004,-0.034618
32.641,75.2004,-0.034618
32.673,75.2004,-0.034618
32.704,75.2004,-0.034618
32.735,75.2004,-0.034618
32.767,75.2004,-0.034618
32.797,75.2004,-0.034025
32.828,75.2004,-0.034025
32.860,75.2004,-0.034025
32.890,75.2004,-0.034025
32.920,75.2004,-0.034025
32.951,75.2004,-0.034025
32.981,75.2004,-0.034025
33.013,75.2004,-0.034025
33.044,75.2004,-0.033498
33.075,75.2004,-0.033498
33.107,75.2004,-0.033498
33.138,75.2004,-0.033498
33.168,75.2004,-0.033498
33.200,75.2004,-0.033498
33.230,75.2004,-0.033498
33.261,75.2004,-0.033498
33.291,75.2004,-0.033498
33.323,75.2004,-0.032906
33.354,75.2004,-0.032906
33.385,75.2004,-0.032906
33.419,75.2004,-0.032906
33.447,75.2004,-0.032906
33.478,75.2004,-0.032906
33.509,75.2004,-0.032906
33.540,75.1999,-0.032906
33.571,75.1988,-0.032398
33.603,75.1967,-0.032398
33.634,75.1940,-0.032398
33.666,75.1904,-0.032398
33.695,75.1866,-0.032398
33.727,75.1816,-0.032398
33.757,75.1763,-0.032398
33.789,75.1699,-0.031428
33.820,75.1627,-0.031428
33.851,75.1549,-0.031428
33.881,75.1465,-0.031428
33.912,75.1374,-0.031428
33.944,75.1272,-0.031428
33.974,75.1167,-0.031428
34.005,75.1054,-0.031428
34.036,75.0932,-0.031428
34.067,75.0806,-0.022047
34.099,75.0665,-0.022047
34.130,75.0522,-0.022047
34.161,75.0370,-0.022047
34.192,75.0217,-0.022047
34.223,75.0047,-0.022047
34.254,74.9877,-0.022047
34.285,74.9698,-0.022047
34.315,74.9520,-0.001901
34.346,74.9325,-0.001901
34.377,74.9120,-0.001901
34.407,74.8918,-0.001901
34.439,74.8701,-0.001901
34.469,74.8481,-0.001901
34.500,74.8252,-0.001901
34.531,74.8008,-0.001901
34.563,74.7762,0.021275
34.593,74.7514,0.021275
34.624,74.7257,0.021275
34.656,74.6983,0.021275
34.687,74.6709,0.021275
34.718,74.6426,0.021275
34.749,74.6140,0.021275
34.780,74.5839,0.044536
34.811,74.5537,0.044536
34.840,74.5248,0.044536
34.873,74.4912,0.044536
34.905,74.4573,0.044536
34.936,74.4251,0.044536
34.966,74.3912,0.044536
34.997,74.3573,0.044536
35.028,74.3213,0.069660
35.060,74.2838,0.069660
35.091,74.2482,0.069660
35.121,74.2103,0.069660
35.152,74.1730,0.069660
35.184,74.1323,0.069660
35.214,74.0933,0.069660
35.245,74.0520,0.069660
35.276,74.0119,0.069660
35.307,73.9703,0.099122
35.339,73.9273,0.099122
35.369,73.8844,0.099122
35.400,73.8397,0.099122
35.431,73.7948,0.099122
35.463,73.7484,0.099122
35.495,73.6994,0.099122
35.526,73.6538,0.099122
35.556,73.6072,0.114328
35.588,73.5582,0.114328
35.621,73.5040,0.114328
35.649,73.4602,0.114328
35.679,73.4090,0.114328
35.711,73.3584,0.114328
35.741,73.3053,0.114328
35.773,73.2532,0.073527
35.804,73.1983,0.073527
35.835,73.1448,0.073527
35.865,73.0899,0.073527
35.896,73.0338,0.073527
35.926,72.9802,0.073527
35.958,72.9223,0.073527
35.988,72.8651,0.073527
36.022,72.8016,0.073527
36.050,72.7484,0.073527
36.081,72.6869,0.021398
36.111,72.6292,0.021398
36.145,72.5625,0.021398
36.173,72.5112,0.021398
36.203,72.4519,0.021398
36.235,72.3960,0.021398
36.265,72.3382,0.021398
36.297,72.2819,0.008723
36.328,72.2264,0.008723
36.362,72.1677,0.008723
36.390,72.1189,0.008723
36.419,72.0682,0.008723
36.452,72.0132,0.008723
36.484,71.9586,0.008723
36.516,71.9074,0.008723
36.547,71.8566,0.007772
36.580,71.8027,0.007772
36.608,71.7596,0.007772
36.639,71.7107,0.007772
36.670,71.6645,0.007772
36.704,71.6134,0.007772
36.732,71.5722,0.007772
36.763,71.5274,0.007772
36.794,71.4826,0.007772
36.825,71.4391,0.007170
36.856,71.3963,0.007170
36.886,71.3540,0.007170
36.918,71.3127,0.007170
36.946,71.2755,0.007170
36.979,71.2329,0.007170
37.010,71.1933,0.007170
37.041,71.1549,0.007170
37.072,71.1164,0.006775
37.103,71.0798,0.006775
37.134,71.0432,0.006775
37.166,71.0061,0.006775
37.197,70.9715,0.006775
37.227,70.9384,0.006775
37.259,70.9043,0.006775
37.290,70.8717,0.006775
37.320,70.8400,0.006474
37.351,70.8089,0.006474
37.383,70.7778,0.006474
37.414,70.7474,0.006474
37.445,70.7192,0.006474
37.477,70.6896,0.006474
37.507,70.6625,0.006474
37.538,70.6358,0.006220
37.569,70.6089,0.006220
37.600,70.5837,0.006220
37.631,70.5592,0.006220
37.662,70.5349,0.006220
37.693,70.5119,0.006220
37.724,70.4891,0.006220
37.755,70.4671,0.006220
37.786,70.4459,0.006220
37.817,70.4261,0.006097
37.849,70.4053,0.006097
37.880,70.3868,0.006097
37.911,70.3683,0.006097
37.941,70.3512,0.006097
37.973,70.3342,0.006097
38.004,70.3184,0.006097
38.036,70.3024,0.006097
38.064,70.2895,0.005985
38.098,70.2740,0.005985
38.129,70.2609,0.005985
38.161,70.2482,0.005985
38.191,70.2372,0.005985
38.223,70.2259,0.005985
38.254,70.2159,0.005985
38.285,70.2064,0.005881
38.316,70.1978,0.005881
38.346,70.1899,0.005881
38.377,70.1826,0.005881
38.409,70.1762,0.005881
38.439,70.1705,0.005881
38.471,70.1654,0.005881
38.501,70.1611,0.005881
38.533,70.1573,0.005881
38.564,70.1546,0.005759
38.594,70.1525,0.005759
38.625,70.1510,0.005759
38.656,70.1504,0.005759
38.688,70.1503,0.005759
38.720,70.1503,0.005759
38.751,70.1503,0.005759
38.783,70.1503,0.005618
38.814,70.1503,0.005618
38.845,70.1506,0.005618
38.876,70.1516,0.005618
38.907,70.1535,0.005618
38.939,70.1560,0.005618
38.970,70.1593,0.005618
39.001,70.1634,0.005618
39.032,70.1680,0.005476
39.063,70.1736,0.005476
39.093,70.1795,0.005476
39.125,70.1867,0.005476
39.156,70.1940,0.005476
39.187,70.2027,0.005476
39.219,70.2118,0.005476
39.249,70.2216,0.005476
39.279,70.2317,0.005420
39.311,70.2434,0.005420
39.341,70.2547,0.005420
39.371,70.2671,0.005420
39.402,70.2806,0.005420
39.433,70.2945,0.005420
39.463,70.3096,0.005420
39.494,70.3246,0.005420
39.525,70.3411,0.005298
39.557,70.3582,0.005298
39.588,70.3760,0.005298
39.619,70.3946,0.005298
39.650,70.4136,0.005298
39.681,70.4338,0.005298
39.712,70.4546,0.005298
39.743,70.4763,0.005298
39.775,70.4985,0.005175
39.806,70.5216,0.005175
39.837,70.5454,0.005175
39.868,70.5697,0.005175
39.900,70.5955,0.005175
39.930,70.6208,0.005175
39.961,70.6470,0.005175
39.991,70.6741,0.005175
40.023,70.7020,0.005062
40.054,70.7312,0.005062
40.086,70.7608,0.005062
40.117,70.7912,0.005062
40.147,70.8216,0.005062
40.178,70.8532,0.005062
40.209,70.8860,0.005062
40.240,70.9191,0.005062
40.271,70.9523,0.004865
40.302,70.9868,0.004865
40.334,71.0225,0.004865
40.365,71.0597,0.004865
40.396,71.0953,0.004865
40.427,71.1338,0.004865
40.459,71.1725,0.004865
40.490,71.2126,0.004865
40.521,71.2511,0.004714
40.552,71.2923,0.004714
40.583,71.3336,0.004714
40.614,71.3747,0.004714
40.645,71.4169,0.004714
40.674,71.4593,0.004714
40.706,71.5027,0.004714
40.736,71.5469,0.004714
40.769,71.5953,0.004714
40.799,71.6399,0.004479
40.830,71.6870,0.004479
40.860,71.7330,0.004479
40.891,71.7815,0.004479
40.923,71.8309,0.004479
40.954,71.8808,0.004479
40.984,71.9296,0.004479
41.014,71.9801,0.004479
41.045,72.0323,0.004479
41.076,72.0845,0.004206
41.108,72.1398,0.004206
41.139,72.1944,0.004206
41.169,72.2476,0.004206
41.199,72.3017,0.004206
41.231,72.3589,0.004206
41.262,72.4159,0.004206
41.293,72.4747,0.004206
41.326,72.5363,0.003896
41.355,72.5927,0.003896
41.388,72.6565,0.003896
41.417,72.7107,0.003896
41.448,72.7712,0.003896
41.478,72.8264,0.003896
41.508,72.8831,0.003896
41.539,72.9398,0.003519
41.570,72.9960,0.003519
41.600,73.0519,0.003519
41.631,73.1057,0.003519
41.663,73.1614,0.003519
41.693,73.2139,0.003519
41.727,73.2718,0.003519
41.755,73.3182,0.003519
41.786,73.3685,0.003519
41.820,73.4237,0.003133
41.846,73.4673,0.003133
41.878,73.5161,0.003133
41.909,73.5650,0.003133
41.942,73.6151,0.003133
41.971,73.6591,0.003133
42.001,73.7051,0.003133
42.032,73.7498,0.002512
42.065,73.7983,0.002512
42.094,73.8383,0.002512
42.127,73.8857,0.002512
42.156,73.9247,0.002512
42.186,73.9668,0.002512
42.217,74.0061,0.002512
42.248,74.0477,0.002512
42.279,74.0863,0.001261
42.311,74.1272,0.001261
42.342,74.1645,0.001261
42.373,74.2019,0.001261
42.404,74.2397,0.001261
42.435,74.2757,0.001261
42.466,74.3114,0.001261
42.498,74.3456,0.001261
42.528,74.3792,-0.001637
42.560,74.4129,-0.001637
42.590,74.4448,-0.001637
42.621,74.4766,-0.001637
42.652,74.5078,-0.001637
42.684,74.5380,-0.001637
42.715,74.5676,-0.001637
42.746,74.5961,-0.001637
42.777,74.6249,-0.008064
42.808,74.6519,-0.008064
42.840,74.6793,-0.008064
42.871,74.7048,-0.008064
42.902,74.7304,-0.008064
42.932,74.7545,-0.008064
42.964,74.7784,-0.008064
42.995,74.8013,-0.008064
43.025,74.8223,-0.019694
43.055,74.8439,-0.019694
43.086,74.8641,-0.019694
43.116,74.8837,-0.019694
43.147,74.9032,-0.019694
43.178,74.9214,-0.019694
43.209,74.9395,-0.019694
43.240,74.9564,-0.019694
43.272,74.9733,-0.035023
43.303,74.9889,-0.035023
43.334,75.0039,-0.035023
43.364,75.0177,-0.035023
43.395,75.0317,-0.035023
43.426,75.0445,-0.035023
43.458,75.0565,-0.035023
43.489,75.0680,-0.035023
43.520,75.0785,-0.049326
43.551,75.0883,-0.049326
43.583,75.0977,-0.049326
43.613,75.1057,-0.049326
43.644,75.1136,-0.049326
43.675,75.1205,-0.049326
43.706,75.1268,-0.049326
43.738,75.1323,-0.049326
43.769,75.1371,-0.049326
43.800,75.1411,-0.058444
43.832,75.1444,-0.058444
43.863,75.1470,-0.058444
43.894,75.1489,-0.058444
43.926,75.1499,-0.058444
43.957,75.1503,-0.058444
43.987,75.1503,-0.058444
44.019,75.1503,-0.058444
44.050,75.1503,-0.060184
44.080,75.1503,-0.060184
44.111,75.1503,-0.060184
44.141,75.1503,-0.060184
44.172,75.1503,-0.060184
44.203,75.1503,-0.060184
44.234,75.1503,-0.060184
44.266,75.1503,-0.060184
44.297,75.1503,-0.056101
44.328,75.1503,-0.056101
44.361,75.1503,-0.056101
44.390,75.1503,-0.056101
44.421,75.1503,-0.056101
44.452,75.1503,-0.056101
44.482,75.1503,-0.056101
44.515,75.1503,-0.051198
44.546,75.1503,-0.051198
44.578,75.1503,-0.051198
44.610,75.1503,-0.051198
44.641,75.1503,-0.051198
44.672,75.1503,-0.051198
44.703,75.1503,-0.051198
44.734,75.1503,-0.051198
44.766,75.1503,-0.047867
44.797,75.1503,-0.047867
44.828,75.1503,-0.047867
44.859,75.1503,-0.047867
44.889,75.1503,-0.047867
44.921,75.1503,-0.047867
44.952,75.1503,-0.047867
44.982,75.1503,-0.047867
45.014,75.1503,-0.047867
45.046,75.1503,-0.045326
45.076,75.1503,-0.045326
45.107,75.1503,-0.045326
45.138,75.1503,-0.045326
45.169,75.1503,-0.045326
45.200,75.1503,-0.045326
45.230,75.1503,-0.045326
45.262,75.1503,-0.045326
45.293,75.1503,-0.043256
45.324,75.1503,-0.043256
45.355,75.1503,-0.043256
45.385,75.1503,-0.043256
45.417,75.1503,-0.043256
45.448,75.1503,-0.043256
45.480,75.1503,-0.043256
45.509,75.1503,-0.041647
45.540,75.1503,-0.041647
45.570,75.1503,-0.041647
45.601,75.1503,-0.041647
45.633,75.1503,-0.041647
45.665,75.1503,-0.041647
45.696,75.1503,-0.041647
45.728,75.1503,-0.041647
45.759,75.1503,-0.041647
45.789,75.1503,-0.041647
45.821,75.1503,-0.040245
45.851,75.1503,-0.040245
45.882,75.1503,-0.040245
45.913,75.1503,-0.040245
45.944,75.1503,-0.040245
45.975,75.1503,-0.040245
46.006,75.1503,-0.040245
46.037,75.1503,-0.040245
46.068,75.1503,-0.039069
46.098,75.1503,-0.039069
46.129,75.1503,-0.039069
46.162,75.1503,-0.039069
46.191,75.1503,-0.039069
46.222,75.1503,-0.039069
46.253,75.1503,-0.039069
46.286,75.1503,-0.038006
46.315,75.1503,-0.038006
46.347,75.1503,-0.038006
46.378,75.1503,-0.038006
46.408,75.1503,-0.038006
46.440,75.1503,-0.038006
46.471,75.1503,-0.038006
46.502,75.1503,-0.038006
46.539,75.1503,-0.038006
46.565,75.1503,-0.037102
46.596,75.1503,-0.037102
46.627,75.1503,-0.037102
46.657,75.1503,-0.037102
46.688,75.1503,-0.037102
46.718,75.1503,-0.037102
46.749,75.1503,-0.037102
46.780,75.1503,-0.037102
46.811,75.1503,-0.036340
46.841,75.1503,-0.036340
46.872,75.1503,-0.036340
46.904,75.1503,-0.036340
46.936,75.1503,-0.036340
46.968,75.1503,-0.036340
46.998,75.1503,-0.036340
47.028,75.1503,-0.036340
47.061,75.1503,-0.035569
47.091,75.1503,-0.035569
47.121,75.1503,-0.035569
47.152,75.1503,-0.035569
47.183,75.1503,-0.035569
47.216,75.1503,-0.035569
47.246,75.1503,-0.035569
47.276,75.1503,-0.035569
47.308,75.1503,-0.034882
47.339,75.1503,-0.034882
47.370,75.1503,-0.034882
47.400,75.1503,-0.034882
47.431,75.1503,-0.034882
47.463,75.1503,-0.034882
47.493,75.1503,-0.034882
47.524,75.1503,-0.034214
47.554,75.1503,-0.034214
47.584,75.1503,-0.034214
47.616,75.1503,-0.034214
47.646,75.1503,-0.034214
47.677,75.1503,-0.034214
47.707,75.1503,-0.034214
47.739,75.1503,-0.034214
47.770,75.1503,-0.034214
47.801,75.1503,-0.033583
47.832,75.1503,-0.033583
47.863,75.1503,-0.033583
47.894,75.1503,-0.033583
47.926,75.1503,-0.033583
47.957,75.1503,-0.033583
47.987,75.1503,-0.033583
48.017,75.1503,-0.033084
48.048,75.1503,-0.033084
48.079,75.1503,-0.033084
48.114,75.1503,-0.033084
48.141,75.1503,-0.033084
48.172,75.1503,-0.033084
48.203,75.1503,-0.033084
48.234,75.1501,-0.033084
48.266,75.1494,-0.033084
48.297,75.1479,-0.032652
48.328,75.1457,-0.032652
48.358,75.1428,-0.032652
48.389,75.1391,-0.032652
48.421,75.1346,-0.032652
48.451,75.1297,-0.032652
48.482,75.1238,-0.032652
48.514,75.1173,-0.030977
48.545,75.1100,-0.030977
48.577,75.1016,-0.030977
48.607,75.0931,-0.030977
48.638,75.0835,-0.030977
48.670,75.0730,-0.030977
48.701,75.0621,-0.030977
48.732,75.0502,-0.030977
48.763,75.0377,-0.019958
48.798,75.0231,-0.019958
48.825,75.0107,-0.019958
48.856,74.9960,-0.019958
48.888,74.9799,-0.019958
48.920,74.9636,-0.019958
48.954,74.9455,-0.019958
48.979,74.9310,-0.019958
49.010,74.9130,-0.019958
49.041,74.8940,0.001327
49.073,74.8737,0.001327
49.104,74.8525,0.001327
49.135,74.8321,0.001327
49.166,74.8102,0.001327
49.197,74.7874,0.001327
49.228,74.7639,0.001327
49.259,74.7399,0.024719
49.291,74.7146,0.024719
49.321,74.6896,0.024719
49.351,74.6641,0.024719
49.383,74.6366,0.024719
49.414,74.6094,0.024719
49.445,74.5805,0.024719
49.477,74.5506,0.024719
49.507,74.5207,0.024719
49.538,74.4906,0.048178
49.570,74.4578,0.048178
49.601,74.4265,0.048178
49.630,74.3946,0.048178
49.661,74.3617,0.048178
49.691,74.3289,0.048178
49.722,74.2944,0.048178
49.753,74.2583,0.048178
49.784,74.2216,0.074487
49.815,74.1852,0.074487
49.846,74.1465,0.074487
49.877,74.1081,0.074487
49.909,74.0669,0.074487
49.940,74.0279,0.074487
49.972,73.9866,0.074487
50.002,73.9459,0.074487
50.033,73.9031,0.074487
50.064,73.8612,0.106264
50.098,73.8122,0.106264
50.127,73.7706,0.106264
50.158,73.7245,0.106264
50.189,73.6805,0.106264
50.221,73.6327,0.106264
50.252,73.5840,0.106264
50.283,73.5370,0.121093
50.313,73.4879,0.121093
50.344,73.4396,0.121093
50.378,73.3849,0.121093
50.405,73.3394,0.121093
50.437,73.2863,0.121093
50.469,73.2331,0.121093
50.500,73.1808,0.121093
50.531,73.1267,0.072041
50.563,73.0682,0.072041
50.593,73.0155,0.072041
50.624,72.9584,0.072041
50.656,72.9017,0.072041
50.685,72.8464,0.072041
50.716,72.7876,0.072041
50.747,72.7292,0.072041
50.779,72.6686,0.017191
50.809,72.6083,0.017191
50.840,72.5509,0.017191
50.870,72.4905,0.017191
50.901,72.4338,0.017191
50.933,72.3728,0.017191
50.963,72.3191,0.017191
50.994,72.2618,0.017191
51.025,72.2062,0.017191
51.056,72.1509,0.008440
51.087,72.0966,0.008440
51.118,72.0429,0.008440
51.149,71.9916,0.008440
51.183,71.9328,0.008440
51.210,71.8887,0.008440
51.242,71.8356,0.008440
51.281,71.7727,0.008440
51.321,71.7113,0.007537
51.351,71.6638,0.007537
51.382,71.6162,0.007537
51.415,71.5659,0.007537
51.443,71.5248,0.007537
51.474,71.4808,0.007537
51.505,71.4364,0.007537
51.536,71.3920,0.007537
51.567,71.3499,0.007537
51.598,71.3067,0.007038
51.629,71.2655,0.007038
51.660,71.2239,0.007038
51.691,71.1845,0.007038
51.723,71.1443,0.007038
51.754,71.1062,0.007038
51.784,71.0677,0.007038
51.816,71.0308,0.006662
51.847,70.9934,0.006662
51.879,70.9581,0.006662
51.909,70.9229,0.006662
51.940,70.8897,0.006662
51.972,70.8550,0.006662
52.003,70.8215,0.006662
52.033,70.7908,0.006662
52.064,70.7595,0.006389
52.096,70.7283,0.006389
52.126,70.6991,0.006389
52.157,70.6699,0.006389
52.188,70.6418,0.006389
52.219,70.6142,0.006389
52.250,70.5872,0.006389
52.281,70.5605,0.006389
52.312,70.5355,0.006248
52.344,70.5101,0.006248
52.374,70.4860,0.006248
52.405,70.4628,0.006248
52.437,70.4395,0.006248
52.472,70.4147,0.006248
52.500,70.3958,0.006248
52.531,70.3755,0.006248
52.561,70.3564,0.006088
52.593,70.3373,0.006088
52.624,70.3187,0.006088
52.655,70.3013,0.006088
52.686,70.2843,0.006088
52.717,70.2688,0.006088
52.748,70.2532,0.006088
52.779,70.2388,0.005881
52.810,70.2249,0.005881
52.841,70.2119,0.005881
52.871,70.1995,0.005881
52.903,70.1881,0.005881
52.937,70.1756,0.005881
52.965,70.1666,0.005881
52.996,70.1572,0.005881
53.027,70.1483,0.005749
53.062,70.1392,0.005749
53.090,70.1331,0.005749
53.120,70.1266,0.005749
53.151,70.1209,0.005749
53.182,70.1157,0.005749
53.212,70.1114,0.005749
53.244,70.1077,0.005749
53.274,70.1049,0.005674
53.306,70.1025,0.005674
53.337,70.1011,0.005674
53.367,70.1004,0.005674
53.397,70.1003,0.005674
53.427,70.1003,0.005674
53.458,70.1003,0.005674
53.488,70.1005,0.005674
53.519,70.1015,0.005552
53.550,70.1033,0.005552
53.582,70.1057,0.005552
53.613,70.1091,0.005552
53.644,70.1129,0.005552
53.675,70.1176,0.005552
53.706,70.1230,0.005552
53.737,70.1292,0.005552
53.769,70.1360,0.005552
53.800,70.1438,0.005401
53.831,70.1520,0.005401
53.863,70.1614,0.005401
53.893,70.1710,0.005401
53.924,70.1814,0.005401
53.956,70.1930,0.005401
53.986,70.2043,0.005401
54.020,70.2186,0.005401
54.048,70.2305,0.005354
54.079,70.2450,0.005354
54.111,70.2598,0.005354
54.141,70.2753,0.005354
54.172,70.2918,0.005354
54.203,70.3086,0.005354
54.234,70.3267,0.005354
54.266,70.3453,0.005354
54.299,70.3657,0.005354
54.328,70.3845,0.005354
54.359,70.4055,0.005279
54.391,70.4273,0.005279
54.422,70.4503,0.005279
54.453,70.4723,0.005279
54.484,70.4964,0.005279
54.516,70.5212,0.005279
54.547,70.5470,0.005279
54.579,70.5737,0.005147
54.609,70.5984,0.005147
54.642,70.6287,0.005147
54.671,70.6547,0.005147
54.703,70.6839,0.005147
54.733,70.7135,0.005147
54.764,70.7426,0.005147
54.796,70.7753,0.005147
54.826,70.8056,0.005147
54.858,70.8383,0.005025
54.888,70.8710,0.005025
54.919,70.9047,0.005025
54.950,70.9388,0.005025
54.982,70.9748,0.005025
55.011,71.0097,0.005025
55.043,71.0473,0.005025
55.076,71.0876,0.004818
55.105,71.1222,0.004818
55.136,71.1622,0.004818
55.167,71.2019,0.004818
55.201,71.2463,0.004818
55.230,71.2836,0.004818
55.260,71.3255,0.004818
55.291,71.3671,0.004667
55.322,71.4100,0.004667
55.353,71.4542,0.004667
55.384,71.4988,0.004667
55.415,71.5444,0.004667
55.446,71.5915,0.004667
55.478,71.6389,0.004667
55.509,71.6879,0.004667
55.540,71.7352,0.004413
55.570,71.7838,0.004413
55.601,71.8334,0.004413
55.632,71.8845,0.004413
55.662,71.9340,0.004413
55.694,71.9866,0.004413
55.725,72.0404,0.004413
55.757,72.0953,0.004413
55.787,72.1462,0.004065
55.817,72.2020,0.004065
55.848,72.2562,0.004065
55.880,72.3157,0.004065
55.910,72.3692,0.004065
55.942,72.4289,0.004065
55.972,72.4859,0.004065
56.005,72.5501,0.004065
56.034,72.6053,0.004065
56.066,72.6677,0.003651
56.099,72.7298,0.003651
56.127,72.7845,0.003651
56.159,72.8426,0.003651
56.190,72.8996,0.003651
56.221,72.9548,0.003651
56.251,73.0084,0.003651
56.284,73.0674,0.003322
56.314,73.1204,0.003322
56.345,73.1733,0.003322
56.375,73.2249,0.003322
56.406,73.2766,0.003322
56.437,73.3276,0.003322
56.469,73.3783,0.003322
56.499,73.4282,0.003322
56.533,73.4803,0.003322
56.562,73.5272,0.002917
56.594,73.5745,0.002917
56.625,73.6209,0.002917
56.656,73.6683,0.002917
56.687,73.7143,0.002917
56.719,73.7595,0.002917
56.750,73.8028,0.002917
56.781,73.8470,0.002061
56.812,73.8896,0.002061
56.844,73.9312,0.002061
56.874,73.9718,0.002061
56.906,74.0124,0.002061
56.936,74.0508,0.002061
56.967,74.0901,0.002061
56.998,74.1271,0.002061
57.028,74.1640,0.002061
57.059,74.1991,0.000282
57.090,74.2361,0.000282
57.121,74.2709,0.000282
57.152,74.3052,0.000282
57.183,74.3385,0.000282
57.213,74.3708,0.000282
57.244,74.4028,0.000282
57.276,74.4351,-0.003971
57.310,74.4691,-0.003971
57.338,74.4963,-0.003971
57.369,74.5253,-0.003971
57.401,74.5548,-0.003971
57.433,74.5834,-0.003971
57.462,74.6094,-0.003971
57.493,74.6348,-0.003971
57.525,74.6622,-0.003971
57.554,74.6854,-0.003971
57.585,74.7097,-0.012882
57.615,74.7326,-0.012882
57.646,74.7549,-0.012882
57.677,74.7768,-0.012882
57.708,74.7982,-0.012882
57.739,74.8185,-0.012882
57.770,74.8382,-0.026827
57.800,74.8571,-0.026827
57.831,74.8754,-0.026827
57.861,74.8933,-0.026827
57.895,74.9118,-0.026827
57.923,74.9263,-0.026827
57.955,74.9418,-0.026827
57.986,74.9567,-0.026827
58.020,74.9722,-0.026827
58.048,74.9843,-0.026827
58.080,74.9975,-0.042607
58.110,75.0089,-0.042607
58.142,75.0204,-0.042607
58.173,75.0310,-0.042607
58.205,75.0409,-0.042607
58.234,75.0493,-0.042607
58.266,75.0576,-0.042607
58.296,75.0649,-0.055244
58.327,75.0719,-0.055244
58.358,75.0778,-0.055244
58.388,75.0832,-0.055244
58.419,75.0878,-0.055244
58.450,75.0917,-0.055244
58.482,75.0950,-0.055244
58.513,75.0973,-0.061323
58.545,75.0990,-0.061323
58.576,75.1000,-0.061323
58.607,75.1003,-0.061323
58.637,75.1003,-0.061323
58.667,75.1003,-0.061323
58.699,75.1003,-0.061323
58.730,75.1003,-0.061323
58.760,75.1003,-0.061323
58.791,75.1003,-0.059911
58.821,75.1003,-0.059911
58.852,75.1003,-0.059911
58.884,75.1003,-0.059911
58.915,75.1003,-0.059911
58.947,75.1003,-0.059911
58.977,75.1003,-0.059911
59.009,75.1003,-0.054821
59.039,75.1003,-0.054821
59.071,75.1003,-0.054821
59.101,75.1003,-0.054821
59.133,75.1003,-0.054821
59.164,75.1003,-0.054821
59.195,75.1003,-0.054821
59.226,75.1003,-0.054821
59.258,75.1003,-0.054821
59.288,75.1003,-0.050615
59.319,75.1003,-0.050615
59.351,75.1003,-0.050615
59.383,75.1003,-0.050615
59.413,75.1003,-0.050615
59.444,75.1003,-0.050615
59.475,75.1003,-0.050615
59.507,75.1003,-0.050615
59.537,75.1003,-0.047594
59.568,75.1003,-0.047594
59.598,75.1003,-0.047594
59.630,75.1003,-0.047594
59.660,75.1003,-0.047594
59.691,75.1003,-0.047594
59.722,75.1003,-0.047594
59.753,75.1003,-0.047594
59.784,75.1003,-0.045185
59.815,75.1003,-0.045185
59.846,75.1003,-0.045185
59.877,75.1003,-0.045185
59.908,75.1003,-0.045185
59.939,75.1003,-0.045185
59.969,75.1003,-0.045185
60.006,75.1003,-0.045185
60.046,75.1003,-0.043228
60.078,75.1003,-0.043228
60.108,75.1003,-0.043228
60.140,75.1003,-0.043228
60.170,75.1003,-0.043228
60.201,75.1003,-0.043228
60.231,75.1003,-0.043228
60.262,75.1003,-0.043228
60.293,75.1003,-0.041647
60.325,75.1003,-0.041647
60.355,75.1003,-0.041647
60.388,75.1003,-0.041647
60.418,75.1003,-0.041647
60.449,75.1003,-0.041647
60.481,75.1003,-0.041647
60.512,75.1003,-0.040349
60.543,75.1003,-0.040349
60.574,75.1003,-0.040349
60.606,75.1003,-0.040349
60.637,75.1003,-0.040349
60.669,75.1003,-0.040349
60.699,75.1003,-0.040349
60.731,75.1003,-0.040349
60.763,75.1003,-0.040349
60.792,75.1003,-0.040349
60.824,75.1003,-0.039154
60.855,75.1003,-0.039154
60.885,75.1003,-0.039154
60.917,75.1003,-0.039154
60.947,75.1003,-0.039154
60.978,75.1003,-0.039154
61.010,75.1003,-0.038119
61.040,75.1003,-0.038119
61.073,75.1003,-0.038119
61.103,75.1003,-0.038119
61.134,75.1003,-0.038119
61.165,75.1003,-0.038119
61.195,75.1003,-0.038119
61.226,75.1003,-0.038119
61.256,75.1003,-0.038119
61.288,75.1003,-0.037272
61.321,75.1003,-0.037272
61.349,75.1003,-0.037272
61.378,75.1003,-0.037272
61.412,75.1003,-0.037272
61.443,75.1003,-0.037272
61.474,75.1003,-0.037272
61.506,75.1003,-0.037272
61.537,75.1003,-0.036528
61.568,75.1003,-0.036528
61.599,75.1003,-0.036528
61.630,75.1003,-0.036528
61.662,75.1003,-0.036528
61.693,75.1003,-0.036528
61.723,75.1003,-0.036528
61.754,75.1003,-0.036528
61.784,75.1003,-0.036528
61.815,75.1003,-0.035785
61.847,75.1003,-0.035785
61.878,75.1003,-0.035785
61.915,75.1003,-0.035785
61.956,75.1003,-0.035785
61.986,75.1003,-0.035785
62.017,75.1003,-0.035785
62.046,75.1003,-0.035070
62.079,75.1003,-0.035070
62.108,75.1003,-0.035070
62.138,75.1003,-0.035070
62.170,75.1003,-0.035070
62.201,75.1003,-0.035070
62.232,75.1003,-0.035070
62.264,75.1003,-0.035070
62.295,75.1003,-0.035070
62.325,75.1003,-0.034468
62.359,75.1003,-0.034468
62.386,75.1003,-0.034468
62.418,75.1003,-0.034468
62.449,75.1003,-0.034468
62.480,75.1003,-0.034468
62.511,75.1003,-0.034468
62.542,75.1003,-0.034468
62.573,75.1003,-0.033912
62.605,75.1003,-0.033912
62.635,75.1003,-0.033912
62.667,75.1003,-0.033912
62.698,75.1003,-0.033912
62.730,75.1003,-0.033912
62.760,75.1003,-0.033912
62.791,75.1003,-0.033912
62.822,75.1003,-0.033386
62.853,75.1003,-0.033386
62.884,75.1002,-0.033386
62.915,75.0995,-0.033386
62.946,75.0981,-0.033386
62.975,75.0961,-0.033386
63.008,75.0930,-0.033386
63.039,75.0895,-0.033386
63.069,75.0853,-0.032868
63.098,75.0804,-0.032868
63.129,75.0749,-0.032868
63.160,75.0682,-0.032868
63.191,75.0611,-0.032868
63.223,75.0529,-0.032868
63.253,75.0443,-0.032868
63.285,75.0349,-0.032868
63.319,75.0239,-0.027994
63.346,75.0140,-0.027994
63.378,75.0024,-0.027994
63.408,74.9900,-0.027994
63.442,74.9760,-0.027994
63.471,74.9630,-0.027994
63.501,74.9495,-0.027994
63.532,74.9341,-0.027994
63.563,74.9178,-0.012543
63.594,74.9017,-0.012543
63.628,74.8825,-0.012543
63.656,74.8661,-0.012543
63.687,74.8472,-0.012543
63.718,74.8273,-0.012543
63.749,74.8071,-0.012543
63.780,74.7866,-0.012543
63.812,74.7636,0.010144
63.843,74.7417,0.010144
63.874,74.7187,0.010144
63.903,74.6953,0.010144
63.934,74.6708,0.010144
63.965,74.6457,0.010144
63.996,74.6203,0.010144
64.027,74.5924,0.010144
64.058,74.5657,0.033527
64.090,74.5363,0.033527
64.121,74.5067,0.033527
64.152,74.4771,0.033527
64.183,74.4468,0.033527
64.215,74.4148,0.033527
64.246,74.3826,0.033527
64.278,74.3490,0.057446
64.309,74.3157,0.057446
64.340,74.2821,0.057446
64.370,74.2475,0.057446
64.401,74.2126,0.057446
64.432,74.1762,0.057446
64.463,74.1394,0.057446
64.494,74.1014,0.057446
64.525,74.0630,0.084951
64.556,74.0230,0.084951
64.587,73.9839,0.084951
64.619,73.9414,0.084951
64.650,73.9002,0.084951
64.682,73.8565,0.084951
64.713,73.8142,0.084951
64.743,73.7710,0.084951
64.775,73.7247,0.110507
64.806,73.6808,0.110507
64.837,73.6351,0.110507
64.868,73.5892,0.110507
64.898,73.5424,0.110507
64.929,73.4943,0.110507
64.960,73.4453,0.110507
64.992,73.3946,0.110507
65.024,73.3435,0.107703
65.055,73.2929,0.107703
65.086,73.2412,0.107703
65.117,73.1883,0.107703
65.148,73.1349,0.107703
65.178,73.0827,0.107703
65.210,73.0276,0.107703
65.240,72.9720,0.107703
65.271,72.9169,0.107703
65.303,72.8579,0.107703
65.334,72.8019,0.052384
65.365,72.7427,0.052384
65.397,72.6816,0.052384
65.427,72.6242,0.052384
65.459,72.5605,0.052384
65.491,72.5003,0.052384
65.521,72.4411,0.052384
65.553,72.3819,0.052384
65.584,72.3228,0.009447
65.614,72.2693,0.009447
65.645,72.2119,0.009447
65.676,72.1563,0.009447
65.707,72.1005,0.009447
65.739,72.0447,0.009447
65.770,71.9928,0.009447
65.800,71.9407,0.008130
65.831,71.8886,0.008130
65.862,71.8370,0.008130
65.893,71.7859,0.008130
65.925,71.7355,0.008130
65.956,71.6870,0.008130
65.986,71.6392,0.008130
66.017,71.5925,0.008130
66.048,71.5444,0.008130
66.078,71.4996,0.007340
66.110,71.4531,0.007340
66.140,71.4096,0.007340
66.168,71.3690,0.007340
66.201,71.3227,0.007340
66.232,71.2806,0.007340
66.263,71.2396,0.007340
66.294,71.1974,0.006888
66.324,71.1575,0.006888
66.355,71.1184,0.006888
66.386,71.0798,0.006888
66.417,71.0404,0.006888
66.448,71.0034,0.006888
66.480,70.9650,0.006888
66.512,70.9290,0.006888
66.543,70.8919,0.006888
66.574,70.8586,0.006549
66.605,70.8241,0.006549
66.635,70.7920,0.006549
66.667,70.7582,0.006549
66.698,70.7268,0.006549
66.729,70.6962,0.006549
66.760,70.6653,0.006549
66.792,70.6356,0.006352
66.823,70.6065,0.006352
66.854,70.5780,0.006352
66.885,70.5502,0.006352
66.916,70.5243,0.006352
66.948,70.4980,0.006352
66.978,70.4732,0.006352
67.008,70.4494,0.006352
67.039,70.4257,0.006352
67.072,70.4013,0.006182
67.101,70.3803,0.006182
67.133,70.3585,0.006182
67.165,70.3370,0.006182
67.196,70.3168,0.006182
67.227,70.2977,0.006182
67.259,70.2787,0.006182
67.290,70.2605,0.006182
67.321,70.2434,0.006022
67.351,70.2273,0.006022
67.382,70.2119,0.006022
67.413,70.1968,0.006022
67.444,70.1824,0.006022
67.475,70.1690,0.006022
67.507,70.1560,0.006022
67.537,70.1442,0.006022
67.567,70.1329,0.005862
67.598,70.1227,0.005862
67.629,70.1124,0.005862
67.660,70.1034,0.005862
67.691,70.0948,0.005862
67.723,70.0873,0.005862
67.754,70.0802,0.005862
67.785,70.0741,0.005768
67.818,70.0680,0.005768
67.846,70.0638,0.005768
67.878,70.0596,0.005768
67.909,70.0564,0.005768
67.940,70.0538,0.005768
67.970,70.0519,0.005768
68.001,70.0508,0.005768
68.032,70.0503,0.005768
68.063,70.0503,0.005702
68.093,70.0503,0.005702
68.124,70.0503,0.005702
68.155,70.0503,0.005702
68.187,70.0503,0.005702
68.215,70.0509,0.005702
68.246,70.0522,0.005702
68.273,70.0538,0.005702
68.308,70.0567,0.005618
68.339,70.0603,0.005618
68.370,70.0644,0.005618
68.401,70.0694,0.005618
68.434,70.0755,0.005618
68.462,70.0811,0.005618
68.493,70.0882,0.005618
68.524,70.0958,0.005505
68.554,70.1045,0.005505
68.585,70.1134,0.005505
68.616,70.1236,0.005505
68.647,70.1341,0.005505
68.679,70.1458,0.005505
68.709,70.1577,0.005505
68.741,70.1710,0.005505
68.773,70.1846,0.005505
68.805,70.1997,0.005382
68.836,70.2148,0.005382
68.867,70.2308,0.005382
68.899,70.2472,0.005382
68.930,70.2649,0.005382
68.960,70.2826,0.005382
68.991,70.3012,0.005382
69.022,70.3204,0.005382
69.052,70.3405,0.005251
69.084,70.3615,0.005251
69.114,70.3833,0.005251
69.145,70.4057,0.005251
69.171,70.4245,0.005251
69.208,70.4532,0.005251
69.239,70.4778,0.005251
69.271,70.5036,0.005091
69.302,70.5294,0.005091
69.333,70.5563,0.005091
69.363,70.5830,0.005091
69.395,70.6114,0.005091
69.426,70.6409,0.005091
69.457,70.6705,0.005091
69.488,70.7013,0.005091
69.519,70.7316,0.004968
69.549,70.7634,0.004968
69.581,70.7970,0.004968
69.611,70.8290,0.004968
69.643,70.8631,0.004968
69.674,70.8985,0.004968
69.705,70.9336,0.004968
69.736,70.9704,0.004968
69.766,71.0060,0.004827
69.797,71.0446,0.004827
69.828,71.0824,0.004827
69.860,71.1217,0.004827
69.892,71.1632,0.004827
69.922,71.2026,0.004827
69.954,71.2453,0.004827
69.983,71.2859,0.004827
70.015,71.3292,0.004827
70.046,71.3730,0.004583
70.078,71.4184,0.004583
70.109,71.4623,0.004583
70.140,71.5096,0.004583
70.171,71.5545,0.004583
70.202,71.6031,0.004583
70.233,71.6496,0.004583
70.263,71.6984,0.004347
70.294,71.7467,0.004347
70.325,71.7973,0.004347
70.358,71.8502,0.004347
70.386,71.8980,0.004347
70.418,71.9505,0.004347
70.448,72.0029,0.004347
70.479,72.0575,0.004347
70.510,72.1103,0.004347
70.540,72.1637,0.004347
70.571,72.2200,0.004103
70.602,72.2766,0.004103
70.633,72.3332,0.004103
70.665,72.3926,0.004103
70.695,72.4509,0.004103
70.726,72.5096,0.004103
70.757,72.5697,0.004103
70.788,72.6289,0.004103
70.819,72.6878,0.003726
70.849,72.7463,0.003726
70.880,72.8013,0.003726
70.911,72.8603,0.003726
70.943,72.9161,0.003726
70.974,72.9732,0.003726
71.004,73.0257,0.003726
71.035,73.0804,0.003726
71.066,73.1330,0.003359
71.097,73.1860,0.003359
71.128,73.2362,0.003359
71.160,73.2890,0.003359
71.190,73.3380,0.003359
71.221,73.3899,0.003359
71.252,73.4359,0.003359
71.283,73.4848,0.003359
71.315,73.5328,0.002879
71.349,73.5860,0.002879
71.375,73.6243,0.002879
71.407,73.6693,0.002879
71.437,73.7132,0.002879
71.472,73.7619,0.002879
71.499,73.8000,0.002879
71.530,73.8418,0.002879
71.562,73.8845,0.001948
71.594,73.9267,0.001948
71.624,73.9656,0.001948
71.656,74.0055,0.001948
71.687,74.0453,0.001948
71.719,74.0850,0.001948
71.751,74.1214,0.001948
71.781,74.1582,0.001948
71.812,74.1935,-0.000094
71.843,74.2288,-0.000094
71.874,74.2616,-0.000094
71.905,74.2956,-0.000094
71.936,74.3279,-0.000094
71.967,74.3605,-0.000094
71.998,74.3929,-0.000094
72.029,74.4225,-0.000094
72.061,74.4530,-0.000094
72.092,74.4826,-0.004855
72.123,74.5104,-0.004855
72.154,74.5386,-0.004855
72.186,74.5657,-0.004855
72.215,74.5910,-0.004855
72.246,74.6158,-0.004855
72.279,74.6421,-0.004855
72.308,74.6648,-0.014585
72.340,74.6893,-0.014585
72.370,74.7109,-0.014585
72.401,74.7329,-0.014585
72.431,74.7531,-0.014585
72.461,74.7732,-0.014585
72.492,74.7931,-0.014585
72.523,74.8116,-0.014585
72.554,74.8305,-0.029292
72.585,74.8475,-0.029292
72.616,74.8641,-0.029292
72.647,74.8804,-0.029292
72.677,74.8951,-0.029292
72.709,74.9102,-0.029292
72.740,74.9242,-0.029292
72.770,74.9372,-0.029292
72.801,74.9495,-0.029292
72.833,74.9615,-0.045016
72.863,74.9723,-0.045016
72.895,74.9827,-0.045016
72.927,74.9926,-0.045016
72.960,75.0019,-0.045016
72.988,75.0094,-0.045016
73.020,75.0169,-0.045016
73.049,75.0231,-0.056938
73.081,75.0292,-0.056938
73.111,75.0343,-0.056938
73.142,75.0388,-0.056938
73.174,75.0426,-0.056938
73.205,75.0456,-0.056938
73.239,75.0481,-0.056938
73.267,75.0493,-0.056938
73.299,75.0502,-0.061935
73.330,75.0503,-0.061935
73.361,75.0503,-0.061935
73.392,75.0503,-0.061935
73.424,75.0503,-0.061935
73.455,75.0503,-0.061935
73.485,75.0503,-0.061935
73.516,75.0503,-0.061935
73.548,75.0503,-0.059582
73.579,75.0503,-0.059582
73.611,75.0503,-0.059582
73.641,75.0503,-0.059582
73.672,75.0503,-0.059582
73.703,75.0503,-0.059582
73.734,75.0503,-0.059582
73.764,75.0503,-0.059582
73.795,75.0503,-0.054322
73.827,75.0503,-0.054322
73.858,75.0503,-0.054322
73.889,75.0503,-0.054322
73.919,75.0503,-0.054322
73.950,75.0503,-0.054322
73.980,75.0503,-0.054322
74.012,75.0503,-0.054322
74.043,75.0503,-0.050323
74.074,75.0503,-0.050323
74.105,75.0503,-0.050323
74.136,75.0503,-0.050323
74.167,75.0503,-0.050323
74.198,75.0503,-0.050323
74.229,75.0503,-0.050323
74.260,75.0503,-0.050323
74.291,75.0503,-0.047387
74.322,75.0503,-0.047387
74.353,75.0503,-0.047387
74.385,75.0503,-0.047387
74.416,75.0503,-0.047387
74.446,75.0503,-0.047387
74.478,75.0503,-0.047387
74.509,75.0503,-0.047387
74.540,75.0503,-0.045044
74.572,75.0503,-0.045044
74.603,75.0503,-0.045044
74.634,75.0503,-0.045044
74.664,75.0503,-0.045044
74.695,75.0503,-0.045044
74.727,75.0503,-0.045044
74.758,75.0503,-0.045044
74.789,75.0503,-0.043209
74.820,75.0503,-0.043209
74.851,75.0503,-0.043209
74.882,75.0503,-0.043209
74.913,75.0503,-0.043209
74.945,75.0503,-0.043209
74.975,75.0503,-0.043209
75.005,75.0503,-0.043209
75.036,75.0503,-0.041694
75.068,75.0503,-0.041694
75.098,75.0503,-0.041694
75.129,75.0503,-0.041694
75.160,75.0503,-0.041694
75.191,75.0503,-0.041694
75.222,75.0503,-0.041694
75.253,75.0503,-0.041694
75.279,75.0503,-0.041694
75.315,75.0503,-0.041694
75.346,75.0503,-0.040386
75.376,75.0503,-0.040386
75.407,75.0503,-0.040386
75.437,75.0503,-0.040386
75.472,75.0503,-0.040386
75.500,75.0503,-0.040386
75.532,75.0503,-0.040386
75.562,75.0503,-0.039191
75.593,75.0503,-0.039191
75.624,75.0503,-0.039191
75.655,75.0503,-0.039191
75.686,75.0503,-0.039191
75.717,75.0503,-0.039191
75.748,75.0503,-0.039191
75.780,75.0503,-0.039191
75.810,75.0503,-0.038175
75.841,75.0503,-0.038175
75.873,75.0503,-0.038175
75.903,75.0503,-0.038175
75.934,75.0503,-0.038175
75.966,75.0503,-0.038175
75.997,75.0503,-0.038175
76.027,75.0503,-0.038175
76.058,75.0503,-0.037319
76.088,75.0503,-0.037319
76.120,75.0503,-0.037319
76.151,75.0503,-0.037319
76.183,75.0503,-0.037319
76.215,75.0503,-0.037319
76.246,75.0503,-0.037319
76.277,75.0503,-0.037319
76.308,75.0503,-0.036481
76.339,75.0503,-0.036481
76.371,75.0503,-0.036481
76.402,75.0503,-0.036481
76.433,75.0503,-0.036481
76.464,75.0503,-0.036481
76.495,75.0503,-0.036481
76.526,75.0503,-0.036481
76.557,75.0503,-0.035710
76.588,75.0503,-0.035710
76.620,75.0503,-0.035710
76.650,75.0503,-0.035710
76.680,75.0503,-0.035710
76.712,75.0503,-0.035710
76.743,75.0503,-0.035710
76.775,75.0503,-0.035089
76.806,75.0503,-0.035089
76.837,75.0503,-0.035089
76.869,75.0503,-0.035089
76.901,75.0503,-0.035089
76.931,75.0503,-0.035089
76.963,75.0503,-0.035089
76.994,75.0503,-0.035089
77.024,75.0503,-0.034534
77.055,75.0503,-0.034534
77.086,75.0503,-0.034534
77.117,75.0503,-0.034534
77.148,75.0503,-0.034534
77.179,75.0503,-0.034534
77.209,75.0503,-0.034534
77.240,75.0503,-0.034534
77.271,75.0503,-0.034534
77.302,75.0503,-0.033941
77.333,75.0503,-0.033941
77.365,75.0503,-0.033941
77.397,75.0503,-0.033941
77.428,75.0503,-0.033941
77.459,75.0503,-0.033941
77.490,75.0503,-0.033941
77.521,75.0503,-0.033941
77.551,75.0503,-0.033451
77.583,75.0503,-0.033451
77.615,75.0503,-0.033451
77.644,75.0497,-0.033451
77.675,75.0484,-0.033451
77.706,75.0465,-0.033451
77.738,75.0436,-0.033451
77.768,75.0403,-0.033451
77.799,75.0360,-0.032990
77.830,75.0312,-0.032990
77.861,75.0255,-0.032990
77.893,75.0189,-0.032990
77.924,75.0119,-0.032990
77.955,75.0040,-0.032990
77.986,74.9956,-0.032990
78.016,74.9862,-0.027410
78.048,74.9761,-0.027410
78.079,74.9653,-0.027410
78.112,74.9529,-0.027410
78.141,74.9414,-0.027410
78.172,74.9285,-0.027410
78.203,74.9147,-0.027410
78.234,74.9006,-0.027410
78.265,74.8852,-0.011169
78.297,74.8694,-0.011169
78.327,74.8530,-0.011169
78.358,74.8357,-0.011169
78.389,74.8176,-0.011169
78.420,74.7993,-0.011169
78.451,74.7796,-0.011169
78.482,74.7591,-0.011169
78.513,74.7381,0.011612
78.544,74.7169,0.011612
78.574,74.6946,0.011612
78.605,74.6719,0.011612
78.635,74.6482,0.011612
78.670,74.6213,0.011612
78.697,74.5990,0.011612
78.728,74.5727,0.011612
78.759,74.5464,0.034938
78.789,74.5194,0.034938
78.822,74.4903,0.034938
78.851,74.4624,0.034938
78.882,74.4330,0.034938
78.914,74.4024,0.034938
78.944,74.3718,0.034938
78.975,74.3398,0.034938
79.007,74.3067,0.034938
79.038,74.2727,0.058923
79.069,74.2393,0.058923
79.100,74.2048,0.058923
79.131,74.1684,0.058923
79.161,74.1335,0.058923
79.193,74.0966,0.058923
79.224,74.0581,0.058923
79.256,74.0188,0.058923
79.286,73.9797,0.058923
79.318,73.9407,0.086531
79.350,73.8985,0.086531
79.380,73.8581,0.086531
79.411,73.8155,0.086531
79.442,73.7737,0.086531
79.473,73.7292,0.086531
79.505,73.6852,0.086531
79.535,73.6405,0.086531
79.566,73.5961,0.109312
79.598,73.5457,0.109312
79.629,73.5010,0.109312
79.659,73.4533,0.109312
79.690,73.4056,0.109312
79.721,73.3555,0.109312
79.753,73.3038,0.109312
79.784,73.2535,0.109312
79.815,73.2025,0.103074
79.846,73.1496,0.103074
79.878,73.0961,0.103074
79.908,73.0421,0.103074
79.939,72.9893,0.103074
79.970,72.9335,0.103074
80.000,72.8803,0.103074
80.030,72.8241,0.103074
80.061,72.7679,0.049523
80.093,72.7079,0.049523
80.123,72.6491,0.049523
80.155,72.5872,0.049523
80.185,72.5299,0.049523
80.216,72.4709,0.049523
80.248,72.4103,0.049523
80.279,72.3509,0.009212
80.310,72.2915,0.009212
80.340,72.2367,0.009212
80.371,72.1793,0.009212
80.402,72.1243,0.009212
80.434,72.0668,0.009212
80.465,72.0130,0.009212
80.496,71.9585,0.009212
80.527,71.9057,0.009212
80.559,71.8512,0.008017
80.590,71.8003,0.008017
80.622,71.7479,0.008017
80.653,71.6987,0.008017
80.684,71.6469,0.008017
80.715,71.5994,0.008017
80.747,71.5510,0.008017
80.776,71.5067,0.008017
80.809,71.4572,0.007311
80.841,71.4107,0.007311
80.872,71.3643,0.007311
80.904,71.3191,0.007311
80.938,71.2714,0.007311
80.965,71.2351,0.007311
80.996,71.1909,0.007311
81.026,71.1531,0.007311
81.056,71.1132,0.006860
81.088,71.0718,0.006860
81.118,71.0337,0.006860
81.149,70.9952,0.006860
81.180,70.9586,0.006860
81.209,70.9234,0.006860
81.244,70.8826,0.006860
81.272,70.8504,0.006860
81.303,70.8158,0.006860
81.334,70.7809,0.006559
81.366,70.7479,0.006559
81.397,70.7149,0.006559
81.428,70.6833,0.006559
81.460,70.6507,0.006559
81.489,70.6225,0.006559
81.521,70.5913,0.006559
81.551,70.5641,0.006352
81.583,70.5339,0.006352
81.612,70.5088,0.006352
81.642,70.4819,0.006352
81.673,70.4562,0.006352
81.704,70.4307,0.006352
81.736,70.4055,0.006352
81.766,70.3826,0.006352
81.796,70.3592,0.006182
81.828,70.3370,0.006182
81.858,70.3156,0.006182
81.890,70.2943,0.006182
81.920,70.2745,0.006182
81.951,70.2548,0.006182
81.983,70.2356,0.006182
82.013,70.2176,0.006182
82.045,70.2001,0.006041
82.075,70.1835,0.006041
82.107,70.1674,0.006041
82.137,70.1524,0.006041
82.169,70.1376,0.006041
82.200,70.1237,0.006041
82.231,70.1106,0.006041
82.262,70.0982,0.006041
82.293,70.0869,0.005881
82.325,70.0755,0.005881
82.356,70.0654,0.005881
82.387,70.0560,0.005881
82.418,70.0476,0.005881
82.449,70.0396,0.005881
82.480,70.0322,0.005881
82.512,70.0259,0.005881
82.542,70.0200,0.005768
82.568,70.0159,0.005768
82.605,70.0107,0.005768
82.635,70.0073,0.005768
82.667,70.0044,0.005768
82.698,70.0023,0.005768
82.729,70.0009,0.005768
82.760,70.0003,0.005768
82.791,70.0003,0.005618
82.821,70.0003,0.005618
82.852,70.0003,0.005618
82.883,70.0003,0.005618
82.914,70.0003,0.005618
82.945,70.0006,0.005618
82.976,70.0016,0.005618
83.007,70.0033,0.005618
83.039,70.0059,0.005618
83.070,70.0090,0.005571
83.100,70.0130,0.005571
83.131,70.0176,0.005571
83.162,70.0229,0.005571
83.192,70.0288,0.005571
83.223,70.0357,0.005571
83.254,70.0431,0.005571
83.285,70.0514,0.005571
83.316,70.0602,0.005458
83.347,70.0701,0.005458
83.378,70.0806,0.005458
83.409,70.0916,0.005458
83.440,70.1033,0.005458
83.470,70.1159,0.005458
83.501,70.1291,0.005458
83.533,70.1434,0.005458
83.565,70.1586,0.005354
83.596,70.1744,0.005354
83.627,70.1904,0.005354
83.658,70.2082,0.005354
83.689,70.2253,0.005354
83.721,70.2445,0.005354
83.751,70.2632,0.005354
83.783,70.2837,0.005354
83.814,70.3042,0.005298
83.845,70.3258,0.005298
83.875,70.3473,0.005298
83.907,70.3709,0.005298
83.938,70.3942,0.005298
83.968,70.4177,0.005298
83.999,70.4427,0.005298
84.030,70.4683,0.005298
84.060,70.4944,0.005147
84.091,70.5215,0.005147
84.123,70.5496,0.005147
84.153,70.5783,0.005147
84.184,70.6069,0.005147
84.215,70.6374,0.005147
84.246,70.6678,0.005147
84.277,70.7001,0.005147
84.309,70.7326,0.004987
84.339,70.7650,0.004987
84.370,70.7985,0.004987
84.401,70.8336,0.004987
84.432,70.8684,0.004987
84.465,70.9061,0.004987
84.495,70.9415,0.004987
84.526,70.9800,0.004987
84.557,71.0177,0.004799
84.588,71.0565,0.004799
84.620,71.0969,0.004799
84.650,71.1374,0.004799
84.681,71.1782,0.004799
84.712,71.2190,0.004799
84.743,71.2616,0.004799
84.774,71.3050,0.004799
84.806,71.3488,0.004611
84.836,71.3924,0.004611
84.867,71.4376,0.004611
84.896,71.4823,0.004611
84.928,71.5293,0.004611
84.959,71.5773,0.004611
84.989,71.6233,0.004611
85.020,71.6731,0.004611
85.051,71.7230,0.004423
85.082,71.7743,0.004423
85.113,71.8249,0.004423
85.145,71.8787,0.004423
85.176,71.9301,0.004423
85.207,71.9833,0.004423
85.238,72.0379,0.004423
85.269,72.0918,0.004423
85.300,72.1470,0.004140
85.332,72.2069,0.004140
85.362,72.2618,0.004140
85.395,72.3223,0.004140
85.424,72.3783,0.004140
85.455,72.4376,0.004140
85.487,72.4984,0.004140
85.517,72.5569,0.004140
85.548,72.6151,0.003707
85.578,72.6738,0.003707
85.610,72.7326,0.003707
85.641,72.7895,0.003707
85.673,72.8467,0.003707
85.704,72.9031,0.003707
85.735,72.9584,0.003707
85.766,73.0126,0.003707
85.797,73.0653,0.003312
85.828,73.1180,0.003312
85.858,73.1686,0.003312
85.889,73.2208,0.003312
85.920,73.2699,0.003312
85.950,73.3196,0.003312
85.981,73.3678,0.003312
86.012,73.4165,0.003312
86.043,73.4633,0.002842
86.074,73.5114,0.002842
86.106,73.5578,0.002842
86.136,73.6026,0.002842
86.168,73.6490,0.002842
86.198,73.6916,0.002842
86.230,73.7354,0.002842
86.261,73.7781,0.002842
86.293,73.8227,0.001929
86.324,73.8623,0.001929
86.355,73.9023,0.001929
86.386,73.9433,0.001929
86.418,73.9820,0.001929
86.447,74.0187,0.001929
86.478,74.0554,0.001929
86.509,74.0923,0.001929
86.539,74.1278,-0.000169
86.571,74.1637,-0.000169
86.601,74.1970,-0.000169
86.632,74.2311,-0.000169
86.663,74.2636,-0.000169
86.694,74.2967,-0.000169
86.725,74.3277,-0.000169
86.755,74.3580,-0.000169
86.786,74.3883,-0.005044
86.817,74.4177,-0.005044
86.849,74.4474,-0.005044
86.880,74.4748,-0.005044
86.911,74.5026,-0.005044
86.943,74.5293,-0.005044
86.974,74.5557,-0.005044
87.004,74.5799,-0.005044
87.034,74.6037,-0.005044
87.065,74.6269,-0.014961
87.096,74.6498,-0.014961
87.126,74.6723,-0.014961
87.157,74.6932,-0.014961
87.188,74.7142,-0.014961
87.218,74.7339,-0.014961
87.250,74.7536,-0.014961
87.280,74.7710,-0.014961
87.311,74.7892,-0.014961
87.342,74.8062,-0.029942
87.373,74.8225,-0.029942
87.404,74.8385,-0.029942
87.435,74.8537,-0.029942
87.469,74.8692,-0.029942
87.498,74.8814,-0.029942
87.529,74.8943,-0.029942
87.559,74.9061,-0.045835
87.591,74.9178,-0.045835
87.622,74.9285,-0.045835
87.654,74.9386,-0.045835
87.686,74.9479,-0.045835
87.718,74.9567,-0.045835
87.748,74.9639,-0.045835
87.780,74.9711,-0.045835
87.811,74.9771,-0.057672
87.841,74.9826,-0.057672
87.873,74.9873,-0.057672
87.904,74.9913,-0.057672
87.934,74.9946,-0.057672
87.966,74.9971,-0.057672
87.997,74.9990,-0.057672
88.028,74.9999,-0.057672
88.059,75.0003,-0.062480
88.090,75.0003,-0.062480
88.121,75.0003,-0.062480
88.153,75.0003,-0.062480
