Elapsed Time (s),Position (mm),Force (N)
-0.008,69.8003,-0.164509
0.022,69.8003,-0.164509
0.053,69.8003,-0.164509
0.085,69.8003,-0.164509
0.115,69.8003,-0.164509
0.146,69.8003,-0.148391
0.178,69.8003,-0.148391
0.209,69.8003,-0.148391
0.239,69.8003,-0.148391
0.270,69.8003,-0.148391
0.301,69.8003,-0.148391
0.332,69.8003,-0.148391
0.362,69.8003,-0.139160
0.394,69.8003,-0.139160
0.425,69.8003,-0.139160
0.457,69.8003,-0.139160
0.487,69.8003,-0.139160
0.519,69.8003,-0.139160
0.550,69.8003,-0.139160
0.581,69.8003,-0.139160
0.612,69.8003,-0.132865
0.643,69.8003,-0.132865
0.674,69.8003,-0.132865
0.706,69.8003,-0.132865
0.736,69.8003,-0.132865
0.768,69.8003,-0.132865
0.799,69.8003,-0.132865
0.831,69.8003,-0.132865
0.862,69.8003,-0.127765
0.893,69.8003,-0.127765
0.924,69.8003,-0.127765
0.955,69.8003,-0.127765
0.986,69.8003,-0.127765
1.017,69.8003,-0.127765
1.048,69.8003,-0.127765
1.078,69.8003,-0.127765
1.110,69.8003,-0.123483
1.141,69.8003,-0.123483
1.173,69.8003,-0.123483
1.204,69.8003,-0.123483
1.235,69.8003,-0.123483
1.266,69.8003,-0.123483
1.298,69.8003,-0.123483
1.328,69.8003,-0.123483
1.359,69.8003,-0.120058
1.390,69.8003,-0.120058
1.422,69.8003,-0.120058
1.453,69.8003,-0.120058
1.484,69.8003,-0.120058
1.515,69.8003,-0.120058
1.547,69.8003,-0.120058
1.578,69.8003,-0.120058
1.610,69.8003,-0.117009
1.640,69.8003,-0.117009
1.672,69.8003,-0.117009
1.703,69.8003,-0.117009
1.734,69.8003,-0.117009
1.765,69.8003,-0.117009
1.796,69.8003,-0.117009
1.827,69.8003,-0.117009
1.860,69.8003,-0.114337
1.889,69.8003,-0.114337
1.921,69.8003,-0.114337
1.951,69.8003,-0.114337
1.982,69.8003,-0.114337
2.013,69.8003,-0.114337
2.046,69.8003,-0.114337
2.075,69.8003,-0.114337
2.107,69.8003,-0.114337
2.137,69.8003,-0.112276
2.168,69.8003,-0.112276
2.199,69.8003,-0.112276
2.230,69.8003,-0.112276
2.260,69.8003,-0.112276
2.291,69.8003,-0.112276
2.323,69.8003,-0.112276
2.354,69.8003,-0.112276
2.385,69.8003,-0.110197
2.415,69.8003,-0.110197
2.446,69.8003,-0.110197
2.477,69.8003,-0.110197
2.508,69.8003,-0.110197
2.539,69.8003,-0.110197
2.570,69.8003,-0.110197
2.601,69.8003,-0.110197
2.632,69.8003,-0.108352
2.663,69.8003,-0.108352
2.695,69.8003,-0.108352
2.725,69.8003,-0.108352
2.757,69.8003,-0.108352
2.789,69.8003,-0.108352
2.820,69.8003,-0.108352
2.851,69.8003,-0.108352
2.882,69.8003,-0.106885
2.914,69.8003,-0.106885
2.945,69.8003,-0.106885
2.975,69.8003,-0.106885
3.007,69.8003,-0.106885
3.037,69.8003,-0.106885
3.068,69.8003,-0.106885
3.099,69.8003,-0.106885
3.130,69.8003,-0.105332
3.161,69.8003,-0.105332
3.192,69.8003,-0.105332
3.224,69.8003,-0.105332
3.255,69.8003,-0.105332
3.287,69.8003,-0.105332
3.318,69.8003,-0.105332
3.349,69.8003,-0.105332
3.380,69.8003,-0.104005
3.411,69.8003,-0.104005
3.443,69.8003,-0.104005
3.475,69.8003,-0.104005
3.506,69.8003,-0.104005
3.537,69.8003,-0.104005
3.568,69.8003,-0.104005
3.605,69.8003,-0.102895
3.645,69.8003,-0.102895
3.676,69.8003,-0.102895
3.708,69.8003,-0.102895
3.739,69.8003,-0.102895
3.770,69.8003,-0.102895
3.801,69.8003,-0.102895
3.831,69.8003,-0.102895
3.862,69.8003,-0.102895
3.893,69.8003,-0.101756
3.924,69.8003,-0.101756
3.955,69.8003,-0.101756
3.986,69.8003,-0.101756
4.019,69.8003,-0.101756
4.048,69.8003,-0.101756
4.080,69.8003,-0.101756
4.111,69.8003,-0.101756
4.142,69.8001,-0.100900
4.173,69.7994,-0.100900
4.204,69.7979,-0.100900
4.235,69.7957,-0.100900
4.266,69.7928,-0.100900
4.298,69.7891,-0.100900
4.329,69.7846,-0.100900
4.359,69.7798,-0.085656
4.390,69.7740,-0.085656
4.421,69.7673,-0.085656
4.452,69.7601,-0.085656
4.484,69.7518,-0.085656
4.517,69.7426,-0.085656
4.545,69.7339,-0.085656
4.576,69.7236,-0.085656
4.607,69.7130,-0.085656
4.638,69.7010,-0.029236
4.668,69.6890,-0.029236
4.699,69.6757,-0.029236
4.729,69.6626,-0.029236
4.760,69.6477,-0.029236
4.791,69.6327,-0.029236
4.828,69.6132,-0.029236
4.868,69.5915,0.016674
4.900,69.5737,0.016674
4.931,69.5554,0.016674
4.961,69.5368,0.016674
4.992,69.5169,0.016674
5.023,69.4952,0.016674
5.055,69.4741,0.016674
5.084,69.4531,0.016674
5.116,69.4296,0.016674
5.146,69.4067,0.035522
5.177,69.3822,0.035522
5.208,69.3575,0.035522
5.240,69.3306,0.035522
5.271,69.3044,0.035522
5.301,69.2783,0.035522
5.331,69.2506,0.035522
5.362,69.2219,0.064503
5.393,69.1924,0.064503
5.424,69.1633,0.064503
5.455,69.1320,0.064503
5.485,69.1014,0.064503
5.516,69.0691,0.064503
5.547,69.0359,0.064503
5.579,69.0019,0.064503
5.610,68.9676,0.064503
5.640,68.9327,0.093890
5.671,68.8968,0.093890
5.702,68.8605,0.093890
5.733,68.8231,0.093890
5.767,68.7813,0.093890
5.795,68.7462,0.093890
5.826,68.7061,0.093890
5.858,68.6655,0.125676
5.889,68.6240,0.125676
5.924,68.5775,0.125676
5.952,68.5386,0.125676
5.983,68.4952,0.125676
6.014,68.4504,0.125676
6.044,68.4079,0.125676
6.075,68.3617,0.125676
6.105,68.3183,0.125676
6.136,68.2709,0.154723
6.167,68.2232,0.154723
6.197,68.1756,0.154723
6.228,68.1277,0.154723
6.259,68.0794,0.154723
6.290,68.0266,0.154723
6.320,67.9781,0.154723
6.352,67.9245,0.154723
6.383,67.8736,0.159400
6.414,67.8186,0.159400
6.445,67.7662,0.159400
6.479,67.7060,0.159400
6.507,67.6547,0.159400
6.538,67.5986,0.159400
6.569,67.5420,0.159400
6.599,67.4856,0.159400
6.632,67.4247,0.147177
6.662,67.3658,0.147177
6.693,67.3080,0.147177
6.724,67.2459,0.147177
6.754,67.1880,0.147177
6.786,67.1258,0.147177
6.817,67.0696,0.147177
6.848,67.0112,0.147177
6.879,66.9539,0.079041
6.909,66.8991,0.079041
6.940,66.8439,0.079041
6.971,66.7896,0.079041
7.002,66.7347,0.079041
7.033,66.6807,0.079041
7.064,66.6292,0.079041
7.094,66.5775,0.079041
7.125,66.5278,0.079041
7.156,66.4777,0.012637
7.188,66.4270,0.012637
7.218,66.3776,0.012637
7.249,66.3301,0.012637
7.281,66.2817,0.012637
7.311,66.2356,0.012637
7.342,66.1891,0.012637
7.374,66.1434,0.009024
7.405,66.0988,0.009024
7.436,66.0546,0.009024
7.466,66.0111,0.009024
7.497,65.9703,0.009024
7.527,65.9291,0.009024
7.558,65.8886,0.009024
7.588,65.8490,0.009024
7.619,65.8093,0.008337
7.649,65.7714,0.008337
7.680,65.7330,0.008337
7.711,65.6965,0.008337
7.743,65.6591,0.008337
7.773,65.6237,0.008337
7.804,65.5889,0.008337
7.834,65.5546,0.008337
7.866,65.5207,0.008111
7.897,65.4866,0.008111
7.927,65.4556,0.008111
7.958,65.4236,0.008111
7.989,65.3930,0.008111
8.021,65.3611,0.008111
8.053,65.3313,0.008111
8.084,65.3027,0.008111
8.115,65.2749,0.007866
8.146,65.2479,0.007866
8.177,65.2205,0.007866
8.209,65.1945,0.007866
8.239,65.1701,0.007866
8.269,65.1462,0.007866
8.302,65.1205,0.007866
8.331,65.0999,0.007866
8.363,65.0775,0.007518
8.393,65.0562,0.007518
8.423,65.0359,0.007518
8.454,65.0159,0.007518
8.485,64.9965,0.007518
8.516,64.9780,0.007518
8.547,64.9607,0.007518
8.577,64.9439,0.007518
8.609,64.9273,0.007255
8.640,64.9115,0.007255
8.671,64.8961,0.007255
8.701,64.8822,0.007255
8.732,64.8687,0.007255
8.763,64.8561,0.007255
8.794,64.8439,0.007255
8.825,64.8329,0.007255
8.855,64.8223,0.007255
8.885,64.8130,0.006991
8.916,64.8040,0.006991
8.946,64.7955,0.006991
8.977,64.7876,0.006991
9.009,64.7804,0.006991
9.041,64.7742,0.006991
9.072,64.7686,0.006991
9.104,64.7638,0.006991
9.134,64.7597,0.006747
9.164,64.7564,0.006747
9.196,64.7538,0.006747
9.227,64.7519,0.006747
9.258,64.7508,0.006747
9.289,64.7503,0.006747
9.319,64.7503,0.006747
9.350,64.7503,0.006747
9.380,64.7503,0.006624
9.412,64.7503,0.006624
9.443,64.7503,0.006624
9.474,64.7503,0.006624
9.505,64.7503,0.006624
9.538,64.7503,0.006624
9.569,64.7503,0.006624
9.601,64.7503,0.006624
9.632,64.7503,0.006483
9.663,64.7503,0.006483
9.694,64.7503,0.006483
9.726,64.7503,0.006483
9.757,64.7503,0.006483
9.787,64.7503,0.006483
9.818,64.7503,0.006483
9.849,64.7505,0.006483
9.880,64.7515,0.006483
9.911,64.7534,0.006483
9.942,64.7557,0.006483
9.973,64.7590,0.006483
10.003,64.7627,0.006483
10.035,64.7675,0.006483
10.065,64.7727,0.006483
10.096,64.7788,0.006483
10.127,64.7855,0.006323
10.159,64.7934,0.006323
10.190,64.8015,0.006323
10.221,64.8107,0.006323
10.251,64.8200,0.006323
10.281,64.8302,0.006323
10.313,64.8416,0.006323
10.343,64.8532,0.006323
10.374,64.8661,0.006041
10.404,64.8788,0.006041
10.435,64.8928,0.006041
10.465,64.9073,0.006041
10.497,64.9230,0.006041
10.528,64.9392,0.006041
10.560,64.9565,0.006041
10.591,64.9739,0.006041
10.621,64.9921,0.005825
10.652,65.0110,0.005825
10.682,65.0306,0.005825
10.713,65.0510,0.005825
10.745,65.0729,0.005825
10.776,65.0956,0.005825
10.807,65.1176,0.005825
10.839,65.1418,0.005825
10.870,65.1661,0.005523
10.901,65.1909,0.005523
10.932,65.2166,0.005523
10.961,65.2419,0.005523
10.993,65.2699,0.005523
11.025,65.2978,0.005523
11.056,65.3276,0.005523
11.087,65.3565,0.005523
11.118,65.3871,0.005175
11.148,65.4167,0.005175
11.180,65.4492,0.005175
11.210,65.4800,0.005175
11.241,65.5131,0.005175
11.272,65.5459,0.005175
11.303,65.5811,0.005175
11.334,65.6166,0.005175
11.365,65.6516,0.004761
11.396,65.6878,0.004761
11.426,65.7242,0.004761
11.457,65.7621,0.004761
11.487,65.7999,0.004761
11.518,65.8395,0.004761
11.549,65.8790,0.004761
11.580,65.9209,0.004761
11.611,65.9624,0.004253
11.643,66.0060,0.004253
11.674,66.0491,0.004253
11.706,66.0938,0.004253
11.736,66.1377,0.004253
11.768,66.1841,0.004253
11.799,66.2295,0.004253
11.829,66.2755,0.004253
11.860,66.3236,0.003679
11.891,66.3719,0.003679
11.922,66.4195,0.003679
11.953,66.4697,0.003679
11.984,66.5198,0.003679
12.016,66.5724,0.003679
12.046,66.6228,0.003679
12.078,66.6774,0.003679
12.108,66.7285,0.003021
12.139,66.7831,0.003021
12.170,66.8377,0.003021
12.201,66.8938,0.003021
12.232,66.9481,0.003021
12.264,67.0071,0.003021
12.294,67.0631,0.003021
12.325,67.1231,0.003021
12.356,67.1805,0.002108
12.386,67.2392,0.002108
12.417,67.2992,0.002108
12.449,67.3616,0.002108
12.480,67.4199,0.002108
12.511,67.4779,0.002108
12.542,67.5336,0.002108
12.573,67.5905,0.002108
12.604,67.6461,0.002108
12.636,67.7024,0.000856
12.667,67.7557,0.000856
12.697,67.8088,0.000856
12.728,67.8612,0.000856
12.758,67.9124,0.000856
12.789,67.9635,0.000856
12.820,68.0137,0.000856
12.851,68.0643,-0.001110
12.882,68.1128,-0.001110
12.913,68.1619,-0.001110
12.944,68.2099,-0.001110
12.975,68.2556,-0.001110
13.005,68.3018,-0.001110
13.037,68.3475,-0.001110
13.068,68.3930,-0.001110
13.099,68.4382,-0.005326
13.130,68.4799,-0.005326
13.161,68.5236,-0.005326
13.192,68.5650,-0.005326
13.223,68.6068,-0.005326
13.255,68.6475,-0.005326
13.286,68.6879,-0.005326
13.318,68.7272,-0.005326
13.348,68.7648,-0.005326
13.379,68.8016,-0.015460
13.410,68.8398,-0.015460
13.441,68.8753,-0.015460
13.473,68.9119,-0.015460
13.503,68.9449,-0.015460
13.534,68.9785,-0.015460
13.565,69.0115,-0.015460
13.595,69.0437,-0.015460
13.626,69.0755,-0.036293
13.656,69.1060,-0.036293
13.688,69.1365,-0.036293
13.719,69.1656,-0.036293
13.750,69.1938,-0.036293
13.781,69.2224,-0.036293
13.812,69.2497,-0.036293
13.842,69.2759,-0.036293
13.873,69.3016,-0.067213
13.905,69.3276,-0.067213
13.936,69.3523,-0.067213
13.967,69.3764,-0.067213
13.999,69.3993,-0.067213
14.030,69.4217,-0.067213
14.061,69.4433,-0.067213
14.092,69.4640,-0.067213
14.122,69.4833,-0.101267
14.154,69.5030,-0.101267
14.185,69.5220,-0.101267
14.217,69.5403,-0.101267
14.247,69.5573,-0.101267
14.278,69.5732,-0.101267
14.309,69.5892,-0.101267
14.339,69.6036,-0.101267
14.371,69.6183,-0.135057
14.403,69.6321,-0.135057
14.432,69.6442,-0.135057
14.465,69.6570,-0.135057
14.495,69.6681,-0.135057
14.525,69.6781,-0.135057
14.556,69.6879,-0.135057
14.587,69.6972,-0.135057
14.618,69.7055,-0.186745
14.649,69.7135,-0.186745
14.681,69.7204,-0.186745
14.713,69.7268,-0.186745
14.742,69.7319,-0.186745
14.773,69.7368,-0.186745
14.803,69.7407,-0.186745
14.835,69.7442,-0.186745
14.865,69.7468,-0.255849
14.896,69.7487,-0.255849
14.926,69.7498,-0.255849
14.957,69.7503,-0.255849
14.988,69.7503,-0.255849
15.018,69.7503,-0.255849
15.049,69.7503,-0.255849
15.080,69.7503,-0.255849
15.111,69.7503,-0.260291
15.143,69.7503,-0.260291
15.173,69.7503,-0.260291
15.205,69.7503,-0.260291
15.236,69.7503,-0.260291
15.267,69.7503,-0.260291
15.297,69.7503,-0.260291
15.328,69.7503,-0.260291
15.359,69.7503,-0.199720
15.389,69.7503,-0.199720
15.420,69.7503,-0.199720
15.451,69.7503,-0.199720
15.482,69.7503,-0.199720
15.514,69.7503,-0.199720
15.545,69.7503,-0.199720
15.576,69.7503,-0.199720
15.606,69.7503,-0.159795
15.636,69.7503,-0.159795
15.667,69.7503,-0.159795
15.698,69.7503,-0.159795
15.729,69.7503,-0.159795
15.761,69.7503,-0.159795
15.792,69.7503,-0.159795
15.824,69.7503,-0.159795
15.855,69.7503,-0.145812
15.887,69.7503,-0.145812
15.918,69.7503,-0.145812
15.949,69.7503,-0.145812
15.980,69.7503,-0.145812
16.011,69.7503,-0.145812
16.042,69.7503,-0.145812
16.074,69.7503,-0.145812
16.105,69.7503,-0.137504
16.137,69.7503,-0.137504
16.168,69.7503,-0.137504
16.200,69.7503,-0.137504
16.231,69.7503,-0.137504
16.262,69.7503,-0.137504
16.293,69.7503,-0.137504
16.325,69.7503,-0.137504
16.356,69.7503,-0.131077
16.388,69.7503,-0.131077
16.418,69.7503,-0.131077
16.449,69.7503,-0.131077
16.480,69.7503,-0.131077
16.511,69.7503,-0.131077
16.542,69.7503,-0.131077
16.572,69.7503,-0.131077
16.602,69.7503,-0.126099
16.633,69.7503,-0.126099
16.664,69.7503,-0.126099
16.695,69.7503,-0.126099
16.725,69.7503,-0.126099
16.757,69.7503,-0.126099
16.789,69.7503,-0.126099
16.820,69.7503,-0.126099
16.851,69.7503,-0.122109
16.881,69.7503,-0.122109
16.912,69.7503,-0.122109
16.942,69.7503,-0.122109
16.977,69.7503,-0.122109
17.004,69.7503,-0.122109
17.035,69.7503,-0.122109
17.065,69.7503,-0.122109
17.097,69.7503,-0.118797
17.127,69.7503,-0.118797
17.157,69.7503,-0.118797
17.189,69.7503,-0.118797
17.220,69.7503,-0.118797
17.251,69.7503,-0.118797
17.283,69.7503,-0.118797
17.313,69.7503,-0.118797
17.344,69.7503,-0.118797
17.375,69.7503,-0.115711
17.406,69.7503,-0.115711
17.437,69.7503,-0.115711
17.469,69.7503,-0.115711
17.500,69.7503,-0.115711
17.531,69.7503,-0.115711
17.562,69.7503,-0.115711
17.594,69.7503,-0.113208
17.625,69.7503,-0.113208
17.656,69.7503,-0.113208
17.687,69.7503,-0.113208
17.718,69.7503,-0.113208
17.749,69.7503,-0.113208
17.780,69.7503,-0.113208
17.811,69.7503,-0.113208
17.842,69.7503,-0.110648
17.873,69.7503,-0.110648
17.906,69.7503,-0.110648
17.935,69.7503,-0.110648
17.967,69.7503,-0.110648
17.997,69.7503,-0.110648
18.029,69.7503,-0.110648
18.060,69.7503,-0.110648
18.092,69.7503,-0.110648
18.122,69.7503,-0.108484
18.153,69.7503,-0.108484
18.184,69.7503,-0.108484
18.215,69.7503,-0.108484
18.245,69.7503,-0.108484
18.281,69.7503,-0.108484
18.308,69.7503,-0.108484
18.339,69.7503,-0.108484
18.371,69.7503,-0.106988
18.400,69.7503,-0.106988
18.431,69.7503,-0.106988
18.461,69.7503,-0.106988
18.492,69.7503,-0.106988
18.523,69.7503,-0.106988
18.553,69.7503,-0.106988
18.585,69.7503,-0.106988
18.616,69.7503,-0.105483
18.647,69.7503,-0.105483
18.678,69.7503,-0.105483
18.708,69.7503,-0.105483
18.740,69.7503,-0.105483
18.771,69.7503,-0.105483
18.803,69.7503,-0.105483
18.834,69.7503,-0.104457
18.864,69.7503,-0.104457
18.895,69.7503,-0.104457
18.925,69.7503,-0.104457
18.956,69.7503,-0.104457
18.988,69.7503,-0.104457
19.018,69.7503,-0.104457
19.050,69.7503,-0.104457
19.081,69.7503,-0.104457
19.112,69.7503,-0.104457
19.142,69.7503,-0.103459
19.174,69.7503,-0.103459
19.205,69.7503,-0.103459
19.235,69.7503,-0.103459
19.266,69.7503,-0.103459
19.297,69.7503,-0.103459
19.328,69.7503,-0.103459
19.359,69.7503,-0.101700
19.390,69.7503,-0.101700
19.421,69.7503,-0.101700
19.453,69.7503,-0.101700
19.484,69.7503,-0.101700
19.517,69.7503,-0.101700
19.546,69.7503,-0.101700
19.577,69.7503,-0.101700
19.608,69.7503,-0.101700
19.639,69.7503,-0.100345
19.671,69.7503,-0.100345
19.701,69.7502,-0.100345
19.732,69.7493,-0.100345
19.763,69.7476,-0.100345
19.794,69.7453,-0.100345
19.825,69.7422,-0.100345
19.856,69.7385,-0.096252
19.888,69.7337,-0.096252
19.920,69.7285,-0.096252
19.951,69.7223,-0.096252
19.981,69.7158,-0.096252
20.012,69.7084,-0.096252
20.043,69.7002,-0.096252
20.074,69.6914,-0.096252
20.105,69.6816,-0.028587
20.135,69.6714,-0.028587
20.166,69.6604,-0.028587
20.197,69.6486,-0.028587
20.228,69.6364,-0.028587
20.259,69.6229,-0.028587
20.290,69.6091,-0.028587
20.321,69.5943,-0.028587
20.352,69.5791,0.024842
20.385,69.5618,0.024842
20.413,69.5464,0.024842
20.445,69.5283,0.024842
20.475,69.5108,0.024842
20.506,69.4914,0.024842
20.537,69.4719,0.024842
20.568,69.4516,0.024842
20.600,69.4289,0.028728
20.630,69.4081,0.028728
20.661,69.3849,0.028728
20.692,69.3618,0.028728
20.723,69.3372,0.028728
20.755,69.3130,0.028728
20.790,69.2835,0.028728
20.817,69.2605,0.028728
20.848,69.2330,0.028728
20.879,69.2057,0.057540
20.910,69.1774,0.057540
20.940,69.1483,0.057540
20.974,69.1157,0.057540
21.002,69.0879,0.057540
21.034,69.0562,0.057540
21.065,69.0229,0.057540
21.095,68.9911,0.057540
21.126,68.9586,0.057540
21.157,68.9239,0.086889
21.189,68.8878,0.086889
21.220,68.8516,0.086889
21.251,68.8159,0.086889
21.281,68.7789,0.086889
21.313,68.7409,0.086889
21.343,68.7014,0.086889
21.374,68.6635,0.117734
21.407,68.6207,0.117734
21.437,68.5814,0.117734
21.468,68.5388,0.117734
21.499,68.4980,0.117734
21.530,68.4546,0.117734
21.560,68.4118,0.117734
21.592,68.3661,0.117734
21.623,68.3204,0.145972
21.654,68.2729,0.145972
21.685,68.2260,0.145972
21.722,68.1697,0.145972
21.763,68.1064,0.145972
21.794,68.0571,0.145972
21.825,68.0068,0.145972
21.856,67.9575,0.153811
21.887,67.9048,0.153811
21.918,67.8541,0.153811
21.950,67.7978,0.153811
21.980,67.7462,0.153811
22.011,67.6926,0.153811
22.041,67.6393,0.153811
22.072,67.5841,0.153811
22.103,67.5268,0.145323
22.134,67.4690,0.145323
22.165,67.4112,0.145323
22.195,67.3544,0.145323
22.226,67.2959,0.145323
22.258,67.2334,0.145323
22.287,67.1777,0.145323
22.319,67.1138,0.145323
22.349,67.0587,0.145323
22.382,66.9962,0.086259
22.412,66.9405,0.086259
22.442,66.8858,0.086259
22.474,66.8293,0.086259
22.504,66.7743,0.086259
22.535,66.7190,0.086259
22.566,66.6650,0.086259
22.598,66.6115,0.020682
22.629,66.5584,0.020682
22.660,66.5078,0.020682
22.691,66.4568,0.020682
22.722,66.4049,0.020682
22.754,66.3551,0.020682
22.784,66.3090,0.020682
22.815,66.2600,0.020682
22.848,66.2098,0.020682
22.877,66.1653,0.020682
22.908,66.1194,0.009334
22.939,66.0755,0.009334
22.971,66.0300,0.009334
23.001,65.9874,0.009334
23.033,65.9436,0.009334
23.062,65.9036,0.009334
23.093,65.8623,0.009334
23.124,65.8206,0.008488
23.155,65.7815,0.008488
23.185,65.7431,0.008488
23.216,65.7045,0.008488
23.246,65.6679,0.008488
23.277,65.6310,0.008488
23.308,65.5948,0.008488
23.340,65.5578,0.008488
23.370,65.5241,0.008026
23.402,65.4886,0.008026
23.432,65.4561,0.008026
23.464,65.4227,0.008026
23.495,65.3904,0.008026
23.525,65.3600,0.008026
23.555,65.3298,0.008026
23.587,65.2991,0.008026
23.619,65.2693,0.008026
23.650,65.2410,0.007763
23.682,65.2128,0.007763
23.712,65.1856,0.007763
23.743,65.1603,0.007763
23.774,65.1349,0.007763
23.805,65.1096,0.007763
23.836,65.0854,0.007763
23.867,65.0618,0.007565
23.899,65.0395,0.007565
23.929,65.0174,0.007565
23.960,64.9967,0.007565
23.991,64.9758,0.007565
24.023,64.9563,0.007565
24.054,64.9372,0.007565
24.084,64.9196,0.007565
24.116,64.9012,0.007377
24.146,64.8853,0.007377
24.176,64.8695,0.007377
24.207,64.8546,0.007377
24.238,64.8397,0.007377
24.270,64.8252,0.007377
24.301,64.8123,0.007377
24.333,64.7996,0.007377
24.364,64.7879,0.007170
24.395,64.7769,0.007170
24.426,64.7667,0.007170
24.457,64.7572,0.007170
24.487,64.7485,0.007170
24.518,64.7407,0.007170
24.549,64.7333,0.007170
24.580,64.7268,0.007170
24.611,64.7209,0.007170
24.642,64.7158,0.006954
24.674,64.7112,0.006954
24.706,64.7076,0.006954
24.737,64.7046,0.006954
24.768,64.7025,0.006954
24.799,64.7010,0.006954
24.831,64.7004,0.006954
24.861,64.7003,0.006756
24.893,64.7003,0.006756
24.923,64.7003,0.006756
24.954,64.7003,0.006756
24.986,64.7003,0.006756
25.018,64.7003,0.006756
25.048,64.7003,0.006756
25.078,64.7003,0.006756
25.109,64.7003,0.006634
25.140,64.7003,0.006634
25.172,64.7003,0.006634
25.204,64.7003,0.006634
25.233,64.7003,0.006634
25.266,64.7003,0.006634
25.295,64.7003,0.006634
25.326,64.7005,0.006634
25.357,64.7015,0.006577
25.388,64.7034,0.006577
25.420,64.7059,0.006577
25.452,64.7091,0.006577
25.483,64.7131,0.006577
25.515,64.7178,0.006577
25.546,64.7234,0.006577
25.576,64.7293,0.006577
25.607,64.7361,0.006577
25.638,64.7437,0.006352
25.670,64.7521,0.006352
25.700,64.7612,0.006352
25.731,64.7709,0.006352
25.762,64.7813,0.006352
25.793,64.7927,0.006352
25.824,64.8044,0.006352
25.855,64.8171,0.006032
25.890,64.8324,0.006032
25.916,64.8443,0.006032
25.947,64.8592,0.006032
25.978,64.8746,0.006032
26.012,64.8925,0.006032
26.040,64.9077,0.006032
26.071,64.9255,0.006032
26.102,64.9440,0.005712
26.132,64.9627,0.005712
26.163,64.9828,0.005712
26.193,65.0029,0.005712
26.225,65.0246,0.005712
26.255,65.0461,0.005712
26.285,65.0680,0.005712
26.316,65.0918,0.005712
26.347,65.1161,0.005420
26.379,65.1415,0.005420
26.409,65.1665,0.005420
26.441,65.1934,0.005420
26.472,65.2206,0.005420
26.505,65.2510,0.005420
26.533,65.2763,0.005420
26.563,65.3049,0.005420
26.594,65.3344,0.005175
26.625,65.3649,0.005175
26.656,65.3974,0.005175
26.687,65.4286,0.005175
26.718,65.4619,0.005175
26.749,65.4955,0.005175
26.780,65.5298,0.005175
26.812,65.5662,0.005175
26.842,65.6008,0.005175
26.873,65.6373,0.004818
26.905,65.6754,0.004818
26.936,65.7141,0.004818
26.967,65.7533,0.004818
26.997,65.7916,0.004818
27.029,65.8321,0.004818
27.060,65.8737,0.004818
27.092,65.9163,0.004818
27.123,65.9593,0.004319
27.154,66.0023,0.004319
27.185,66.0467,0.004319
27.216,66.0916,0.004319
27.248,66.1379,0.004319
27.278,66.1823,0.004319
27.310,66.2298,0.004319
27.341,66.2799,0.004319
27.373,66.3274,0.003679
27.403,66.3747,0.003679
27.434,66.4246,0.003679
27.464,66.4741,0.003679
27.495,66.5251,0.003679
27.526,66.5771,0.003679
27.558,66.6301,0.003679
27.588,66.6828,0.003679
27.619,66.7369,0.003021
27.651,66.7938,0.003021
27.682,66.8494,0.003021
27.713,66.9061,0.003021
27.742,66.9596,0.003021
27.774,67.0183,0.003021
27.806,67.0773,0.003021
27.836,67.1379,0.003021
27.867,67.1953,0.002089
27.898,67.2560,0.002089
27.929,67.3148,0.002089
27.960,67.3730,0.002089
27.990,67.4296,0.002089
28.022,67.4882,0.002089
28.053,67.5453,0.002089
28.085,67.6024,0.002089
28.116,67.6561,0.000762
28.148,67.7132,0.000762
28.179,67.7663,0.000762
28.209,67.8185,0.000762
28.240,67.8691,0.000762
28.271,67.9208,0.000762
28.301,67.9710,0.000762
28.332,68.0198,0.000762
28.363,68.0679,0.000762
28.394,68.1170,-0.001346
28.425,68.1635,-0.001346
28.458,68.2138,-0.001346
28.488,68.2594,-0.001346
28.520,68.3052,-0.001346
28.551,68.3508,-0.001346
28.582,68.3940,-0.001346
28.612,68.4365,-0.005843
28.644,68.4799,-0.005843
28.675,68.5218,-0.005843
28.706,68.5625,-0.005843
28.737,68.6031,-0.005843
28.768,68.6435,-0.005843
28.799,68.6822,-0.005843
28.830,68.7200,-0.005843
28.859,68.7556,-0.016552
28.891,68.7927,-0.016552
28.922,68.8283,-0.016552
28.953,68.8644,-0.016552
28.984,68.8984,-0.016552
29.015,68.9326,-0.016552
29.046,68.9648,-0.016552
29.076,68.9975,-0.016552
29.108,69.0292,-0.038232
29.139,69.0606,-0.038232
29.171,69.0907,-0.038232
29.202,69.1201,-0.038232
29.233,69.1493,-0.038232
29.268,69.1805,-0.038232
29.295,69.2048,-0.038232
29.326,69.2317,-0.038232
29.357,69.2572,-0.069698
29.388,69.2821,-0.069698
29.419,69.3062,-0.069698
29.449,69.3292,-0.069698
29.480,69.3519,-0.069698
29.512,69.3744,-0.069698
29.542,69.3960,-0.069698
29.573,69.4162,-0.069698
29.603,69.4360,-0.069698
29.635,69.4550,-0.069698
29.665,69.4736,-0.103986
29.696,69.4908,-0.103986
29.727,69.5084,-0.103986
29.758,69.5248,-0.103986
29.788,69.5397,-0.103986
29.820,69.5549,-0.103986
29.849,69.5683,-0.138275
29.880,69.5822,-0.138275
29.911,69.5946,-0.138275
29.942,69.6065,-0.138275
29.972,69.6178,-0.138275
30.003,69.6285,-0.138275
30.034,69.6382,-0.138275
30.065,69.6472,-0.138275
30.096,69.6555,-0.192193
30.127,69.6633,-0.192193
30.158,69.6703,-0.192193
30.190,69.6766,-0.192193
30.221,69.6822,-0.192193
30.255,69.6875,-0.192193
30.284,69.6911,-0.192193
30.315,69.6945,-0.192193
30.346,69.6970,-0.260394
30.381,69.6989,-0.260394
30.408,69.6999,-0.260394
30.439,69.7003,-0.260394
30.470,69.7003,-0.260394
30.502,69.7003,-0.260394
30.532,69.7003,-0.260394
30.562,69.7003,-0.260394
30.594,69.7003,-0.255642
30.626,69.7003,-0.255642
30.658,69.7003,-0.255642
30.688,69.7003,-0.255642
30.719,69.7003,-0.255642
30.750,69.7003,-0.255642
30.780,69.7003,-0.255642
30.811,69.7003,-0.255642
30.843,69.7003,-0.255642
30.871,69.7003,-0.193378
30.903,69.7003,-0.193378
30.933,69.7003,-0.193378
30.965,69.7003,-0.193378
30.996,69.7003,-0.193378
31.027,69.7003,-0.193378
31.058,69.7003,-0.193378
31.089,69.7003,-0.193378
31.120,69.7003,-0.158657
31.151,69.7003,-0.158657
31.182,69.7003,-0.158657
31.213,69.7003,-0.158657
31.244,69.7003,-0.158657
31.275,69.7003,-0.158657
31.306,69.7003,-0.158657
31.336,69.7003,-0.144721
31.368,69.7003,-0.144721
31.399,69.7003,-0.144721
31.430,69.7003,-0.144721
31.461,69.7003,-0.144721
31.491,69.7003,-0.144721
31.522,69.7003,-0.144721
31.553,69.7003,-0.144721
31.583,69.7003,-0.144721
31.615,69.7003,-0.135857
31.646,69.7003,-0.135857
31.676,69.7003,-0.135857
31.708,69.7003,-0.135857
31.739,69.7003,-0.135857
31.771,69.7003,-0.135857
31.803,69.7003,-0.135857
31.834,69.7003,-0.130164
31.864,69.7003,-0.130164
31.896,69.7003,-0.130164
31.926,69.7003,-0.130164
31.956,69.7003,-0.130164
31.987,69.7003,-0.130164
32.018,69.7003,-0.130164
32.049,69.7003,-0.130164
32.080,69.7003,-0.130164
32.111,69.7003,-0.130164
32.142,69.7003,-0.125337
32.173,69.7003,-0.125337
32.203,69.7003,-0.125337
32.234,69.7003,-0.125337
32.265,69.7003,-0.125337
32.296,69.7003,-0.125337
32.328,69.7003,-0.125337
32.358,69.7003,-0.125337
32.389,69.7003,-0.120651
32.420,69.7003,-0.120651
32.451,69.7003,-0.120651
32.480,69.7003,-0.120651
32.512,69.7003,-0.120651
32.543,69.7003,-0.120651
32.574,69.7003,-0.120651
32.606,69.7003,-0.120651
32.636,69.7003,-0.117932
32.670,69.7003,-0.117932
32.699,69.7003,-0.117932
32.729,69.7003,-0.117932
32.761,69.7003,-0.117932
32.792,69.7003,-0.117932
32.822,69.7003,-0.117932
32.853,69.7003,-0.117932
32.884,69.7003,-0.115146
32.916,69.7003,-0.115146
32.946,69.7003,-0.115146
32.977,69.7003,-0.115146
33.008,69.7003,-0.115146
33.039,69.7003,-0.115146
33.070,69.7003,-0.115146
33.101,69.7003,-0.115146
33.132,69.7003,-0.111712
33.163,69.7003,-0.111712
33.194,69.7003,-0.111712
33.225,69.7003,-0.111712
33.255,69.7003,-0.111712
33.286,69.7003,-0.111712
33.317,69.7003,-0.111712
33.348,69.7003,-0.111712
33.379,69.7003,-0.110263
33.411,69.7003,-0.110263
33.442,69.7003,-0.110263
33.473,69.7003,-0.110263
33.504,69.7003,-0.110263
33.536,69.7003,-0.110263
33.567,69.7003,-0.110263
33.597,69.7003,-0.110263
33.629,69.7003,-0.108418
33.659,69.7003,-0.108418
33.690,69.7003,-0.108418
33.722,69.7003,-0.108418
33.752,69.7003,-0.108418
33.784,69.7003,-0.108418
33.815,69.7003,-0.108418
33.845,69.7003,-0.108418
33.877,69.7003,-0.105624
33.906,69.7003,-0.105624
33.938,69.7003,-0.105624
33.968,69.7003,-0.105624
33.999,69.7003,-0.105624
34.030,69.7003,-0.105624
34.061,69.7003,-0.105624
34.092,69.7003,-0.105624
34.123,69.7003,-0.105106
34.155,69.7003,-0.105106
34.185,69.7003,-0.105106
34.216,69.7003,-0.105106
34.247,69.7003,-0.105106
34.279,69.7003,-0.105106
34.309,69.7003,-0.105106
34.336,69.7003,-0.105106
34.371,69.7003,-0.105106
34.401,69.7003,-0.103742
34.432,69.7003,-0.103742
34.463,69.7003,-0.103742
34.495,69.7003,-0.103742
34.526,69.7003,-0.103742
34.556,69.7003,-0.103742
34.586,69.7003,-0.103742
34.617,69.7003,-0.103742
34.648,69.7003,-0.100956
34.678,69.7003,-0.100956
34.709,69.7003,-0.100956
34.739,69.7003,-0.100956
34.771,69.7003,-0.100956
34.802,69.7003,-0.100956
34.833,69.7003,-0.100956
34.864,69.7003,-0.100956
34.893,69.7003,-0.100044
34.927,69.7003,-0.100044
34.959,69.7003,-0.100044
34.991,69.7003,-0.100044
35.022,69.7003,-0.100044
35.053,69.7003,-0.100044
35.083,69.7003,-0.100044
35.115,69.7003,-0.100194
35.146,69.7003,-0.100194
35.177,69.7003,-0.100194
35.208,69.7003,-0.100194
35.239,69.7003,-0.100194
35.271,69.7002,-0.100194
35.300,69.6996,-0.100194
35.332,69.6981,-0.100194
35.363,69.6960,-0.099319
35.394,69.6930,-0.099319
35.424,69.6896,-0.099319
35.456,69.6850,-0.099319
35.487,69.6801,-0.099319
35.518,69.6744,-0.099319
35.548,69.6681,-0.099319
35.579,69.6609,-0.099319
35.609,69.6531,-0.099319
35.639,69.6447,-0.024173
35.670,69.6352,-0.024173
35.702,69.6251,-0.024173
35.733,69.6141,-0.024173
35.763,69.6031,-0.024173
35.795,69.5903,-0.024173
35.826,69.5774,-0.024173
35.858,69.5630,-0.024173
35.889,69.5490,0.029650
35.920,69.5330,0.029650
35.953,69.5167,0.029650
35.982,69.5009,0.029650
36.012,69.4841,0.029650
36.043,69.4659,0.029650
36.074,69.4467,0.029650
36.106,69.4268,0.021812
36.137,69.4067,0.021812
36.168,69.3857,0.021812
36.200,69.3627,0.021812
36.229,69.3416,0.021812
36.260,69.3187,0.021812
36.291,69.2943,0.021812
36.322,69.2703,0.021812
36.353,69.2446,0.049213
36.384,69.2185,0.049213
36.416,69.1911,0.049213
36.448,69.1630,0.049213
36.477,69.1353,0.049213
36.509,69.1066,0.049213
36.540,69.0765,0.049213
36.572,69.0453,0.049213
36.603,69.0131,0.078176
36.634,68.9813,0.078176
36.665,68.9485,0.078176
36.696,68.9146,0.078176
36.728,68.8798,0.078176
36.759,68.8452,0.078176
36.791,68.8092,0.078176
36.822,68.7726,0.078176
36.852,68.7361,0.107938
36.883,68.6976,0.107938
36.914,68.6596,0.107938
36.946,68.6189,0.107938
36.976,68.5801,0.107938
37.008,68.5386,0.107938
37.038,68.4986,0.107938
37.071,68.4540,0.107938
37.101,68.4123,0.138896
37.132,68.3683,0.138896
37.162,68.3254,0.138896
37.192,68.2807,0.138896
37.223,68.2360,0.138896
37.254,68.1886,0.138896
37.285,68.1419,0.138896
37.317,68.0918,0.138896
37.348,68.0440,0.138896
37.378,67.9950,0.159805
37.410,67.9456,0.159805
37.441,67.8933,0.159805
37.472,67.8421,0.159805
37.502,67.7897,0.159805
37.534,67.7363,0.159805
37.564,67.6824,0.159805
37.595,67.6292,0.159936
37.626,67.5731,0.159936
37.658,67.5169,0.159936
37.688,67.4607,0.159936
37.720,67.4034,0.159936
37.751,67.3434,0.159936
37.782,67.2852,0.159936
37.813,67.2248,0.159936
37.844,67.1656,0.139800
37.875,67.1037,0.139800
37.906,67.0461,0.139800
37.937,66.9875,0.139800
37.968,66.9296,0.139800
37.999,66.8718,0.139800
38.030,66.8147,0.139800
38.060,66.7612,0.139800
38.091,66.7065,0.139800
38.123,66.6512,0.068051
38.154,66.5969,0.068051
38.185,66.5449,0.068051
38.216,66.4919,0.068051
38.248,66.4390,0.068051
38.279,66.3889,0.068051
38.309,66.3398,0.068051
38.340,66.2911,0.010134
38.371,66.2423,0.010134
38.403,66.1929,0.010134
38.434,66.1460,0.010134
38.469,66.0932,0.010134
38.496,66.0530,0.010134
38.527,66.0097,0.010134
38.559,65.9636,0.010134
38.590,65.9209,0.010134
38.623,65.8754,0.010134
38.651,65.8373,0.008807
38.677,65.8019,0.008807
38.713,65.7550,0.008807
38.744,65.7163,0.008807
38.775,65.6766,0.008807
38.805,65.6404,0.008807
38.836,65.6022,0.008281
38.867,65.5654,0.008281
38.898,65.5291,0.008281
38.931,65.4919,0.008281
38.960,65.4596,0.008281
38.990,65.4257,0.008281
39.020,65.3942,0.008281
39.051,65.3613,0.008281
39.082,65.3303,0.008281
39.112,65.2998,0.008017
39.143,65.2693,0.008017
39.174,65.2396,0.008017
39.206,65.2097,0.008017
39.231,65.1868,0.008017
39.269,65.1535,0.008017
39.299,65.1277,0.008017
39.329,65.1024,0.008017
39.361,65.0761,0.008017
39.391,65.0524,0.007763
39.422,65.0286,0.007763
39.454,65.0048,0.007763
39.485,64.9822,0.007763
39.517,64.9598,0.007763
39.549,64.9384,0.007763
39.580,64.9187,0.007763
39.611,64.8995,0.007763
39.641,64.8809,0.007481
39.672,64.8634,0.007481
39.703,64.8459,0.007481
39.734,64.8290,0.007481
39.766,64.8134,0.007481
39.796,64.7984,0.007481
39.827,64.7841,0.007481
39.859,64.7701,0.007481
39.889,64.7577,0.007255
39.920,64.7456,0.007255
39.952,64.7340,0.007255
39.983,64.7232,0.007255
40.015,64.7132,0.007255
40.045,64.7039,0.007255
40.077,64.6953,0.007255
40.108,64.6876,0.007255
40.139,64.6806,0.007029
40.170,64.6741,0.007029
40.201,64.6687,0.007029
40.234,64.6636,0.007029
40.263,64.6599,0.007029
40.294,64.6565,0.007029
40.324,64.6540,0.007029
40.354,64.6521,0.007029
40.386,64.6508,0.006850
40.417,64.6503,0.006850
40.449,64.6503,0.006850
40.480,64.6503,0.006850
40.511,64.6503,0.006850
40.542,64.6503,0.006850
40.573,64.6503,0.006850
40.605,64.6508,0.006850
40.635,64.6521,0.006719
40.666,64.6539,0.006719
40.697,64.6565,0.006719
40.729,64.6600,0.006719
40.760,64.6642,0.006719
40.790,64.6689,0.006719
40.821,64.6744,0.006719
40.852,64.6807,0.006719
40.882,64.6875,0.006521
40.913,64.6952,0.006521
40.944,64.7038,0.006521
40.975,64.7127,0.006521
41.006,64.7231,0.006521
41.038,64.7338,0.006521
41.068,64.7452,0.006521
41.099,64.7572,0.006521
41.130,64.7700,0.006201
41.161,64.7833,0.006201
41.192,64.7980,0.006201
41.225,64.8133,0.006201
41.254,64.8283,0.006201
41.285,64.8450,0.006201
41.316,64.8619,0.006201
41.348,64.8806,0.006201
41.379,64.8989,0.006041
41.410,64.9185,0.006041
41.442,64.9390,0.006041
41.473,64.9599,0.006041
41.504,64.9822,0.006041
41.534,65.0033,0.006041
41.565,65.0267,0.006041
41.596,65.0498,0.006041
41.627,65.0748,0.005665
41.657,65.0985,0.005665
41.688,65.1257,0.005665
41.720,65.1521,0.005665
41.750,65.1785,0.005665
41.781,65.2072,0.005665
41.812,65.2353,0.005665
41.843,65.2653,0.005665
41.873,65.2947,0.005185
41.904,65.3262,0.005185
41.935,65.3571,0.005185
41.966,65.3894,0.005185
41.996,65.4214,0.005185
42.028,65.4566,0.005185
42.058,65.4897,0.005185
42.088,65.5248,0.005185
42.119,65.5606,0.004808
42.150,65.5969,0.004808
42.181,65.6349,0.004808
42.211,65.6724,0.004808
42.242,65.7102,0.004808
42.273,65.7504,0.004808
42.304,65.7905,0.004808
42.335,65.8321,0.004808
42.366,65.8726,0.004394
42.397,65.9157,0.004394
42.427,65.9570,0.004394
42.458,66.0020,0.004394
42.488,66.0452,0.004394
42.519,66.0911,0.004394
42.550,66.1361,0.004394
42.580,66.1823,0.004394
42.610,66.2279,0.003943
42.647,66.2852,0.003943
42.686,66.3480,0.003943
42.718,66.3987,0.003943
42.751,66.4537,0.003943
42.776,66.4954,0.003943
42.810,66.5518,0.003943
42.841,66.6057,0.003265
42.872,66.6588,0.003265
42.904,66.7147,0.003265
42.935,66.7710,0.003265
42.966,66.8259,0.003265
42.997,66.8826,0.003265
43.027,66.9384,0.003265
43.059,66.9996,0.003265
43.090,67.0577,0.002258
43.121,67.1164,0.002258
43.152,67.1769,0.002258
43.184,67.2374,0.002258
43.214,67.2969,0.002258
43.246,67.3554,0.002258
43.277,67.4134,0.002258
43.308,67.4686,0.002258
43.338,67.5252,0.002258
43.369,67.5795,0.000960
43.401,67.6353,0.000960
43.432,67.6886,0.000960
43.463,67.7431,0.000960
43.495,67.7954,0.000960
43.527,67.8496,0.000960
43.558,67.9000,0.000960
43.588,67.9483,-0.001092
43.619,67.9978,-0.001092
43.651,68.0473,-0.001092
43.682,68.0962,-0.001092
43.713,68.1433,-0.001092
43.745,68.1908,-0.001092
43.775,68.2351,-0.001092
43.806,68.2797,-0.001092
43.837,68.3254,-0.005467
43.869,68.3688,-0.005467
43.900,68.4126,-0.005467
43.930,68.4528,-0.005467
43.960,68.4934,-0.005467
43.991,68.5336,-0.005467
44.021,68.5736,-0.005467
44.057,68.6188,-0.005467
44.083,68.6502,-0.005467
44.114,68.6888,-0.015771
44.146,68.7256,-0.015771
44.176,68.7619,-0.015771
44.207,68.7967,-0.015771
44.238,68.8321,-0.015771
44.268,68.8651,-0.015771
44.300,68.8991,-0.015771
44.331,68.9319,-0.036782
44.362,68.9647,-0.036782
44.393,68.9957,-0.036782
44.424,69.0257,-0.036782
44.454,69.0555,-0.036782
44.486,69.0845,-0.036782
44.517,69.1132,-0.036782
44.547,69.1398,-0.036782
44.579,69.1676,-0.036782
44.610,69.1934,-0.067656
44.640,69.2185,-0.067656
44.671,69.2427,-0.067656
44.702,69.2671,-0.067656
44.733,69.2900,-0.067656
44.765,69.3135,-0.067656
44.796,69.3352,-0.067656
44.828,69.3571,-0.067656
44.858,69.3766,-0.101446
44.889,69.3961,-0.101446
44.920,69.4152,-0.101446
44.950,69.4325,-0.101446
44.981,69.4504,-0.101446
45.012,69.4666,-0.101446
45.043,69.4830,-0.101446
45.074,69.4980,-0.101446
45.105,69.5128,-0.135114
45.136,69.5267,-0.135114
45.168,69.5396,-0.135114
45.199,69.5517,-0.135114
45.229,69.5633,-0.135114
45.260,69.5742,-0.135114
45.291,69.5846,-0.135114
45.323,69.5939,-0.135114
45.354,69.6027,-0.135114
45.384,69.6105,-0.186509
45.416,69.6178,-0.186509
45.446,69.6242,-0.186509
45.477,69.6301,-0.186509
45.508,69.6352,-0.186509
45.540,69.6397,-0.186509
45.570,69.6431,-0.186509
45.601,69.6460,-0.186509
45.632,69.6481,-0.253055
45.663,69.6496,-0.253055
45.693,69.6502,-0.253055
45.724,69.6503,-0.253055
45.755,69.6503,-0.253055
45.787,69.6503,-0.253055
45.818,69.6503,-0.253055
45.849,69.6503,-0.253055
45.879,69.6503,-0.256658
45.911,69.6503,-0.256658
45.942,69.6503,-0.256658
45.973,69.6503,-0.256658
46.004,69.6503,-0.256658
46.036,69.6503,-0.256658
46.067,69.6503,-0.256658
46.099,69.6503,-0.256658
46.130,69.6503,-0.199805
46.161,69.6503,-0.199805
46.192,69.6503,-0.199805
46.223,69.6503,-0.199805
46.254,69.6503,-0.199805
46.285,69.6503,-0.199805
46.316,69.6503,-0.199805
46.347,69.6503,-0.199805
46.378,69.6503,-0.162119
46.408,69.6503,-0.162119
46.439,69.6503,-0.162119
46.470,69.6503,-0.162119
46.501,69.6503,-0.162119
46.532,69.6503,-0.162119
46.563,69.6503,-0.162119
46.595,69.6503,-0.162119
46.625,69.6503,-0.147224
46.656,69.6503,-0.147224
46.687,69.6503,-0.147224
46.719,69.6503,-0.147224
46.750,69.6503,-0.147224
46.780,69.6503,-0.147224
46.811,69.6503,-0.147224
46.843,69.6503,-0.147224
46.873,69.6503,-0.138068
46.904,69.6503,-0.138068
46.935,69.6503,-0.138068
46.967,69.6503,-0.138068
46.999,69.6503,-0.138068
47.028,69.6503,-0.138068
47.059,69.6503,-0.138068
47.090,69.6503,-0.138068
47.121,69.6503,-0.131463
47.152,69.6503,-0.131463
47.183,69.6503,-0.131463
47.214,69.6503,-0.131463
47.245,69.6503,-0.131463
47.275,69.6503,-0.131463
47.306,69.6503,-0.131463
47.338,69.6503,-0.131463
47.369,69.6503,-0.126306
47.401,69.6503,-0.126306
47.431,69.6503,-0.126306
47.462,69.6503,-0.126306
47.493,69.6503,-0.126306
47.525,69.6503,-0.126306
47.556,69.6503,-0.126306
47.588,69.6503,-0.126306
47.619,69.6503,-0.122128
47.650,69.6503,-0.122128
47.681,69.6503,-0.122128
47.713,69.6503,-0.122128
47.744,69.6503,-0.122128
47.775,69.6503,-0.122128
47.806,69.6503,-0.122128
47.837,69.6503,-0.122128
47.868,69.6503,-0.118618
47.898,69.6503,-0.118618
47.930,69.6503,-0.118618
47.961,69.6503,-0.118618
47.992,69.6503,-0.118618
48.023,69.6503,-0.118618
48.054,69.6503,-0.118618
48.085,69.6503,-0.118618
48.116,69.6503,-0.115636
48.148,69.6503,-0.115636
48.180,69.6503,-0.115636
48.211,69.6503,-0.115636
48.242,69.6503,-0.115636
48.273,69.6503,-0.115636
48.304,69.6503,-0.115636
48.335,69.6503,-0.113086
48.366,69.6503,-0.113086
48.397,69.6503,-0.113086
48.425,69.6503,-0.113086
48.459,69.6503,-0.113086
48.490,69.6503,-0.113086
48.520,69.6503,-0.113086
48.551,69.6503,-0.113086
48.583,69.6503,-0.110903
48.614,69.6503,-0.110903
48.646,69.6503,-0.110903
48.676,69.6503,-0.110903
48.707,69.6503,-0.110903
48.739,69.6503,-0.110903
48.769,69.6503,-0.110903
48.800,69.6503,-0.110903
48.830,69.6503,-0.110903
48.860,69.6503,-0.108983
48.892,69.6503,-0.108983
48.924,69.6503,-0.108983
48.954,69.6503,-0.108983
48.987,69.6503,-0.108983
49.016,69.6503,-0.108983
49.047,69.6503,-0.108983
49.079,69.6503,-0.108983
49.109,69.6503,-0.107045
49.141,69.6503,-0.107045
49.172,69.6503,-0.107045
49.203,69.6503,-0.107045
49.234,69.6503,-0.107045
49.265,69.6503,-0.107045
49.297,69.6503,-0.107045
49.328,69.6503,-0.107045
49.359,69.6503,-0.105972
49.390,69.6503,-0.105972
49.421,69.6503,-0.105972
49.453,69.6503,-0.105972
49.483,69.6503,-0.105972
49.515,69.6503,-0.105972
49.548,69.6503,-0.105972
49.578,69.6503,-0.105972
49.608,69.6503,-0.104786
49.640,69.6503,-0.104786
49.672,69.6503,-0.104786
49.703,69.6503,-0.104786
49.735,69.6503,-0.104786
49.767,69.6503,-0.104786
49.800,69.6503,-0.104786
49.832,69.6503,-0.103375
49.863,69.6503,-0.103375
49.895,69.6503,-0.103375
49.926,69.6503,-0.103375
49.956,69.6503,-0.103375
49.987,69.6502,-0.103375
50.018,69.6496,-0.103375
50.049,69.6482,-0.103375
50.080,69.6461,-0.103375
50.112,69.6431,-0.103375
50.142,69.6397,-0.102566
50.174,69.6352,-0.102566
50.204,69.6302,-0.102566
50.234,69.6245,-0.102566
50.264,69.6182,-0.102566
50.295,69.6113,-0.102566
50.326,69.6033,-0.102566
50.357,69.5946,-0.102566
50.389,69.5851,-0.019591
50.419,69.5749,-0.019591
50.450,69.5645,-0.019591
50.481,69.5526,-0.019591
50.512,69.5407,-0.019591
50.542,69.5275,-0.019591
50.573,69.5145,-0.019591
50.603,69.5000,-0.019591
50.634,69.4855,0.036604
50.665,69.4691,0.036604
50.695,69.4530,0.036604
50.727,69.4351,0.036604
50.758,69.4177,0.036604
50.789,69.3984,0.036604
50.820,69.3791,0.036604
50.852,69.3576,0.036604
50.883,69.3370,0.023505
50.915,69.3143,0.023505
50.944,69.2936,0.023505
50.976,69.2693,0.023505
51.007,69.2459,0.023505
51.038,69.2212,0.023505
51.069,69.1958,0.023505
51.100,69.1699,0.023505
51.131,69.1428,0.023505
51.162,69.1158,0.051264
51.194,69.0871,0.051264
51.224,69.0576,0.051264
51.256,69.0282,0.051264
51.287,68.9975,0.051264
51.318,68.9658,0.051264
51.349,68.9336,0.051264
51.381,68.9010,0.080697
51.412,68.8666,0.080697
51.443,68.8331,0.080697
51.474,68.7975,0.080697
51.505,68.7626,0.080697
51.537,68.7244,0.080697
51.568,68.6885,0.080697
51.598,68.6503,0.080697
51.629,68.6132,0.111928
51.659,68.5749,0.111928
51.691,68.5346,0.111928
51.722,68.4928,0.111928
51.753,68.4506,0.111928
51.784,68.4090,0.111928
51.816,68.3642,0.111928
51.847,68.3214,0.111928
51.878,68.2763,0.144853
51.910,68.2314,0.144853
51.941,68.1835,0.144853
51.973,68.1375,0.144853
52.004,68.0881,0.144853
52.036,68.0399,0.144853
52.066,67.9916,0.144853
52.097,67.9435,0.167219
52.127,67.8951,0.167219
52.158,67.8439,0.167219
52.189,67.7931,0.167219
52.220,67.7401,0.167219
52.251,67.6868,0.167219
52.282,67.6320,0.167219
52.313,67.5785,0.167219
52.344,67.5228,0.161856
52.375,67.4678,0.161856
52.406,67.4115,0.161856
52.437,67.3542,0.161856
52.468,67.2959,0.161856
52.498,67.2377,0.161856
52.529,67.1777,0.161856
52.560,67.1180,0.161856
52.591,67.0580,0.128292
52.622,66.9971,0.128292
52.653,66.9400,0.128292
52.684,66.8829,0.128292
52.715,66.8244,0.128292
52.746,66.7675,0.128292
52.778,66.7089,0.128292
52.806,66.6604,0.128292
52.841,66.5997,0.058387
52.872,66.5468,0.058387
52.903,66.4931,0.058387
52.934,66.4407,0.058387
52.964,66.3911,0.058387
52.995,66.3404,0.058387
53.026,66.2898,0.058387
53.057,66.2412,0.058387
53.088,66.1923,0.009927
53.118,66.1463,0.009927
53.150,66.0974,0.009927
53.181,66.0525,0.009927
53.212,66.0060,0.009927
53.243,65.9615,0.009927
53.275,65.9162,0.009927
53.307,65.8695,0.009927
53.333,65.8349,0.009927
53.369,65.7866,0.009927
53.399,65.7453,0.008751
53.431,65.7054,0.008751
53.461,65.6638,0.008751
53.492,65.6274,0.008751
53.517,65.5957,0.008751
53.553,65.5518,0.008751
53.584,65.5150,0.008751
53.616,65.4776,0.008224
53.647,65.4421,0.008224
53.679,65.4074,0.008224
53.709,65.3741,0.008224
53.740,65.3411,0.008224
53.770,65.3099,0.008224
53.801,65.2787,0.008224
53.833,65.2460,0.008224
53.863,65.2169,0.008224
53.890,65.1914,0.007932
53.926,65.1571,0.007932
53.957,65.1292,0.007932
53.988,65.1018,0.007932
54.019,65.0751,0.007932
54.050,65.0493,0.007932
54.082,65.0235,0.007932
54.112,64.9999,0.007782
54.146,64.9730,0.007782
54.173,64.9536,0.007782
54.204,64.9309,0.007782
54.235,64.9098,0.007782
54.267,64.8882,0.007782
54.297,64.8692,0.007782
54.329,64.8488,0.007782
54.360,64.8304,0.007500
54.390,64.8123,0.007500
54.421,64.7954,0.007500
54.447,64.7817,0.007500
54.483,64.7637,0.007500
54.514,64.7483,0.007500
54.545,64.7340,0.007500
54.583,64.7174,0.007500
54.621,64.7018,0.007227
54.653,64.6898,0.007227
54.685,64.6782,0.007227
54.715,64.6684,0.007227
54.746,64.6589,0.007227
54.776,64.6502,0.007227
54.808,64.6419,0.007227
54.839,64.6344,0.007227
54.871,64.6276,0.007048
54.902,64.6215,0.007048
54.933,64.6163,0.007048
54.965,64.6119,0.007048
54.996,64.6081,0.007048
55.028,64.6050,0.007048
55.058,64.6028,0.007048
55.088,64.6013,0.007048
55.120,64.6005,0.006897
55.151,64.6003,0.006897
55.182,64.6003,0.006897
55.214,64.6003,0.006897
55.245,64.6003,0.006897
55.276,64.6003,0.006897
55.307,64.6003,0.006897
55.338,64.6003,0.006897
55.368,64.6003,0.006794
55.400,64.6003,0.006794
55.430,64.6003,0.006794
55.460,64.6003,0.006794
55.492,64.6003,0.006794
55.524,64.6003,0.006794
55.554,64.6003,0.006794
55.585,64.6003,0.006794
55.616,64.6003,0.006737
55.647,64.6008,0.006737
55.678,64.6021,0.006737
55.708,64.6039,0.006737
55.740,64.6067,0.006737
55.771,64.6100,0.006737
55.802,64.6141,0.006737
55.835,64.6193,0.006737
55.865,64.6246,0.006530
55.897,64.6312,0.006530
55.927,64.6379,0.006530
55.958,64.6459,0.006530
55.988,64.6543,0.006530
56.013,64.6615,0.006530
56.051,64.6740,0.006530
56.082,64.6841,0.006530
56.113,64.6957,0.006210
56.144,64.7077,0.006210
56.175,64.7208,0.006210
56.205,64.7339,0.006210
56.237,64.7489,0.006210
56.269,64.7644,0.006210
56.301,64.7807,0.006210
56.332,64.7973,0.006210
56.363,64.8148,0.005947
56.394,64.8324,0.005947
56.425,64.8511,0.005947
56.456,64.8706,0.005947
56.488,64.8910,0.005947
56.519,64.9129,0.005947
56.549,64.9335,0.005947
56.581,64.9567,0.005947
56.612,64.9794,0.005646
56.643,65.0039,0.005646
56.674,65.0288,0.005646
56.705,65.0529,0.005646
56.736,65.0796,0.005646
56.767,65.1064,0.005646
56.799,65.1352,0.005646
56.830,65.1630,0.005646
56.861,65.1927,0.005335
56.892,65.2218,0.005335
56.923,65.2520,0.005335
56.954,65.2831,0.005335
56.987,65.3174,0.005335
57.018,65.3493,0.005335
57.049,65.3830,0.005335
57.080,65.4165,0.005335
57.110,65.4508,0.004959
57.141,65.4872,0.004959
57.169,65.5189,0.004959
57.203,65.5590,0.004959
57.233,65.5969,0.004959
57.264,65.6349,0.004959
57.294,65.6731,0.004959
57.326,65.7131,0.004959
57.357,65.7539,0.004564
57.388,65.7952,0.004564
57.418,65.8359,0.004564
57.449,65.8790,0.004564
57.480,65.9225,0.004564
57.511,65.9678,0.004564
57.543,66.0130,0.004564
57.574,66.0590,0.004564
57.610,66.1134,0.004037
57.651,66.1752,0.004037
57.681,66.2216,0.004037
57.712,66.2706,0.004037
57.743,66.3198,0.004037
57.774,66.3721,0.004037
57.810,66.4307,0.004037
57.852,66.5010,0.003237
57.882,66.5517,0.003237
57.914,66.6080,0.003237
57.944,66.6610,0.003237
57.976,66.7172,0.003237
58.006,66.7722,0.003237
58.038,66.8306,0.003237
58.069,66.8858,0.003237
58.099,66.9441,0.002315
58.130,67.0027,0.002315
58.161,67.0610,0.002315
58.192,67.1219,0.002315
58.223,67.1815,0.002315
58.251,67.2355,0.002315
58.285,67.2978,0.002315
58.316,67.3571,0.002315
58.347,67.4123,0.002315
58.378,67.4694,0.001157
58.410,67.5244,0.001157
58.440,67.5786,0.001157
58.471,67.6338,0.001157
58.503,67.6872,0.001157
58.534,67.7391,0.001157
58.565,67.7911,0.001157
58.596,67.8417,0.001157
58.626,67.8913,0.001157
58.657,67.9408,-0.000734
58.688,67.9888,-0.000734
58.719,68.0368,-0.000734
58.750,68.0844,-0.000734
58.780,68.1294,-0.000734
58.810,68.1746,-0.000734
58.841,68.2185,-0.000734
58.872,68.2641,-0.004630
58.903,68.3079,-0.004630
58.934,68.3499,-0.004630
58.965,68.3933,-0.004630
58.996,68.4350,-0.004630
59.026,68.4752,-0.004630
59.060,68.5167,-0.004630
59.089,68.5546,-0.004630
59.120,68.5931,-0.004630
59.151,68.6320,-0.013832
59.182,68.6683,-0.013832
59.213,68.7054,-0.013832
59.243,68.7400,-0.013832
59.274,68.7741,-0.013832
59.305,68.8092,-0.013832
59.335,68.8417,-0.013832
59.368,68.8762,-0.033160
59.399,68.9080,-0.033160
59.430,68.9404,-0.033160
59.461,68.9701,-0.033160
59.491,68.9994,-0.033160
59.523,69.0298,-0.033160
59.555,69.0584,-0.033160
59.587,69.0871,-0.033160
59.615,69.1121,-0.033160
59.647,69.1387,-0.063167
59.677,69.1634,-0.063167
59.709,69.1891,-0.063167
59.740,69.2131,-0.063167
59.770,69.2362,-0.063167
59.801,69.2587,-0.063167
59.832,69.2804,-0.063167
59.863,69.3019,-0.063167
59.892,69.3209,-0.097230
59.925,69.3420,-0.097230
59.955,69.3607,-0.097230
59.987,69.3792,-0.097230
60.019,69.3972,-0.097230
60.048,69.4134,-0.097230
60.079,69.4297,-0.097230
60.110,69.4448,-0.130682
60.141,69.4596,-0.130682
60.172,69.4732,-0.130682
60.202,69.4865,-0.130682
60.234,69.4990,-0.130682
60.265,69.5112,-0.130682
60.298,69.5223,-0.130682
60.329,69.5329,-0.130682
60.360,69.5423,-0.178144
60.391,69.5514,-0.178144
60.422,69.5594,-0.178144
60.454,69.5669,-0.178144
60.485,69.5736,-0.178144
60.516,69.5794,-0.178144
60.546,69.5843,-0.178144
60.577,69.5888,-0.178144
60.609,69.5927,-0.246261
60.640,69.5956,-0.246261
60.671,69.5979,-0.246261
60.702,69.5995,-0.246261
60.732,69.6002,-0.246261
60.763,69.6003,-0.246261
60.794,69.6003,-0.246261
60.825,69.6003,-0.246261
60.856,69.6003,-0.265664
60.887,69.6003,-0.265664
60.918,69.6003,-0.265664
60.950,69.6003,-0.265664
60.981,69.6003,-0.265664
61.014,69.6003,-0.265664
61.043,69.6003,-0.265664
61.074,69.6003,-0.265664
61.105,69.6003,-0.212960
61.136,69.6003,-0.212960
61.166,69.6003,-0.212960
61.197,69.6003,-0.212960
61.228,69.6003,-0.212960
61.259,69.6003,-0.212960
61.290,69.6003,-0.212960
61.321,69.6003,-0.212960
61.351,69.6003,-0.166805
61.383,69.6003,-0.166805
61.414,69.6003,-0.166805
61.445,69.6003,-0.166805
61.476,69.6003,-0.166805
61.506,69.6003,-0.166805
61.537,69.6003,-0.166805
61.570,69.6003,-0.166805
61.599,69.6003,-0.149369
61.630,69.6003,-0.149369
61.660,69.6003,-0.149369
61.691,69.6003,-0.149369
61.723,69.6003,-0.149369
61.754,69.6003,-0.149369
61.786,69.6003,-0.149369
61.817,69.6003,-0.149369
61.848,69.6003,-0.139640
61.880,69.6003,-0.139640
61.910,69.6003,-0.139640
61.942,69.6003,-0.139640
61.973,69.6003,-0.139640
62.005,69.6003,-0.139640
62.035,69.6003,-0.139640
62.066,69.6003,-0.139640
62.098,69.6003,-0.132780
62.130,69.6003,-0.132780
62.159,69.6003,-0.132780
62.192,69.6003,-0.132780
62.222,69.6003,-0.132780
62.254,69.6003,-0.132780
62.284,69.6003,-0.132780
62.315,69.6003,-0.132780
62.346,69.6003,-0.127247
62.376,69.6003,-0.127247
62.407,69.6003,-0.127247
62.439,69.6003,-0.127247
62.469,69.6003,-0.127247
62.499,69.6003,-0.127247
62.530,69.6003,-0.127247
62.562,69.6003,-0.127247
62.592,69.6003,-0.127247
62.623,69.6003,-0.123267
62.654,69.6003,-0.123267
62.686,69.6003,-0.123267
62.716,69.6003,-0.123267
62.747,69.6003,-0.123267
62.777,69.6003,-0.123267
62.808,69.6003,-0.123267
62.839,69.6003,-0.119729
62.871,69.6003,-0.119729
62.902,69.6003,-0.119729
62.932,69.6003,-0.119729
62.963,69.6003,-0.119729
62.994,69.6003,-0.119729
63.026,69.6003,-0.119729
63.057,69.6003,-0.119729
63.088,69.6003,-0.119729
63.120,69.6003,-0.119729
63.150,69.6003,-0.116727
63.181,69.6003,-0.116727
63.212,69.6003,-0.116727
63.243,69.6003,-0.116727
63.275,69.6003,-0.116727
63.306,69.6003,-0.116727
63.337,69.6003,-0.116727
63.368,69.6003,-0.114139
63.400,69.6003,-0.114139
63.431,69.6003,-0.114139
63.463,69.6003,-0.114139
63.494,69.6003,-0.114139
63.525,69.6003,-0.114139
63.556,69.6003,-0.114139
63.588,69.6003,-0.114139
63.619,69.6003,-0.111749
63.649,69.6003,-0.111749
63.681,69.6003,-0.111749
63.712,69.6003,-0.111749
63.743,69.6003,-0.111749
63.774,69.6003,-0.111749
63.805,69.6003,-0.111749
63.837,69.6003,-0.111749
63.867,69.6003,-0.109548
63.898,69.6003,-0.109548
63.929,69.6003,-0.109548
63.959,69.6003,-0.109548
63.991,69.6003,-0.109548
64.022,69.6003,-0.109548
64.053,69.6003,-0.109548
64.084,69.6003,-0.107938
64.116,69.6003,-0.107938
64.147,69.6003,-0.107938
64.178,69.6003,-0.107938
64.210,69.6003,-0.107938
64.238,69.6003,-0.107938
64.270,69.6003,-0.107938
64.301,69.6003,-0.107938
64.333,69.6003,-0.106489
64.364,69.6003,-0.106489
64.396,69.6003,-0.106489
64.427,69.6003,-0.106489
64.458,69.6003,-0.106489
64.489,69.6003,-0.106489
64.520,69.6003,-0.106489
64.552,69.6003,-0.106489
64.583,69.6003,-0.106489
64.614,69.6003,-0.104956
64.644,69.6003,-0.104956
64.675,69.6003,-0.104956
64.710,69.6003,-0.104956
64.737,69.6003,-0.104956
64.762,69.6003,-0.104956
64.800,69.6003,-0.104956
64.831,69.6003,-0.104956
64.862,69.6003,-0.103582
64.893,69.6003,-0.103582
64.923,69.6003,-0.103582
64.954,69.6003,-0.103582
64.985,69.6003,-0.103582
65.016,69.6003,-0.103582
65.047,69.6003,-0.103582
65.078,69.6003,-0.103582
65.109,69.6003,-0.102274
65.140,69.6003,-0.102274
65.171,69.6003,-0.102274
65.201,69.6003,-0.102274
65.232,69.6003,-0.102274
65.263,69.6003,-0.102274
65.294,69.6003,-0.102274
65.325,69.6003,-0.102274
65.356,69.6003,-0.102274
65.387,69.6003,-0.101154
65.422,69.6003,-0.101154
65.449,69.6003,-0.101154
65.480,69.6003,-0.101154
65.511,69.6003,-0.101154
65.541,69.6003,-0.101154
65.572,69.6003,-0.101154
65.603,69.6003,-0.101154
65.634,69.6003,-0.100138
65.665,69.6003,-0.100138
65.696,69.6003,-0.100138
65.726,69.6003,-0.100138
65.757,69.6003,-0.100138
65.793,69.6003,-0.100138
65.820,69.6003,-0.100138
65.852,69.6003,-0.099385
65.883,69.6003,-0.099385
65.913,69.6002,-0.099385
65.944,69.5993,-0.099385
65.975,69.5977,-0.099385
66.006,69.5955,-0.099385
66.037,69.5924,-0.099385
66.068,69.5886,-0.099385
66.100,69.5841,-0.099385
66.131,69.5789,-0.092431
66.162,69.5731,-0.092431
66.191,69.5666,-0.092431
66.223,69.5592,-0.092431
66.253,69.5514,-0.092431
66.284,69.5424,-0.092431
66.315,69.5329,-0.092431
66.347,69.5223,-0.092431
66.378,69.5115,-0.092431
66.409,69.4995,-0.031457
66.440,69.4872,-0.031457
66.471,69.4740,-0.031457
66.501,69.4603,-0.031457
66.532,69.4454,-0.031457
66.563,69.4301,-0.031457
66.594,69.4143,-0.031457
66.625,69.3976,0.021840
66.655,69.3802,0.021840
66.686,69.3618,0.021840
66.718,69.3429,0.021840
66.748,69.3234,0.021840
66.779,69.3033,0.021840
66.810,69.2818,0.021840
66.844,69.2575,0.021840
66.872,69.2372,0.034872
66.903,69.2140,0.034872
66.933,69.1908,0.034872
66.965,69.1649,0.034872
66.996,69.1401,0.034872
67.028,69.1122,0.034872
67.058,69.0860,0.034872
67.089,69.0585,0.034872
67.120,69.0303,0.063562
67.151,69.0008,0.063562
67.182,68.9714,0.063562
67.213,68.9407,0.063562
67.244,68.9100,0.063562
67.276,68.8768,0.063562
67.306,68.8443,0.063562
67.338,68.8099,0.063562
67.369,68.7761,0.092949
67.399,68.7412,0.092949
67.430,68.7065,0.092949
67.461,68.6689,0.092949
67.492,68.6326,0.092949
67.523,68.5945,0.092949
67.555,68.5557,0.092949
67.586,68.5155,0.092949
67.616,68.4756,0.092949
67.647,68.4364,0.125045
67.678,68.3940,0.125045
67.709,68.3518,0.125045
67.741,68.3069,0.125045
67.772,68.2645,0.125045
67.804,68.2179,0.125045
67.835,68.1726,0.125045
67.866,68.1256,0.156003
67.897,68.0801,0.156003
67.929,68.0312,0.156003
67.959,67.9834,0.156003
67.987,67.9403,0.156003
68.022,67.8858,0.156003
68.052,67.8355,0.156003
68.083,67.7835,0.156003
68.114,67.7319,0.163625
68.146,67.6793,0.163625
68.177,67.6265,0.163625
68.208,67.5721,0.163625
68.239,67.5155,0.163625
68.271,67.4601,0.163625
68.301,67.4050,0.163625
68.332,67.3491,0.163625
68.363,67.2908,0.163625
68.394,67.2334,0.150423
68.425,67.1739,0.150423
68.455,67.1157,0.150423
68.486,67.0539,0.150423
68.518,66.9931,0.150423
68.548,66.9352,0.150423
68.579,66.8758,0.150423
68.610,66.8191,0.081130
68.642,66.7614,0.081130
68.673,66.7049,0.081130
68.704,66.6481,0.081130
68.735,66.5934,0.081130
68.765,66.5409,0.081130
68.796,66.4871,0.081130
68.827,66.4351,0.081130
68.858,66.3818,0.014434
68.890,66.3307,0.014434
68.921,66.2794,0.014434
68.952,66.2310,0.014434
68.983,66.1806,0.014434
69.013,66.1345,0.014434
69.044,66.0864,0.014434
69.075,66.0405,0.014434
69.106,65.9929,0.009381
69.138,65.9477,0.009381
69.169,65.9008,0.009381
69.201,65.8574,0.009381
69.232,65.8124,0.009381
69.263,65.7709,0.009381
69.293,65.7291,0.009381
69.324,65.6886,0.009381
69.356,65.6482,0.009381
69.386,65.6084,0.008572
69.418,65.5695,0.008572
69.449,65.5305,0.008572
69.480,65.4942,0.008572
69.511,65.4576,0.008572
69.542,65.4212,0.008572
69.573,65.3850,0.008572
69.604,65.3514,0.008102
69.636,65.3167,0.008102
69.667,65.2835,0.008102
69.698,65.2507,0.008102
69.729,65.2198,0.008102
69.760,65.1887,0.008102
69.790,65.1594,0.008102
69.824,65.1266,0.008102
69.852,65.1010,0.007782
69.883,65.0735,0.007782
69.913,65.0472,0.007782
69.944,65.0207,0.007782
69.975,64.9951,0.007782
70.007,64.9693,0.007782
70.037,64.9455,0.007782
70.068,64.9217,0.007782
70.098,64.8997,0.007782
70.129,64.8774,0.007584
70.159,64.8566,0.007584
70.191,64.8352,0.007584
70.222,64.8156,0.007584
70.253,64.7957,0.007584
70.284,64.7776,0.007584
70.315,64.7600,0.007584
70.344,64.7440,0.007415
70.375,64.7271,0.007415
70.406,64.7116,0.007415
70.437,64.6962,0.007415
70.469,64.6818,0.007415
70.499,64.6685,0.007415
70.530,64.6563,0.007415
70.560,64.6444,0.007415
70.592,64.6330,0.007415
70.623,64.6223,0.007264
70.654,64.6124,0.007264
70.685,64.6033,0.007264
70.716,64.5949,0.007264
70.747,64.5871,0.007264
70.779,64.5799,0.007264
70.809,64.5739,0.007264
70.840,64.5685,0.007264
70.872,64.5635,0.007067
70.904,64.5594,0.007067
70.935,64.5562,0.007067
70.967,64.5536,0.007067
70.997,64.5518,0.007067
71.030,64.5507,0.007067
71.060,64.5504,0.007067
71.091,64.5504,0.007067
71.122,64.5504,0.006822
71.153,64.5504,0.006822
71.188,64.5504,0.006822
71.216,64.5504,0.006822
71.246,64.5504,0.006822
71.278,64.5504,0.006822
71.309,64.5504,0.006822
71.341,64.5504,0.006822
71.372,64.5504,0.006681
71.402,64.5504,0.006681
71.434,64.5504,0.006681
71.465,64.5504,0.006681
71.497,64.5504,0.006681
71.528,64.5504,0.006681
71.560,64.5504,0.006681
71.591,64.5505,0.006681
71.622,64.5511,0.006681
71.655,64.5527,0.006681
71.685,64.5547,0.006681
71.715,64.5575,0.006681
71.746,64.5613,0.006681
71.778,64.5657,0.006681
71.808,64.5707,0.006681
71.839,64.5763,0.006681
71.870,64.5831,0.006681
71.901,64.5902,0.006549
71.932,64.5982,0.006549
71.963,64.6067,0.006549
71.995,64.6166,0.006549
72.025,64.6264,0.006549
72.056,64.6372,0.006549
72.086,64.6485,0.006549
72.118,64.6611,0.006248
72.149,64.6745,0.006248
72.180,64.6878,0.006248
72.210,64.7023,0.006248
72.242,64.7177,0.006248
72.272,64.7330,0.006248
72.302,64.7494,0.006248
72.333,64.7668,0.006248
72.364,64.7848,0.005966
72.395,64.8041,0.005966
72.426,64.8231,0.005966
72.457,64.8437,0.005966
72.488,64.8651,0.005966
72.520,64.8867,0.005966
72.551,64.9098,0.005966
72.587,64.9366,0.005966
72.613,64.9564,0.005646
72.644,64.9812,0.005646
72.675,65.0064,0.005646
72.706,65.0335,0.005646
72.737,65.0600,0.005646
72.768,65.0876,0.005646
72.800,65.1163,0.005646
72.829,65.1439,0.005646
72.862,65.1749,0.005251
72.892,65.2052,0.005251
72.923,65.2365,0.005251
72.954,65.2691,0.005251
72.985,65.3009,0.005251
73.016,65.3344,0.005251
73.047,65.3679,0.005251
73.078,65.4031,0.005251
73.108,65.4379,0.004893
73.138,65.4731,0.004893
73.170,65.5109,0.004893
73.202,65.5497,0.004893
73.233,65.5883,0.004893
73.264,65.6286,0.004893
73.295,65.6671,0.004893
73.326,65.7086,0.004893
73.357,65.7498,0.004893
73.388,65.7923,0.004460
73.419,65.8344,0.004460
73.450,65.8786,0.004460
73.481,65.9221,0.004460
73.511,65.9672,0.004460
73.542,66.0110,0.004460
73.573,66.0598,0.004460
73.604,66.1057,0.003867
73.636,66.1552,0.003867
73.665,66.2012,0.003867
73.697,66.2520,0.003867
73.728,66.3019,0.003867
73.764,66.3617,0.003867
73.790,66.4049,0.003867
73.820,66.4556,0.003867
73.851,66.5078,0.003143
73.883,66.5635,0.003143
73.913,66.6160,0.003143
73.944,66.6731,0.003143
73.976,66.7286,0.003143
74.007,66.7861,0.003143
74.037,66.8413,0.003143
74.068,66.8994,0.003143
74.098,66.9562,0.002164
74.129,67.0162,0.002164
74.160,67.0760,0.002164
74.190,67.1340,0.002164
74.221,67.1921,0.002164
74.252,67.2517,0.002164
74.283,67.3078,0.002164
74.313,67.3643,0.002164
74.344,67.4200,0.000837
74.375,67.4746,0.000837
74.406,67.5305,0.000837
74.438,67.5850,0.000837
74.469,67.6384,0.000837
74.500,67.6893,0.000837
74.530,67.7402,0.000837
74.560,67.7900,0.000837
74.591,67.8404,0.000837
74.622,67.8887,-0.001195
74.653,67.9372,-0.001195
74.683,67.9847,-0.001195
74.715,68.0336,-0.001195
74.746,68.0809,-0.001195
74.778,68.1274,-0.001195
74.810,68.1738,-0.001195
74.840,68.2172,-0.001195
74.872,68.2620,-0.005392
74.903,68.3057,-0.005392
74.934,68.3466,-0.005392
74.965,68.3900,-0.005392
74.997,68.4301,-0.005392
75.028,68.4702,-0.005392
75.058,68.5081,-0.005392
75.090,68.5491,-0.005392
75.120,68.5845,-0.015488
75.152,68.6230,-0.015488
75.181,68.6578,-0.015488
75.216,68.6975,-0.015488
75.243,68.7286,-0.015488
75.274,68.7623,-0.015488
75.304,68.7958,-0.015488
75.335,68.8278,-0.015488
75.366,68.8603,-0.036387
75.400,68.8944,-0.036387
75.428,68.9219,-0.036387
75.459,68.9519,-0.036387
75.490,68.9805,-0.036387
75.522,69.0102,-0.036387
75.552,69.0367,-0.036387
75.584,69.0646,-0.036387
75.614,69.0899,-0.067524
75.645,69.1158,-0.067524
75.676,69.1401,-0.067524
75.707,69.1648,-0.067524
75.737,69.1871,-0.067524
75.772,69.2128,-0.067524
75.800,69.2320,-0.067524
75.831,69.2537,-0.067524
75.861,69.2730,-0.101606
75.894,69.2935,-0.101606
75.923,69.3119,-0.101606
75.954,69.3301,-0.101606
75.985,69.3481,-0.101606
76.016,69.3642,-0.101606
76.046,69.3801,-0.101606
76.078,69.3957,-0.101606
76.109,69.4103,-0.101606
76.140,69.4244,-0.135085
76.171,69.4372,-0.135085
76.202,69.4501,-0.135085
76.234,69.4621,-0.135085
76.266,69.4733,-0.135085
76.296,69.4830,-0.135085
76.326,69.4926,-0.135085
76.357,69.5012,-0.186039
76.388,69.5094,-0.186039
76.419,69.5169,-0.186039
76.450,69.5234,-0.186039
76.481,69.5294,-0.186039
76.513,69.5346,-0.186039
76.544,69.5389,-0.186039
76.581,69.5434,-0.186039
76.606,69.5458,-0.253930
76.637,69.5480,-0.253930
76.668,69.5495,-0.253930
76.700,69.5502,-0.253930
76.730,69.5504,-0.253930
76.760,69.5504,-0.253930
76.791,69.5504,-0.253930
76.822,69.5504,-0.253930
76.853,69.5504,-0.259284
76.885,69.5504,-0.259284
76.916,69.5504,-0.259284
76.947,69.5504,-0.259284
76.978,69.5504,-0.259284
77.009,69.5504,-0.259284
77.039,69.5504,-0.259284
77.071,69.5504,-0.259284
77.102,69.5504,-0.201405
77.133,69.5504,-0.201405
77.164,69.5504,-0.201405
77.196,69.5504,-0.201405
77.226,69.5504,-0.201405
77.258,69.5504,-0.201405
77.289,69.5504,-0.201405
77.319,69.5504,-0.201405
77.351,69.5504,-0.201405
77.381,69.5504,-0.162439
77.412,69.5504,-0.162439
77.443,69.5504,-0.162439
77.474,69.5504,-0.162439
77.505,69.5504,-0.162439
77.537,69.5504,-0.162439
77.568,69.5504,-0.162439
77.600,69.5504,-0.162439
77.631,69.5504,-0.147431
77.662,69.5504,-0.147431
77.692,69.5504,-0.147431
77.724,69.5504,-0.147431
77.753,69.5504,-0.147431
77.784,69.5504,-0.147431
77.815,69.5504,-0.147431
77.847,69.5504,-0.147431
77.879,69.5504,-0.138191
77.910,69.5504,-0.138191
77.940,69.5504,-0.138191
77.971,69.5504,-0.138191
78.002,69.5504,-0.138191
78.033,69.5504,-0.138191
78.065,69.5504,-0.138191
78.095,69.5504,-0.138191
78.126,69.5504,-0.131566
78.157,69.5504,-0.131566
78.189,69.5504,-0.131566
78.218,69.5504,-0.131566
78.249,69.5504,-0.131566
78.280,69.5504,-0.131566
78.311,69.5504,-0.131566
78.342,69.5504,-0.131566
78.373,69.5504,-0.126419
78.404,69.5504,-0.126419
78.435,69.5504,-0.126419
78.466,69.5504,-0.126419
78.497,69.5504,-0.126419
78.532,69.5504,-0.126419
78.558,69.5504,-0.126419
78.589,69.5504,-0.126419
78.620,69.5504,-0.122194
78.650,69.5504,-0.122194
78.681,69.5504,-0.122194
78.713,69.5504,-0.122194
78.743,69.5504,-0.122194
78.774,69.5504,-0.122194
78.805,69.5504,-0.122194
78.836,69.5504,-0.122194
78.867,69.5504,-0.122194
78.897,69.5504,-0.118760
78.928,69.5504,-0.118760
78.960,69.5504,-0.118760
78.991,69.5504,-0.118760
79.022,69.5504,-0.118760
79.053,69.5504,-0.118760
79.085,69.5504,-0.118760
79.116,69.5504,-0.115861
79.146,69.5504,-0.115861
79.177,69.5504,-0.115861
79.209,69.5504,-0.115861
79.240,69.5504,-0.115861
79.271,69.5504,-0.115861
79.303,69.5504,-0.115861
79.334,69.5504,-0.115861
79.365,69.5504,-0.113208
79.395,69.5504,-0.113208
79.426,69.5504,-0.113208
79.457,69.5504,-0.113208
79.488,69.5504,-0.113208
79.519,69.5504,-0.113208
79.551,69.5504,-0.113208
79.581,69.5504,-0.113208
79.613,69.5504,-0.110987
79.644,69.5504,-0.110987
79.675,69.5504,-0.110987
79.707,69.5504,-0.110987
79.737,69.5504,-0.110987
79.768,69.5504,-0.110987
79.799,69.5504,-0.110987
79.830,69.5504,-0.110987
79.861,69.5504,-0.109105
79.895,69.5504,-0.109105
79.923,69.5504,-0.109105
79.953,69.5504,-0.109105
79.985,69.5504,-0.109105
80.016,69.5504,-0.109105
80.046,69.5504,-0.109105
80.078,69.5504,-0.109105
80.108,69.5504,-0.107336
80.139,69.5504,-0.107336
80.171,69.5504,-0.107336
80.200,69.5504,-0.107336
80.232,69.5504,-0.107336
80.262,69.5504,-0.107336
80.294,69.5504,-0.107336
80.325,69.5504,-0.107336
80.356,69.5504,-0.105690
80.386,69.5504,-0.105690
80.418,69.5504,-0.105690
80.449,69.5504,-0.105690
80.480,69.5504,-0.105690
80.511,69.5504,-0.105690
80.541,69.5504,-0.105690
80.571,69.5504,-0.105690
80.603,69.5504,-0.104278
80.634,69.5504,-0.104278
80.666,69.5504,-0.104278
80.697,69.5504,-0.104278
80.727,69.5504,-0.104278
80.760,69.5504,-0.104278
80.790,69.5504,-0.104278
80.821,69.5504,-0.104278
80.853,69.5504,-0.103196
80.884,69.5504,-0.103196
80.915,69.5504,-0.103196
80.945,69.5504,-0.103196
80.976,69.5504,-0.103196
81.007,69.5501,-0.103196
81.038,69.5491,-0.103196
81.070,69.5473,-0.103196
81.101,69.5448,-0.103196
81.132,69.5416,-0.102471
81.162,69.5377,-0.102471
81.194,69.5329,-0.102471
81.225,69.5277,-0.102471
81.255,69.5215,-0.102471
81.287,69.5146,-0.102471
81.318,69.5070,-0.102471
81.348,69.4989,-0.021981
81.379,69.4895,-0.021981
81.410,69.4803,-0.021981
81.441,69.4697,-0.021981
81.472,69.4588,-0.021981
81.503,69.4466,-0.021981
81.534,69.4337,-0.021981
81.566,69.4203,-0.021981
81.597,69.4064,0.033941
81.627,69.3916,0.033941
81.658,69.3761,0.033941
81.690,69.3595,0.033941
81.719,69.3432,0.033941
81.750,69.3255,0.033941
81.781,69.3074,0.033941
81.812,69.2877,0.033941
81.844,69.2677,0.022489
81.875,69.2471,0.022489
81.906,69.2254,0.022489
81.937,69.2033,0.022489
81.967,69.1813,0.022489
81.998,69.1577,0.022489
82.030,69.1325,0.022489
82.060,69.1082,0.022489
82.092,69.0818,0.022489
82.123,69.0558,0.050003
82.153,69.0283,0.050003
82.185,69.0006,0.050003
82.217,68.9709,0.050003
82.247,68.9428,0.050003
82.278,68.9111,0.050003
82.309,68.8813,0.050003
82.340,68.8494,0.050003
82.371,68.8174,0.079041
82.403,68.7827,0.079041
82.434,68.7492,0.079041
82.466,68.7133,0.079041
82.496,68.6807,0.079041
82.527,68.6430,0.079041
82.559,68.6072,0.079041
82.591,68.5681,0.079041
82.621,68.5303,0.109068
82.651,68.4926,0.109068
82.682,68.4539,0.109068
82.713,68.4123,0.109068
82.744,68.3721,0.109068
82.775,68.3296,0.109068
82.806,68.2876,0.109068
82.839,68.2425,0.109068
82.869,68.1999,0.137805
82.899,68.1547,0.137805
82.930,68.1102,0.137805
82.962,68.0625,0.137805
82.993,68.0157,0.137805
83.024,67.9679,0.137805
83.056,67.9186,0.137805
83.086,67.8708,0.137805
83.116,67.8225,0.149285
83.148,67.7710,0.149285
83.180,67.7182,0.149285
83.211,67.6657,0.149285
83.241,67.6131,0.149285
83.272,67.5611,0.149285
83.303,67.5078,0.149285
83.334,67.4515,0.149285
83.365,67.3964,0.143008
83.397,67.3384,0.143008
83.427,67.2833,0.143008
83.458,67.2247,0.143008
83.489,67.1665,0.143008
83.520,67.1071,0.143008
83.552,67.0465,0.143008
83.583,66.9849,0.143008
83.614,66.9258,0.103130
83.645,66.8661,0.103130
83.676,66.8083,0.103130
83.707,66.7510,0.103130
83.738,66.6941,0.103130
83.769,66.6383,0.103130
83.799,66.5836,0.103130
83.830,66.5288,0.103130
83.861,66.4757,0.103130
83.892,66.4212,0.039069
83.923,66.3702,0.039069
83.954,66.3179,0.039069
83.985,66.2676,0.039069
84.016,66.2166,0.039069
84.047,66.1677,0.039069
84.078,66.1183,0.039069
84.108,66.0721,0.009457
84.139,66.0239,0.009457
84.170,65.9781,0.009457
84.201,65.9304,0.009457
84.232,65.8861,0.009457
84.262,65.8419,0.009457
84.293,65.7991,0.009457
84.324,65.7557,0.009457
84.355,65.7123,0.008450
84.387,65.6705,0.008450
84.418,65.6294,0.008450
84.449,65.5899,0.008450
84.479,65.5516,0.008450
84.511,65.5115,0.008450
84.541,65.4749,0.008450
84.572,65.4375,0.008450
84.603,65.4004,0.007951
84.635,65.3633,0.007951
84.666,65.3290,0.007951
84.697,65.2939,0.007951
84.729,65.2598,0.007951
84.761,65.2263,0.007951
84.791,65.1943,0.007951
84.822,65.1632,0.007951
84.852,65.1334,0.007697
84.884,65.1024,0.007697
84.915,65.0740,0.007697
84.945,65.0458,0.007697
84.976,65.0177,0.007697
85.008,64.9900,0.007697
85.039,64.9643,0.007697
85.070,64.9382,0.007697
85.101,64.9136,0.007481
85.133,64.8882,0.007481
85.162,64.8664,0.007481
85.194,64.8424,0.007481
85.223,64.8221,0.007481
85.254,64.8008,0.007481
85.285,64.7805,0.007481
85.317,64.7601,0.007481
85.347,64.7416,0.007245
85.379,64.7223,0.007245
85.409,64.7059,0.007245
85.439,64.6888,0.007245
85.470,64.6725,0.007245
85.501,64.6574,0.007245
85.532,64.6430,0.007245
85.563,64.6290,0.007245
85.593,64.6158,0.007057
85.624,64.6034,0.007057
85.655,64.5915,0.007057
85.686,64.5802,0.007057
85.717,64.5697,0.007057
85.747,64.5603,0.007057
85.778,64.5516,0.007057
85.808,64.5433,0.007057
85.838,64.5361,0.006841
85.869,64.5293,0.006841
85.900,64.5232,0.006841
85.931,64.5177,0.006841
85.962,64.5130,0.006841
85.993,64.5092,0.006841
86.024,64.5058,0.006841
86.057,64.5033,0.006841
86.086,64.5017,0.006841
86.117,64.5006,0.006841
86.148,64.5004,0.006671
86.179,64.5004,0.006671
86.210,64.5004,0.006671
86.242,64.5004,0.006671
86.272,64.5004,0.006671
86.303,64.5004,0.006671
86.334,64.5004,0.006671
86.365,64.5004,0.006587
86.396,64.5004,0.006587
86.427,64.5004,0.006587
86.458,64.5004,0.006587
86.488,64.5004,0.006587
86.519,64.5004,0.006587
86.551,64.5004,0.006587
86.582,64.5004,0.006587
86.613,64.5004,0.006587
86.643,64.5004,0.006540
86.675,64.5004,0.006540
86.706,64.5010,0.006540
86.737,64.5022,0.006540
86.768,64.5042,0.006540
86.799,64.5069,0.006540
86.830,64.5104,0.006540
86.860,64.5144,0.006540
86.891,64.5193,0.006427
86.923,64.5252,0.006427
86.953,64.5314,0.006427
86.984,64.5384,0.006427
87.014,64.5460,0.006427
87.044,64.5541,0.006427
87.076,64.5636,0.006427
87.107,64.5734,0.006427
87.137,64.5840,0.006192
87.168,64.5955,0.006192
87.199,64.6073,0.006192
87.230,64.6202,0.006192
87.261,64.6335,0.006192
87.291,64.6477,0.006192
87.321,64.6622,0.006192
87.353,64.6781,0.006192
87.383,64.6943,0.005815
87.416,64.7126,0.005815
87.447,64.7304,0.005815
87.482,64.7519,0.005815
87.509,64.7686,0.005815
87.541,64.7892,0.005815
87.571,64.8093,0.005815
87.602,64.8309,0.005815
87.633,64.8538,0.005580
87.664,64.8769,0.005580
87.695,64.8999,0.005580
87.726,64.9249,0.005580
87.757,64.9498,0.005580
87.789,64.9767,0.005580
87.820,65.0029,0.005580
87.851,65.0307,0.005580
87.882,65.0591,0.005298
87.914,65.0887,0.005298
87.945,65.1183,0.005298
87.975,65.1479,0.005298
88.007,65.1799,0.005298
88.038,65.2118,0.005298
88.069,65.2441,0.005298
88.101,65.2785,0.005298
88.132,65.3122,0.004921
88.163,65.3473,0.004921
88.194,65.3823,0.004921
88.225,65.4199,0.004921
88.256,65.4554,0.004921
88.287,65.4927,0.004921
88.318,65.5309,0.004921
88.348,65.5701,0.004564
88.379,65.6105,0.004564
88.410,65.6497,0.004564
88.442,65.6927,0.004564
88.472,65.7329,0.004564
88.502,65.7757,0.004564
88.532,65.8165,0.004564
88.563,65.8620,0.004564
88.595,65.9064,0.004084
88.626,65.9526,0.004084
88.657,65.9986,0.004084
88.688,66.0450,0.004084
88.719,66.0948,0.004084
88.751,66.1433,0.004084
88.782,66.1937,0.004084
88.813,66.2439,0.004084
88.845,66.2944,0.004084
88.876,66.3477,0.003425
88.907,66.3986,0.003425
88.937,66.4521,0.003425
88.969,66.5050,0.003425
89.000,66.5608,0.003425
89.032,66.6160,0.003425
89.063,66.6743,0.003425
89.095,66.7301,0.002588
89.125,66.7884,0.002588
89.157,66.8453,0.002588
89.186,66.9017,0.002588
89.218,66.9620,0.002588
89.249,67.0229,0.002588
89.280,67.0832,0.002588
89.312,67.1439,0.002588
89.343,67.2025,0.001364
89.374,67.2601,0.001364
89.405,67.3152,0.001364
89.437,67.3740,0.001364
89.468,67.4297,0.001364
89.499,67.4833,0.001364
89.529,67.5363,0.001364
89.561,67.5894,0.001364
89.591,67.6406,0.001364
89.621,67.6926,-0.000358
89.652,67.7427,-0.000358
89.683,67.7918,-0.000358
89.714,67.8424,-0.000358
89.746,67.8919,-0.000358
89.776,67.9388,-0.000358
89.807,67.9856,-0.000358
89.839,68.0339,-0.000358
89.869,68.0786,-0.003359
89.901,68.1257,-0.003359
89.932,68.1692,-0.003359
89.963,68.2140,-0.003359
89.995,68.2570,-0.003359
90.026,68.3001,-0.003359
90.058,68.3413,-0.003359
90.089,68.3834,-0.003359
90.121,68.4240,-0.010529
90.152,68.4635,-0.010529
90.182,68.5010,-0.010529
90.213,68.5382,-0.010529
90.244,68.5752,-0.010529
90.274,68.6099,-0.010529
90.305,68.6467,-0.010529
90.336,68.6808,-0.010529
90.367,68.7157,-0.026931
90.399,68.7490,-0.026931
90.429,68.7818,-0.026931
90.460,68.8132,-0.026931
90.490,68.8437,-0.026931
90.522,68.8749,-0.026931
90.552,68.9048,-0.026931
90.586,68.9356,-0.026931
90.615,68.9621,-0.055028
90.645,68.9889,-0.055028
90.677,69.0164,-0.055028
90.711,69.0456,-0.055028
90.739,69.0685,-0.055028
90.770,69.0927,-0.055028
90.800,69.1164,-0.055028
90.833,69.1416,-0.055028
90.862,69.1618,-0.055028
90.893,69.1839,-0.088912
90.923,69.2041,-0.088912
90.955,69.2254,-0.088912
90.987,69.2454,-0.088912
91.017,69.2636,-0.088912
91.048,69.2826,-0.088912
91.082,69.3012,-0.088912
91.111,69.3163,-0.088912
91.141,69.3323,-0.122458
91.173,69.3478,-0.122458
91.204,69.3625,-0.122458
91.236,69.3769,-0.122458
91.267,69.3899,-0.122458
91.299,69.4024,-0.122458
91.329,69.4137,-0.122458
91.360,69.4246,-0.164208
91.391,69.4346,-0.164208
91.422,69.4442,-0.164208
91.453,69.4528,-0.164208
91.484,69.4609,-0.164208
91.515,69.4680,-0.164208
91.546,69.4745,-0.164208
91.577,69.4803,-0.164208
91.608,69.4854,-0.231902
91.640,69.4897,-0.231902
91.671,69.4933,-0.231902
91.702,69.4962,-0.231902
91.733,69.4983,-0.231902
91.764,69.4996,-0.231902
91.795,69.5004,-0.231902
91.826,69.5004,-0.231902
91.857,69.5004,-0.231902
91.887,69.5004,-0.273210
91.918,69.5004,-0.273210
91.951,69.5004,-0.273210
91.980,69.5004,-0.273210
92.010,69.5004,-0.273210
92.041,69.5004,-0.273210
92.072,69.5004,-0.273210
92.103,69.5004,-0.227912
92.134,69.5004,-0.227912
92.165,69.5004,-0.227912
92.196,69.5004,-0.227912
92.227,69.5004,-0.227912
92.257,69.5004,-0.227912
92.288,69.5004,-0.227912
92.319,69.5004,-0.227912
92.350,69.5004,-0.170550
92.380,69.5004,-0.170550
92.411,69.5004,-0.170550
92.442,69.5004,-0.170550
92.474,69.5004,-0.170550
92.506,69.5004,-0.170550
92.536,69.5004,-0.170550
92.568,69.5004,-0.170550
92.597,69.5004,-0.170550
92.628,69.5004,-0.150781
