Elapsed Time (s),Position (mm),Force (N)
-0.006,71.3003,-0.151515
0.026,71.3003,-0.151515
0.056,71.3003,-0.151515
0.088,71.3003,-0.151515
0.118,71.3003,-0.125732
0.149,71.3003,-0.125732
0.180,71.3003,-0.125732
0.212,71.3003,-0.125732
0.243,71.3003,-0.125732
0.274,71.3003,-0.125732
0.305,71.3003,-0.125732
0.335,71.3003,-0.125732
0.367,71.3003,-0.114770
0.398,71.3003,-0.114770
0.429,71.3003,-0.114770
0.460,71.3003,-0.114770
0.491,71.3003,-0.114770
0.522,71.3003,-0.114770
0.553,71.3003,-0.114770
0.583,71.3003,-0.114770
0.613,71.3003,-0.107938
0.645,71.3003,-0.107938
0.675,71.3003,-0.107938
0.707,71.3003,-0.107938
0.738,71.3003,-0.107938
0.770,71.3003,-0.107938
0.803,71.3003,-0.107938
0.832,71.3003,-0.107938
0.863,71.3003,-0.107938
0.893,71.3003,-0.102885
0.925,71.3003,-0.102885
0.955,71.3003,-0.102885
0.986,71.3003,-0.102885
1.018,71.3003,-0.102885
1.049,71.3003,-0.102885
1.080,71.3003,-0.102885
1.111,71.3003,-0.102885
1.142,71.3003,-0.098736
1.173,71.3003,-0.098736
1.204,71.3003,-0.098736
1.236,71.3003,-0.098736
1.267,71.3003,-0.098736
1.298,71.3003,-0.098736
1.328,71.3003,-0.098736
1.360,71.3003,-0.098736
1.391,71.3003,-0.095405
1.422,71.3003,-0.095405
1.452,71.3003,-0.095405
1.484,71.3003,-0.095405
1.515,71.3003,-0.095405
1.545,71.3003,-0.095405
1.576,71.3003,-0.095405
1.606,71.3003,-0.095405
1.637,71.3003,-0.092638
1.667,71.3003,-0.092638
1.698,71.3003,-0.092638
1.731,71.3003,-0.092638
1.760,71.3003,-0.092638
1.791,71.3003,-0.092638
1.823,71.3003,-0.092638
1.854,71.3003,-0.092638
1.884,71.3003,-0.090239
1.915,71.3003,-0.090239
1.947,71.3003,-0.090239
1.978,71.3003,-0.090239
2.009,71.3003,-0.090239
2.040,71.3003,-0.090239
2.070,71.3003,-0.090239
2.101,71.3003,-0.090239
2.132,71.3003,-0.090239
2.163,71.3003,-0.088122
2.194,71.3003,-0.088122
2.225,71.3003,-0.088122
2.255,71.3003,-0.088122
2.286,71.3003,-0.088122
2.317,71.3003,-0.088122
2.348,71.3003,-0.088122
2.379,71.3003,-0.086249
2.410,71.3003,-0.086249
2.441,71.3003,-0.086249
2.473,71.3003,-0.086249
2.503,71.3003,-0.086249
2.535,71.3003,-0.086249
2.565,71.3003,-0.086249
2.596,71.3003,-0.086249
2.627,71.3003,-0.084593
2.657,71.3003,-0.084593
2.689,71.3003,-0.084593
2.719,71.3003,-0.084593
2.749,71.3003,-0.084593
2.780,71.3003,-0.084593
2.811,71.3003,-0.084593
2.842,71.3003,-0.084593
2.873,71.3003,-0.083172
2.903,71.3003,-0.083172
2.933,71.3003,-0.083172
2.965,71.3003,-0.083172
2.995,71.3003,-0.083172
3.026,71.3003,-0.083172
3.057,71.3003,-0.083172
3.087,71.3003,-0.083172
3.118,71.3003,-0.081977
3.149,71.3003,-0.081977
3.180,71.3003,-0.081977
3.211,71.3003,-0.081977
3.243,71.3003,-0.081977
3.273,71.3003,-0.081977
3.305,71.3003,-0.081977
3.335,71.3003,-0.081977
3.366,71.3003,-0.080820
3.397,71.3003,-0.080820
3.428,71.3003,-0.080820
3.459,71.3003,-0.080820
3.490,71.3003,-0.080820
3.523,71.3003,-0.080820
3.553,71.3003,-0.080820
3.584,71.3003,-0.080820
3.615,71.3003,-0.079540
3.647,71.3003,-0.079540
3.678,71.3003,-0.079540
3.709,71.3003,-0.079540
3.740,71.3003,-0.079540
3.771,71.3003,-0.079540
3.802,71.3003,-0.079540
3.832,71.3003,-0.079540
3.865,71.3003,-0.079023
3.895,71.3003,-0.079023
3.925,71.3003,-0.079023
3.956,71.3003,-0.079023
3.987,71.3003,-0.079023
4.021,71.3003,-0.079023
4.049,71.3003,-0.079023
4.080,71.3003,-0.079023
4.111,71.3003,-0.078505
4.142,71.3000,-0.078505
4.173,71.2988,-0.078505
4.204,71.2970,-0.078505
4.235,71.2944,-0.078505
4.265,71.2912,-0.078505
4.297,71.2871,-0.078505
4.328,71.2823,-0.078505
4.359,71.2769,-0.078505
4.390,71.2704,-0.065444
4.421,71.2636,-0.065444
4.452,71.2559,-0.065444
4.483,71.2474,-0.065444
4.515,71.2381,-0.065444
4.546,71.2284,-0.065444
4.576,71.2179,-0.065444
4.608,71.2064,-0.034590
4.638,71.1947,-0.034590
4.669,71.1816,-0.034590
4.704,71.1664,-0.034590
4.731,71.1541,-0.034590
4.761,71.1393,-0.034590
4.793,71.1237,-0.034590
4.823,71.1075,-0.034590
4.853,71.0911,-0.002465
4.884,71.0729,-0.002465
4.916,71.0545,-0.002465
4.947,71.0344,-0.002465
4.978,71.0150,-0.002465
5.009,70.9937,-0.002465
5.040,70.9728,-0.002465
5.071,70.9503,-0.002465
5.102,70.9273,0.025839
5.133,70.9037,0.025839
5.164,70.8799,0.025839
5.195,70.8537,0.025839
5.227,70.8279,0.025839
5.258,70.8001,0.025839
5.288,70.7751,0.025839
5.320,70.7456,0.025839
5.351,70.7168,0.025839
5.382,70.6869,0.054275
5.413,70.6564,0.054275
5.445,70.6256,0.054275
5.476,70.5938,0.054275
5.507,70.5616,0.054275
5.538,70.5283,0.054275
5.569,70.4945,0.054275
5.600,70.4598,0.054275
5.631,70.4247,0.082241
5.662,70.3884,0.082241
5.692,70.3522,0.082241
5.723,70.3151,0.082241
5.754,70.2763,0.082241
5.785,70.2370,0.082241
5.816,70.1978,0.082241
5.848,70.1563,0.082241
5.879,70.1150,0.113198
5.910,70.0727,0.113198
5.942,70.0303,0.113198
5.972,69.9873,0.113198
6.004,69.9430,0.113198
6.034,69.8974,0.113198
6.065,69.8535,0.113198
6.096,69.8070,0.113198
6.127,69.7605,0.140966
6.158,69.7112,0.140966
6.191,69.6610,0.140966
6.219,69.6165,0.140966
6.252,69.5614,0.140966
6.282,69.5139,0.140966
6.314,69.4603,0.140966
6.344,69.4106,0.140966
6.376,69.3573,0.145427
6.406,69.3038,0.145427
6.437,69.2503,0.145427
6.473,69.1856,0.145427
6.514,69.1128,0.145427
6.545,69.0559,0.145427
6.575,68.9996,0.145427
6.607,68.9394,0.145427
6.638,68.8808,0.121949
6.668,68.8215,0.121949
6.701,68.7592,0.121949
6.732,68.6972,0.121949
6.763,68.6390,0.121949
6.796,68.5774,0.121949
6.825,68.5225,0.121949
6.857,68.4625,0.121949
6.889,68.4067,0.057361
6.920,68.3497,0.057361
6.952,68.2940,0.057361
6.981,68.2410,0.057361
7.013,68.1870,0.057361
7.045,68.1335,0.057361
7.076,68.0808,0.057361
7.107,68.0302,0.057361
7.138,67.9780,0.008610
7.169,67.9300,0.008610
7.200,67.8813,0.008610
7.231,67.8318,0.008610
7.263,67.7838,0.008610
7.294,67.7361,0.008610
7.325,67.6910,0.008610
7.356,67.6447,0.008610
7.387,67.6002,0.007368
7.421,67.5506,0.007368
7.449,67.5133,0.007368
7.480,67.4700,0.007368
7.511,67.4281,0.007368
7.543,67.3864,0.007368
7.574,67.3452,0.007368
7.605,67.3050,0.006944
7.637,67.2666,0.006944
7.668,67.2280,0.006944
7.698,67.1922,0.006944
7.730,67.1545,0.006944
7.762,67.1174,0.006944
7.793,67.0819,0.006944
7.823,67.0479,0.006944
7.854,67.0152,0.006944
7.885,66.9811,0.006944
7.917,66.9488,0.006719
7.948,66.9165,0.006719
7.978,66.8871,0.006719
8.010,66.8562,0.006719
8.040,66.8275,0.006719
8.073,66.7978,0.006719
8.104,66.7701,0.006719
8.135,66.7420,0.006634
8.164,66.7178,0.006634
8.197,66.6905,0.006634
8.228,66.6651,0.006634
8.258,66.6414,0.006634
8.289,66.6183,0.006634
8.321,66.5950,0.006634
8.353,66.5724,0.006634
8.384,66.5506,0.006568
8.415,66.5305,0.006568
8.446,66.5108,0.006568
8.477,66.4917,0.006568
8.508,66.4735,0.006568
8.538,66.4559,0.006568
8.568,66.4396,0.006568
8.599,66.4235,0.006568
8.630,66.4079,0.006483
8.661,66.3931,0.006483
8.692,66.3790,0.006483
8.723,66.3657,0.006483
8.754,66.3532,0.006483
8.785,66.3413,0.006483
8.817,66.3300,0.006483
8.848,66.3195,0.006483
8.879,66.3098,0.006361
8.909,66.3011,0.006361
8.941,66.2926,0.006361
8.971,66.2853,0.006361
9.002,66.2784,0.006361
9.033,66.2725,0.006361
9.067,66.2667,0.006361
9.095,66.2627,0.006361
9.126,66.2588,0.006361
9.158,66.2556,0.006163
9.188,66.2532,0.006163
9.218,66.2516,0.006163
9.249,66.2506,0.006163
9.281,66.2503,0.006163
9.312,66.2503,0.006163
9.343,66.2503,0.006163
9.373,66.2503,0.006163
9.404,66.2503,0.006069
9.435,66.2503,0.006069
9.466,66.2503,0.006069
9.499,66.2503,0.006069
9.528,66.2503,0.006069
9.558,66.2503,0.006069
9.591,66.2503,0.006069
9.620,66.2503,0.006069
9.651,66.2503,0.006060
9.681,66.2508,0.006060
9.715,66.2522,0.006060
9.743,66.2539,0.006060
9.776,66.2568,0.006060
9.805,66.2599,0.006060
9.836,66.2639,0.006060
9.867,66.2687,0.006032
9.899,66.2745,0.006032
9.929,66.2806,0.006032
9.960,66.2877,0.006032
9.994,66.2964,0.006032
10.023,66.3039,0.006032
10.053,66.3131,0.006032
10.084,66.3231,0.006032
10.116,66.3338,0.006032
10.146,66.3451,0.005796
10.177,66.3570,0.005796
10.208,66.3700,0.005796
10.239,66.3833,0.005796
10.270,66.3978,0.005796
10.301,66.4124,0.005796
10.332,66.4284,0.005796
10.363,66.4452,0.005796
10.394,66.4619,0.005646
10.424,66.4799,0.005646
10.457,66.4991,0.005646
10.486,66.5177,0.005646
10.517,66.5378,0.005646
10.549,66.5592,0.005646
10.581,66.5809,0.005646
10.611,66.6034,0.005467
10.643,66.6269,0.005467
10.674,66.6509,0.005467
10.705,66.6754,0.005467
10.736,66.7002,0.005467
10.768,66.7272,0.005467
10.797,66.7521,0.005467
10.828,66.7799,0.005467
10.859,66.8071,0.005091
10.891,66.8366,0.005091
10.922,66.8660,0.005091
10.953,66.8964,0.005091
10.983,66.9270,0.005091
11.015,66.9590,0.005091
11.044,66.9903,0.005091
11.076,67.0247,0.005091
11.107,67.0585,0.004968
11.139,67.0936,0.004968
11.170,67.1287,0.004968
11.201,67.1654,0.004968
11.231,67.2014,0.004968
11.262,67.2383,0.004968
11.293,67.2778,0.004968
11.325,67.3168,0.004968
11.356,67.3573,0.004724
11.388,67.3989,0.004724
11.419,67.4395,0.004724
11.449,67.4821,0.004724
11.480,67.5225,0.004724
11.510,67.5660,0.004724
11.541,67.6098,0.004724
11.573,67.6555,0.004724
11.603,67.6999,0.004366
11.635,67.7472,0.004366
11.665,67.7923,0.004366
11.697,67.8427,0.004366
11.728,67.8912,0.004366
11.758,67.9397,0.004366
11.789,67.9888,0.004366
11.820,68.0398,0.004366
11.852,68.0915,0.003802
11.883,68.1439,0.003802
11.917,68.2033,0.003802
11.945,68.2502,0.003802
11.976,68.3049,0.003802
12.008,68.3617,0.003802
12.038,68.4152,0.003802
12.068,68.4709,0.003802
12.099,68.5273,0.003802
12.130,68.5856,0.003058
12.164,68.6491,0.003058
12.193,68.7044,0.003058
12.226,68.7705,0.003058
12.255,68.8251,0.003058
12.286,68.8850,0.003058
12.317,68.9434,0.003058
12.348,69.0009,0.003058
12.378,69.0559,0.002032
12.410,69.1129,0.002032
12.441,69.1685,0.002032
12.472,69.2244,0.002032
12.503,69.2774,0.002032
12.534,69.3321,0.002032
12.565,69.3828,0.002032
12.597,69.4359,0.002032
12.627,69.4861,0.000452
12.659,69.5375,0.000452
12.689,69.5851,0.000452
12.721,69.6358,0.000452
12.751,69.6828,0.000452
12.782,69.7316,0.000452
12.815,69.7788,0.000452
12.846,69.8261,0.000452
12.877,69.8710,-0.002334
12.908,69.9146,-0.002334
12.939,69.9588,-0.002334
12.969,70.0008,-0.002334
13.002,70.0448,-0.002334
13.031,70.0847,-0.002334
13.062,70.1255,-0.002334
13.093,70.1646,-0.002334
13.124,70.2041,-0.008384
13.155,70.2434,-0.008384
13.185,70.2796,-0.008384
13.216,70.3171,-0.008384
13.247,70.3542,-0.008384
13.279,70.3899,-0.008384
13.311,70.4281,-0.008384
13.340,70.4588,-0.008384
13.377,70.4990,-0.021351
13.417,70.5406,-0.021351
13.447,70.5719,-0.021351
13.478,70.6031,-0.021351
13.509,70.6325,-0.021351
13.540,70.6628,-0.021351
13.571,70.6910,-0.021351
13.602,70.7199,-0.044291
13.633,70.7473,-0.044291
13.663,70.7735,-0.044291
13.694,70.7994,-0.044291
13.726,70.8243,-0.044291
13.756,70.8488,-0.044291
13.787,70.8726,-0.044291
13.818,70.8955,-0.044291
13.849,70.9181,-0.044291
13.880,70.9399,-0.073311
13.914,70.9625,-0.073311
13.942,70.9808,-0.073311
13.976,71.0021,-0.073311
14.003,71.0185,-0.073311
14.034,71.0365,-0.073311
14.066,71.0539,-0.073311
14.097,71.0708,-0.073311
14.127,71.0858,-0.101568
14.158,71.1010,-0.101568
14.189,71.1155,-0.101568
14.220,71.1292,-0.101568
14.250,71.1418,-0.101568
14.282,71.1542,-0.101568
14.313,71.1656,-0.101568
14.345,71.1768,-0.101568
14.376,71.1866,-0.101568
14.407,71.1960,-0.126824
14.438,71.2045,-0.126824
14.469,71.2124,-0.126824
14.500,71.2195,-0.126824
14.532,71.2259,-0.126824
14.563,71.2315,-0.126824
14.594,71.2363,-0.126824
14.624,71.2404,-0.158544
14.656,71.2439,-0.158544
14.686,71.2466,-0.158544
14.717,71.2485,-0.158544
14.749,71.2499,-0.158544
14.779,71.2503,-0.158544
14.810,71.2503,-0.158544
14.841,71.2503,-0.158544
14.871,71.2503,-0.158544
14.902,71.2503,-0.175491
14.934,71.2503,-0.175491
14.966,71.2503,-0.175491
14.997,71.2503,-0.175491
15.028,71.2503,-0.175491
15.059,71.2503,-0.175491
15.090,71.2503,-0.175491
15.121,71.2503,-0.175491
15.152,71.2503,-0.153143
15.183,71.2503,-0.153143
15.217,71.2503,-0.153143
15.246,71.2503,-0.153143
15.282,71.2503,-0.153143
15.308,71.2503,-0.153143
15.338,71.2503,-0.153143
15.370,71.2503,-0.153143
15.400,71.2503,-0.126654
15.432,71.2503,-0.126654
15.463,71.2503,-0.126654
15.493,71.2503,-0.126654
15.525,71.2503,-0.126654
15.556,71.2503,-0.126654
15.588,71.2503,-0.126654
15.619,71.2503,-0.126654
15.649,71.2503,-0.115645
15.680,71.2503,-0.115645
15.711,71.2503,-0.115645
15.742,71.2503,-0.115645
15.773,71.2503,-0.115645
15.804,71.2503,-0.115645
15.835,71.2503,-0.115645
15.866,71.2503,-0.115645
15.896,71.2503,-0.108447
15.929,71.2503,-0.108447
15.957,71.2503,-0.108447
15.988,71.2503,-0.108447
16.020,71.2503,-0.108447
16.051,71.2503,-0.108447
16.084,71.2503,-0.108447
16.113,71.2503,-0.108447
16.144,71.2503,-0.103271
16.175,71.2503,-0.103271
16.206,71.2503,-0.103271
16.241,71.2503,-0.103271
16.282,71.2503,-0.103271
16.313,71.2503,-0.103271
16.345,71.2503,-0.103271
16.375,71.2503,-0.103271
16.409,71.2503,-0.099178
16.438,71.2503,-0.099178
16.469,71.2503,-0.099178
16.500,71.2503,-0.099178
16.531,71.2503,-0.099178
16.563,71.2503,-0.099178
16.596,71.2503,-0.099178
16.628,71.2503,-0.099178
16.655,71.2503,-0.095565
16.687,71.2503,-0.095565
16.721,71.2503,-0.095565
16.749,71.2503,-0.095565
16.780,71.2503,-0.095565
16.811,71.2503,-0.095565
16.842,71.2503,-0.095565
16.873,71.2503,-0.092751
16.904,71.2503,-0.092751
16.936,71.2503,-0.092751
16.967,71.2503,-0.092751
16.998,71.2503,-0.092751
17.029,71.2503,-0.092751
17.060,71.2503,-0.092751
17.092,71.2503,-0.092751
17.124,71.2503,-0.090380
17.154,71.2503,-0.090380
17.184,71.2503,-0.090380
17.215,71.2503,-0.090380
17.245,71.2503,-0.090380
17.277,71.2503,-0.090380
17.307,71.2503,-0.090380
17.338,71.2503,-0.090380
17.369,71.2503,-0.090380
17.400,71.2503,-0.090380
17.431,71.2503,-0.088319
17.462,71.2503,-0.088319
17.493,71.2503,-0.088319
17.525,71.2503,-0.088319
17.556,71.2503,-0.088319
17.587,71.2503,-0.088319
17.619,71.2503,-0.088319
17.650,71.2503,-0.086550
17.682,71.2503,-0.086550
17.712,71.2503,-0.086550
17.743,71.2503,-0.086550
17.773,71.2503,-0.086550
17.803,71.2503,-0.086550
17.835,71.2503,-0.086550
17.866,71.2503,-0.086550
17.898,71.2503,-0.084866
17.928,71.2503,-0.084866
17.959,71.2503,-0.084866
17.990,71.2503,-0.084866
18.021,71.2503,-0.084866
18.051,71.2503,-0.084866
18.082,71.2503,-0.084866
18.115,71.2503,-0.084866
18.145,71.2503,-0.083294
18.176,71.2503,-0.083294
18.208,71.2503,-0.083294
18.238,71.2503,-0.083294
18.270,71.2503,-0.083294
18.300,71.2503,-0.083294
18.331,71.2503,-0.083294
18.362,71.2503,-0.083294
18.394,71.2503,-0.081977
18.424,71.2503,-0.081977
18.455,71.2503,-0.081977
18.487,71.2503,-0.081977
18.517,71.2503,-0.081977
18.548,71.2503,-0.081977
18.579,71.2503,-0.081977
18.609,71.2503,-0.081977
18.640,71.2503,-0.080820
18.672,71.2503,-0.080820
18.702,71.2503,-0.080820
18.733,71.2503,-0.080820
18.764,71.2503,-0.080820
18.796,71.2503,-0.080820
18.827,71.2503,-0.080820
18.858,71.2503,-0.080820
18.889,71.2503,-0.079709
18.920,71.2503,-0.079709
18.952,71.2503,-0.079709
18.983,71.2503,-0.079709
19.014,71.2503,-0.079709
19.044,71.2503,-0.079709
19.075,71.2503,-0.079709
19.107,71.2503,-0.079709
19.138,71.2503,-0.078750
19.171,71.2503,-0.078750
19.200,71.2503,-0.078750
19.232,71.2503,-0.078750
19.263,71.2503,-0.078750
19.293,71.2503,-0.078750
19.324,71.2503,-0.078750
19.355,71.2503,-0.078750
19.386,71.2503,-0.078241
19.418,71.2501,-0.078241
19.449,71.2490,-0.078241
19.480,71.2472,-0.078241
19.511,71.2448,-0.078241
19.541,71.2417,-0.078241
19.572,71.2377,-0.078241
19.603,71.2330,-0.078241
19.635,71.2277,-0.070893
19.666,71.2215,-0.070893
19.697,71.2146,-0.070893
19.727,71.2071,-0.070893
19.759,71.1988,-0.070893
19.790,71.1896,-0.070893
19.820,71.1802,-0.070893
19.852,71.1692,-0.070893
19.882,71.1587,-0.041130
19.912,71.1467,-0.041130
19.943,71.1340,-0.041130
19.974,71.1211,-0.041130
20.004,71.1073,-0.041130
20.035,71.0927,-0.041130
20.066,71.0773,-0.041130
20.096,71.0615,-0.041130
20.127,71.0446,-0.005552
20.158,71.0270,-0.005552
20.189,71.0085,-0.005552
20.219,70.9898,-0.005552
20.251,70.9698,-0.005552
20.281,70.9493,-0.005552
20.313,70.9279,-0.005552
20.343,70.9054,-0.005552
20.375,70.8831,0.022000
20.406,70.8592,0.022000
20.437,70.8349,0.022000
20.468,70.8104,0.022000
20.499,70.7840,0.022000
20.530,70.7579,0.022000
20.561,70.7302,0.022000
20.592,70.7023,0.022000
20.623,70.6744,0.022000
20.654,70.6451,0.050323
20.685,70.6151,0.050323
20.716,70.5836,0.050323
20.748,70.5522,0.050323
20.779,70.5200,0.050323
20.810,70.4866,0.050323
20.841,70.4524,0.050323
20.872,70.4193,0.077846
20.903,70.3834,0.077846
20.935,70.3468,0.077846
20.966,70.3094,0.077846
20.997,70.2723,0.077846
21.027,70.2350,0.077846
21.058,70.1974,0.077846
21.090,70.1561,0.077846
21.120,70.1168,0.106612
21.151,70.0762,0.106612
21.182,70.0347,0.106612
21.213,69.9919,0.106612
21.243,69.9498,0.106612
21.274,69.9059,0.106612
21.305,69.8620,0.106612
21.336,69.8155,0.106612
21.366,69.7722,0.130117
21.397,69.7254,0.130117
21.427,69.6787,0.130117
21.457,69.6316,0.130117
21.489,69.5812,0.130117
21.519,69.5349,0.130117
21.550,69.4849,0.130117
21.581,69.4322,0.130117
21.612,69.3811,0.130117
21.643,69.3279,0.130117
21.674,69.2749,0.132808
21.706,69.2187,0.132808
21.737,69.1634,0.132808
21.768,69.1087,0.132808
21.799,69.0533,0.132808
21.831,68.9935,0.132808
21.861,68.9383,0.132808
21.892,68.8808,0.113622
21.922,68.8230,0.113622
21.953,68.7632,0.113622
21.984,68.7035,0.113622
22.016,68.6414,0.113622
22.047,68.5820,0.113622
22.078,68.5239,0.113622
22.107,68.4678,0.113622
22.138,68.4118,0.055056
22.168,68.3556,0.055056
22.199,68.3016,0.055056
22.230,68.2465,0.055056
22.262,68.1913,0.055056
22.293,68.1380,0.055056
22.323,68.0863,0.055056
22.354,68.0338,0.008826
22.385,67.9823,0.008826
22.416,67.9322,0.008826
22.447,67.8820,0.008826
22.479,67.8325,0.008826
22.510,67.7828,0.008826
22.542,67.7337,0.008826
22.572,67.6883,0.008826
22.603,67.6433,0.007452
22.634,67.5974,0.007452
22.665,67.5523,0.007452
22.697,67.5078,0.007452
22.728,67.4649,0.007452
22.759,67.4221,0.007452
22.789,67.3811,0.007452
22.820,67.3406,0.007452
22.850,67.3008,0.007010
22.882,67.2604,0.007010
22.913,67.2206,0.007010
22.944,67.1829,0.007010
22.974,67.1467,0.007010
23.005,67.1104,0.007010
23.036,67.0739,0.007010
23.066,67.0400,0.007010
23.098,67.0040,0.007010
23.129,66.9704,0.007010
23.159,66.9372,0.006719
23.191,66.9052,0.006719
23.222,66.8732,0.006719
23.253,66.8426,0.006719
23.283,66.8122,0.006719
23.315,66.7829,0.006719
23.346,66.7541,0.006719
23.377,66.7258,0.006671
23.408,66.6989,0.006671
23.439,66.6718,0.006671
23.470,66.6461,0.006671
23.500,66.6213,0.006671
23.531,66.5975,0.006671
23.563,66.5733,0.006671
23.593,66.5509,0.006671
23.625,66.5278,0.006671
23.656,66.5066,0.006681
23.688,66.4854,0.006681
23.719,66.4652,0.006681
23.750,66.4461,0.006681
23.782,66.4268,0.006681
23.812,66.4098,0.006681
23.843,66.3925,0.006681
23.875,66.3756,0.006681
23.904,66.3608,0.006540
23.935,66.3462,0.006540
23.966,66.3318,0.006540
23.997,66.3181,0.006540
24.029,66.3053,0.006540
24.060,66.2931,0.006540
24.091,66.2820,0.006540
24.122,66.2714,0.006408
24.153,66.2619,0.006408
24.184,66.2526,0.006408
24.215,66.2443,0.006408
24.246,66.2366,0.006408
24.277,66.2298,0.006408
24.310,66.2232,0.006408
24.340,66.2178,0.006408
24.371,66.2131,0.006267
24.402,66.2092,0.006267
24.433,66.2061,0.006267
24.465,66.2035,0.006267
24.494,66.2017,0.006267
24.525,66.2007,0.006267
24.556,66.2004,0.006267
24.587,66.2004,0.006267
24.619,66.2004,0.006126
24.650,66.2004,0.006126
24.681,66.2004,0.006126
24.712,66.2004,0.006126
24.743,66.2004,0.006126
24.773,66.2004,0.006126
24.804,66.2004,0.006126
24.836,66.2004,0.006126
24.867,66.2004,0.006107
24.897,66.2004,0.006107
24.929,66.2004,0.006107
24.959,66.2004,0.006107
24.991,66.2009,0.006107
25.022,66.2020,0.006107
25.054,66.2040,0.006107
25.085,66.2067,0.006107
25.116,66.2099,0.006126
25.147,66.2141,0.006126
25.178,66.2191,0.006126
25.209,66.2244,0.006126
25.240,66.2307,0.006126
25.271,66.2378,0.006126
25.301,66.2454,0.006126
25.333,66.2542,0.006126
25.364,66.2631,0.006126
25.394,66.2730,0.005900
25.425,66.2833,0.005900
25.455,66.2949,0.005900
25.487,66.3068,0.005900
25.518,66.3202,0.005900
25.549,66.3334,0.005900
25.581,66.3481,0.005900
25.611,66.3625,0.005721
25.643,66.3790,0.005721
25.673,66.3948,0.005721
25.705,66.4131,0.005721
25.737,66.4308,0.005721
25.767,66.4494,0.005721
25.798,66.4686,0.005721
25.833,66.4914,0.005721
25.860,66.5098,0.005571
25.891,66.5313,0.005571
25.922,66.5537,0.005571
25.953,66.5765,0.005571
25.984,66.6010,0.005571
26.015,66.6249,0.005571
26.045,66.6502,0.005571
26.076,66.6748,0.005571
26.107,66.7012,0.005354
26.137,66.7283,0.005354
26.169,66.7565,0.005354
26.199,66.7851,0.005354
26.230,66.8139,0.005354
26.261,66.8449,0.005354
26.293,66.8760,0.005354
26.325,66.9097,0.005354
26.355,66.9409,0.005053
26.387,66.9750,0.005053
26.418,67.0086,0.005053
26.448,67.0422,0.005053
26.479,67.0788,0.005053
26.510,67.1138,0.005053
26.541,67.1509,0.005053
26.571,67.1878,0.005053
26.602,67.2260,0.004724
26.633,67.2642,0.004724
26.664,67.3044,0.004724
26.696,67.3463,0.004724
26.728,67.3891,0.004724
26.760,67.4309,0.004724
26.790,67.4742,0.004724
26.822,67.5180,0.004724
26.853,67.5620,0.004404
26.885,67.6089,0.004404
26.916,67.6529,0.004404
26.948,67.7009,0.004404
26.977,67.7456,0.004404
27.009,67.7956,0.004404
27.040,67.8427,0.004404
27.071,67.8929,0.004404
27.102,67.9424,0.004404
27.133,67.9924,0.003914
27.163,68.0432,0.003914
27.195,68.0963,0.003914
27.225,68.1475,0.003914
27.257,68.2030,0.003914
27.288,68.2580,0.003914
27.319,68.3124,0.003914
27.350,68.3688,0.003246
27.382,68.4263,0.003246
27.416,68.4900,0.003246
27.445,68.5449,0.003246
27.476,68.6046,0.003246
27.507,68.6627,0.003246
27.538,68.7221,0.003246
27.569,68.7823,0.003246
27.600,68.8417,0.003246
27.631,68.8999,0.003246
27.661,68.9552,0.002315
27.692,69.0135,0.002315
27.726,69.0744,0.002315
27.755,69.1242,0.002315
27.786,69.1788,0.002315
27.817,69.2329,0.002315
27.848,69.2874,0.002315
27.880,69.3401,0.002315
27.910,69.3915,0.000960
27.941,69.4426,0.000960
27.972,69.4919,0.000960
28.004,69.5427,0.000960
28.034,69.5919,0.000960
28.066,69.6397,0.000960
28.097,69.6864,0.000960
28.128,69.7334,-0.001299
28.162,69.7841,-0.001299
28.190,69.8253,-0.001299
28.220,69.8682,-0.001299
28.251,69.9121,-0.001299
28.282,69.9546,-0.001299
28.314,69.9983,-0.001299
28.345,70.0386,-0.001299
28.376,70.0801,-0.001299
28.407,70.1196,-0.006050
28.439,70.1608,-0.006050
28.470,70.1994,-0.006050
28.503,70.2391,-0.006050
28.533,70.2760,-0.006050
28.565,70.3125,-0.006050
28.595,70.3463,-0.006050
28.626,70.3814,-0.016580
28.657,70.4158,-0.016580
28.688,70.4493,-0.016580
28.719,70.4829,-0.016580
28.750,70.5149,-0.016580
28.781,70.5458,-0.016580
28.811,70.5750,-0.016580
28.843,70.6054,-0.016580
28.873,70.6341,-0.016580
28.904,70.6622,-0.036820
28.935,70.6893,-0.036820
28.967,70.7182,-0.036820
28.997,70.7426,-0.036820
29.028,70.7681,-0.036820
29.059,70.7927,-0.036820
29.090,70.8171,-0.036820
29.121,70.8408,-0.065040
29.152,70.8625,-0.065040
29.183,70.8842,-0.065040
29.215,70.9061,-0.065040
29.246,70.9263,-0.065040
29.277,70.9464,-0.065040
29.308,70.9650,-0.065040
29.340,70.9836,-0.065040
29.370,71.0003,-0.094078
29.401,71.0176,-0.094078
29.432,71.0329,-0.094078
29.464,71.0488,-0.094078
29.495,71.0632,-0.094078
29.527,71.0775,-0.094078
29.557,71.0902,-0.094078
29.589,71.1029,-0.094078
29.619,71.1142,-0.119917
29.650,71.1247,-0.119917
29.681,71.1349,-0.119917
29.712,71.1443,-0.119917
29.743,71.1531,-0.119917
29.773,71.1608,-0.119917
29.807,71.1687,-0.119917
29.835,71.1746,-0.119917
29.867,71.1803,-0.150075
29.898,71.1855,-0.150075
29.929,71.1897,-0.150075
29.960,71.1933,-0.150075
29.991,71.1962,-0.150075
30.022,71.1983,-0.150075
30.053,71.1996,-0.150075
30.084,71.2004,-0.150075
30.115,71.2004,-0.175067
30.146,71.2004,-0.175067
30.177,71.2004,-0.175067
30.209,71.2004,-0.175067
30.240,71.2004,-0.175067
30.271,71.2004,-0.175067
30.302,71.2004,-0.175067
30.333,71.2004,-0.175067
30.365,71.2004,-0.160529
30.397,71.2004,-0.160529
30.427,71.2004,-0.160529
30.458,71.2004,-0.160529
30.492,71.2004,-0.160529
30.520,71.2004,-0.160529
30.551,71.2004,-0.160529
30.581,71.2004,-0.160529
30.613,71.2004,-0.130493
30.643,71.2004,-0.130493
30.673,71.2004,-0.130493
30.705,71.2004,-0.130493
30.736,71.2004,-0.130493
30.767,71.2004,-0.130493
30.798,71.2004,-0.130493
30.829,71.2004,-0.130493
30.860,71.2004,-0.117386
30.891,71.2004,-0.117386
30.922,71.2004,-0.117386
30.953,71.2004,-0.117386
30.985,71.2004,-0.117386
31.015,71.2004,-0.117386
31.046,71.2004,-0.117386
31.078,71.2004,-0.117386
31.109,71.2004,-0.117386
31.140,71.2004,-0.109689
31.171,71.2004,-0.109689
31.202,71.2004,-0.109689
31.233,71.2004,-0.109689
31.264,71.2004,-0.109689
31.296,71.2004,-0.109689
31.327,71.2004,-0.109689
31.357,71.2004,-0.109689
31.389,71.2004,-0.104033
31.420,71.2004,-0.104033
31.451,71.2004,-0.104033
31.482,71.2004,-0.104033
31.513,71.2004,-0.104033
31.544,71.2004,-0.104033
31.575,71.2004,-0.104033
31.606,71.2004,-0.104033
31.638,71.2004,-0.099667
31.669,71.2004,-0.099667
31.700,71.2004,-0.099667
31.733,71.2004,-0.099667
31.763,71.2004,-0.099667
31.796,71.2004,-0.099667
31.825,71.2004,-0.099667
31.857,71.2004,-0.099667
31.887,71.2004,-0.096186
31.919,71.2004,-0.096186
31.949,71.2004,-0.096186
31.981,71.2004,-0.096186
32.011,71.2004,-0.096186
32.042,71.2004,-0.096186
32.073,71.2004,-0.096186
32.103,71.2004,-0.096186
32.135,71.2004,-0.093372
32.165,71.2004,-0.093372
32.196,71.2004,-0.093372
32.227,71.2004,-0.093372
32.258,71.2004,-0.093372
32.288,71.2004,-0.093372
32.318,71.2004,-0.093372
32.349,71.2004,-0.093372
32.381,71.2004,-0.090822
32.412,71.2004,-0.090822
32.443,71.2004,-0.090822
32.474,71.2004,-0.090822
32.505,71.2004,-0.090822
32.536,71.2004,-0.090822
32.567,71.2004,-0.090822
32.598,71.2004,-0.090822
32.630,71.2004,-0.090822
32.660,71.2004,-0.088677
32.692,71.2004,-0.088677
32.722,71.2004,-0.088677
32.754,71.2004,-0.088677
32.784,71.2004,-0.088677
32.815,71.2004,-0.088677
32.847,71.2004,-0.088677
32.876,71.2004,-0.086776
32.910,71.2004,-0.086776
32.938,71.2004,-0.086776
32.970,71.2004,-0.086776
33.000,71.2004,-0.086776
33.032,71.2004,-0.086776
33.063,71.2004,-0.086776
33.094,71.2004,-0.086776
33.125,71.2004,-0.085007
33.156,71.2004,-0.085007
33.187,71.2004,-0.085007
33.219,71.2004,-0.085007
33.250,71.2004,-0.085007
33.280,71.2004,-0.085007
33.310,71.2004,-0.085007
33.341,71.2004,-0.085007
33.372,71.2004,-0.083502
33.403,71.2004,-0.083502
33.433,71.2004,-0.083502
33.464,71.2004,-0.083502
33.495,71.2004,-0.083502
33.526,71.2004,-0.083502
33.558,71.2004,-0.083502
33.589,71.2004,-0.083502
33.619,71.2004,-0.083502
33.644,71.2004,-0.082250
33.681,71.2004,-0.082250
33.712,71.2004,-0.082250
33.745,71.2004,-0.082250
33.775,71.2004,-0.082250
33.807,71.2004,-0.082250
33.837,71.2004,-0.082250
33.867,71.2004,-0.082250
33.902,71.2004,-0.081017
33.930,71.2004,-0.081017
33.961,71.2004,-0.081017
33.993,71.2004,-0.081017
34.023,71.2004,-0.081017
34.054,71.2004,-0.081017
34.088,71.2004,-0.081017
34.116,71.2004,-0.081017
34.147,71.2004,-0.079945
34.177,71.2004,-0.079945
34.208,71.2004,-0.079945
34.239,71.2004,-0.079945
34.270,71.2004,-0.079945
34.302,71.2004,-0.079945
34.333,71.2004,-0.079945
34.364,71.2004,-0.079032
34.395,71.2004,-0.079032
34.427,71.2004,-0.079032
34.458,71.2004,-0.079032
34.488,71.2004,-0.079032
34.520,71.2004,-0.079032
34.551,71.2004,-0.079032
34.582,71.2004,-0.079032
34.613,71.2004,-0.078354
34.645,71.2004,-0.078354
34.675,71.2004,-0.078354
34.706,71.2004,-0.078354
34.737,71.2004,-0.078354
34.768,71.2001,-0.078354
34.799,71.1993,-0.078354
34.831,71.1975,-0.078354
34.861,71.1952,-0.077950
34.893,71.1919,-0.077950
34.923,71.1882,-0.077950
34.955,71.1833,-0.077950
34.986,71.1783,-0.077950
35.017,71.1721,-0.077950
35.048,71.1655,-0.077950
35.079,71.1578,-0.077950
35.111,71.1494,-0.048676
35.141,71.1406,-0.048676
35.172,71.1312,-0.048676
35.203,71.1206,-0.048676
35.234,71.1098,-0.048676
35.265,71.0977,-0.048676
35.296,71.0851,-0.048676
35.327,71.0718,-0.048676
35.357,71.0581,-0.011753
35.389,71.0431,-0.011753
35.420,71.0279,-0.011753
35.451,71.0115,-0.011753
35.483,70.9939,-0.011753
35.514,70.9761,-0.011753
35.545,70.9580,-0.011753
35.576,70.9384,-0.011753
35.606,70.9192,0.010831
35.638,70.8977,0.010831
35.669,70.8767,0.010831
35.700,70.8545,0.010831
35.732,70.8313,0.010831
35.762,70.8082,0.010831
35.793,70.7839,0.010831
35.824,70.7585,0.010831
35.854,70.7344,0.039718
35.886,70.7068,0.039718
35.917,70.6801,0.039718
35.948,70.6518,0.039718
35.979,70.6233,0.039718
36.011,70.5925,0.039718
36.042,70.5631,0.039718
36.073,70.5323,0.039718
36.104,70.5004,0.067646
36.136,70.4675,0.067646
36.166,70.4350,0.067646
36.199,70.3994,0.067646
36.229,70.3662,0.067646
36.260,70.3308,0.067646
36.290,70.2956,0.067646
36.321,70.2598,0.067646
36.352,70.2219,0.096769
36.384,70.1831,0.096769
36.415,70.1434,0.096769
36.445,70.1049,0.096769
36.476,70.0641,0.096769
36.507,70.0236,0.096769
36.538,69.9817,0.096769
36.569,69.9398,0.096769
36.601,69.8942,0.128546
36.632,69.8507,0.128546
36.663,69.8056,0.128546
36.695,69.7596,0.128546
36.726,69.7128,0.128546
36.756,69.6692,0.128546
36.787,69.6211,0.128546
36.817,69.5737,0.128546
36.849,69.5242,0.128546
36.880,69.4740,0.128546
36.910,69.4248,0.147139
36.941,69.3734,0.147139
36.972,69.3212,0.147139
37.003,69.2676,0.147139
37.035,69.2139,0.147139
37.064,69.1617,0.147139
37.099,69.1008,0.147139
37.126,69.0517,0.137268
37.157,68.9967,0.137268
37.188,68.9403,0.137268
37.220,68.8791,0.137268
37.250,68.8230,0.137268
37.282,68.7636,0.137268
37.312,68.7045,0.137268
37.344,68.6421,0.137268
37.374,68.5851,0.137268
37.405,68.5251,0.073029
37.435,68.4686,0.073029
37.466,68.4106,0.073029
37.497,68.3544,0.073029
37.528,68.2977,0.073029
37.559,68.2436,0.073029
37.590,68.1881,0.073029
37.621,68.1339,0.014641
37.651,68.0803,0.014641
37.682,68.0287,0.014641
37.713,67.9776,0.014641
37.744,67.9258,0.014641
37.774,67.8768,0.014641
37.805,67.8268,0.014641
37.841,67.7709,0.014641
37.867,67.7303,0.007819
37.898,67.6821,0.007819
37.928,67.6370,0.007819
37.960,67.5899,0.007819
37.989,67.5479,0.007819
38.020,67.5010,0.007819
38.052,67.4576,0.007819
38.083,67.4127,0.007819
38.115,67.3709,0.007142
38.146,67.3280,0.007142
38.176,67.2884,0.007142
38.210,67.2427,0.007142
38.237,67.2094,0.007142
38.268,67.1705,0.007142
38.299,67.1326,0.007142
38.330,67.0952,0.007142
38.361,67.0585,0.007142
38.391,67.0234,0.006869
38.423,66.9873,0.006869
38.453,66.9534,0.006869
38.483,66.9203,0.006869
38.515,66.8872,0.006869
38.546,66.8542,0.006869
38.577,66.8232,0.006869
38.608,66.7918,0.006709
38.639,66.7619,0.006709
38.671,66.7309,0.006709
38.702,66.7028,0.006709
38.733,66.6745,0.006709
38.763,66.6480,0.006709
38.795,66.6209,0.006709
38.826,66.5956,0.006709
38.856,66.5706,0.006662
38.887,66.5463,0.006662
38.917,66.5231,0.006662
38.949,66.5001,0.006662
38.980,66.4777,0.006662
39.011,66.4566,0.006662
39.042,66.4355,0.006662
39.072,66.4157,0.006662
39.103,66.3969,0.006587
39.134,66.3783,0.006587
39.165,66.3604,0.006587
39.200,66.3414,0.006587
39.228,66.3267,0.006587
39.260,66.3104,0.006587
39.290,66.2954,0.006587
39.321,66.2817,0.006587
39.352,66.2682,0.006446
39.384,66.2552,0.006446
39.415,66.2434,0.006446
39.445,66.2319,0.006446
39.476,66.2217,0.006446
39.507,66.2119,0.006446
39.538,66.2028,0.006446
39.569,66.1944,0.006446
39.599,66.1870,0.006446
39.631,66.1798,0.006248
39.662,66.1738,0.006248
39.693,66.1682,0.006248
39.723,66.1637,0.006248
39.754,66.1596,0.006248
39.785,66.1563,0.006248
39.817,66.1536,0.006248
39.847,66.1519,0.006154
39.879,66.1508,0.006154
39.909,66.1504,0.006154
39.940,66.1504,0.006154
39.971,66.1504,0.006154
40.001,66.1504,0.006154
40.032,66.1504,0.006154
40.064,66.1504,0.006154
40.095,66.1504,0.006154
40.126,66.1504,0.006154
40.157,66.1504,0.006135
40.188,66.1504,0.006135
40.220,66.1504,0.006135
40.251,66.1504,0.006135
40.283,66.1504,0.006135
40.312,66.1504,0.006135
40.344,66.1504,0.006135
40.375,66.1504,0.006079
40.406,66.1505,0.006079
40.436,66.1514,0.006079
40.467,66.1530,0.006079
40.498,66.1552,0.006079
40.529,66.1583,0.006079
40.559,66.1620,0.006079
40.590,66.1664,0.006079
40.620,66.1716,0.005966
40.651,66.1773,0.005966
40.682,66.1840,0.005966
40.713,66.1912,0.005966
40.743,66.1992,0.005966
40.774,66.2081,0.005966
40.805,66.2175,0.005966
40.837,66.2280,0.005966
40.867,66.2387,0.005872
40.898,66.2505,0.005872
40.930,66.2631,0.005872
40.960,66.2760,0.005872
40.992,66.2903,0.005872
41.022,66.3044,0.005872
41.052,66.3195,0.005872
41.084,66.3358,0.005872
41.115,66.3527,0.005683
41.146,66.3704,0.005683
41.177,66.3890,0.005683
41.208,66.4072,0.005683
41.239,66.4271,0.005683
41.269,66.4472,0.005683
41.300,66.4676,0.005683
41.330,66.4891,0.005683
41.361,66.5114,0.005458
41.393,66.5355,0.005458
41.423,66.5590,0.005458
41.455,66.5847,0.005458
41.485,66.6091,0.005458
41.517,66.6368,0.005458
41.549,66.6640,0.005458
41.580,66.6919,0.005458
41.610,66.7194,0.005269
41.641,66.7484,0.005269
41.673,66.7792,0.005269
41.704,66.8099,0.005269
41.735,66.8407,0.005269
41.766,66.8728,0.005269
41.797,66.9056,0.005269
41.828,66.9387,0.005269
41.859,66.9739,0.004978
41.890,67.0092,0.004978
41.921,67.0445,0.004978
41.954,67.0825,0.004978
41.983,67.1174,0.004978
42.013,67.1552,0.004978
42.044,67.1935,0.004978
42.076,67.2334,0.004978
42.105,67.2709,0.004667
42.136,67.3122,0.004667
42.167,67.3533,0.004667
42.198,67.3956,0.004667
42.230,67.4400,0.004667
42.260,67.4824,0.004667
42.291,67.5273,0.004667
42.322,67.5716,0.004667
42.353,67.6182,0.004667
42.383,67.6631,0.004300
42.415,67.7103,0.004300
42.445,67.7571,0.004300
42.475,67.8047,0.004300
42.506,67.8551,0.004300
42.537,67.9043,0.004300
42.569,67.9562,0.004300
42.599,68.0073,0.003764
42.629,68.0597,0.003764
42.661,68.1128,0.003764
42.692,68.1665,0.003764
42.721,68.2180,0.003764
42.753,68.2739,0.003764
42.783,68.3298,0.003764
42.814,68.3857,0.003764
42.845,68.4437,0.003764
42.877,68.5032,0.003764
42.908,68.5636,0.003002
42.939,68.6203,0.003002
42.970,68.6815,0.003002
43.002,68.7417,0.003002
43.032,68.7998,0.003002
43.064,68.8584,0.003002
43.094,68.9140,0.003002
43.125,68.9718,0.001967
43.156,69.0278,0.001967
43.188,69.0843,0.001967
43.219,69.1379,0.001967
43.249,69.1914,0.001967
43.280,69.2444,0.001967
43.311,69.2969,0.001967
43.341,69.3467,0.001967
43.373,69.3984,0.001967
43.404,69.4485,0.000395
43.435,69.4989,0.000395
43.466,69.5471,0.000395
43.498,69.5972,0.000395
43.529,69.6434,0.000395
43.561,69.6921,0.000395
43.592,69.7375,0.000395
43.624,69.7832,0.000395
43.655,69.8283,-0.002399
43.686,69.8722,-0.002399
43.717,69.9135,-0.002399
43.747,69.9549,-0.002399
43.778,69.9959,-0.002399
43.808,70.0360,-0.002399
43.840,70.0771,-0.002399
43.870,70.1144,-0.002399
43.901,70.1531,-0.008563
43.932,70.1908,-0.008563
43.963,70.2278,-0.008563
43.993,70.2635,-0.008563
44.024,70.2986,-0.008563
44.056,70.3337,-0.008563
44.087,70.3683,-0.008563
44.118,70.4022,-0.022009
44.149,70.4339,-0.022009
44.179,70.4661,-0.022009
44.210,70.4962,-0.022009
44.241,70.5267,-0.022009
44.279,70.5630,-0.022009
44.319,70.6006,-0.022009
44.350,70.6281,-0.022009
44.381,70.6552,-0.045449
44.411,70.6815,-0.045449
44.443,70.7075,-0.045449
44.473,70.7314,-0.045449
44.503,70.7557,-0.045449
44.535,70.7799,-0.045449
44.566,70.8026,-0.045449
44.597,70.8251,-0.074685
44.628,70.8463,-0.074685
44.661,70.8681,-0.074685
44.691,70.8873,-0.074685
44.721,70.9061,-0.074685
44.752,70.9243,-0.074685
44.782,70.9420,-0.074685
44.813,70.9591,-0.074685
44.844,70.9749,-0.074685
44.875,70.9910,-0.074685
44.906,71.0054,-0.102707
44.937,71.0198,-0.102707
44.968,71.0329,-0.102707
45.000,71.0463,-0.102707
45.030,71.0580,-0.102707
45.060,71.0687,-0.102707
45.091,71.0792,-0.102707
45.121,71.0887,-0.127896
45.153,71.0983,-0.127896
45.184,71.1065,-0.127896
45.215,71.1140,-0.127896
45.245,71.1209,-0.127896
45.276,71.1269,-0.127896
45.307,71.1323,-0.127896
45.338,71.1371,-0.127896
45.369,71.1411,-0.159758
45.400,71.1444,-0.159758
45.431,71.1470,-0.159758
45.462,71.1488,-0.159758
45.493,71.1499,-0.159758
45.525,71.1503,-0.159758
45.551,71.1503,-0.159758
45.587,71.1503,-0.159758
45.617,71.1503,-0.159758
45.647,71.1503,-0.175039
45.678,71.1503,-0.175039
45.710,71.1503,-0.175039
45.740,71.1503,-0.175039
45.771,71.1503,-0.175039
45.802,71.1503,-0.175039
45.834,71.1503,-0.175039
45.864,71.1503,-0.175039
45.896,71.1503,-0.151392
45.925,71.1503,-0.151392
45.956,71.1503,-0.151392
45.988,71.1503,-0.151392
46.018,71.1503,-0.151392
46.050,71.1503,-0.151392
46.083,71.1503,-0.151392
46.113,71.1503,-0.125488
46.145,71.1503,-0.125488
46.176,71.1503,-0.125488
46.207,71.1503,-0.125488
46.238,71.1503,-0.125488
46.269,71.1503,-0.125488
46.300,71.1503,-0.125488
46.331,71.1503,-0.125488
46.362,71.1503,-0.114770
46.393,71.1503,-0.114770
46.425,71.1503,-0.114770
46.456,71.1503,-0.114770
46.488,71.1503,-0.114770
46.519,71.1503,-0.114770
46.549,71.1503,-0.114770
46.581,71.1503,-0.114770
46.612,71.1503,-0.114770
46.643,71.1503,-0.107835
46.673,71.1503,-0.107835
46.703,71.1503,-0.107835
46.735,71.1503,-0.107835
46.766,71.1503,-0.107835
46.796,71.1503,-0.107835
46.828,71.1503,-0.107835
46.859,71.1503,-0.102622
46.890,71.1503,-0.102622
46.922,71.1503,-0.102622
46.953,71.1503,-0.102622
46.983,71.1503,-0.102622
47.015,71.1503,-0.102622
47.046,71.1503,-0.102622
47.077,71.1503,-0.102622
47.108,71.1503,-0.102622
47.138,71.1503,-0.098585
47.169,71.1503,-0.098585
47.200,71.1503,-0.098585
47.232,71.1503,-0.098585
47.263,71.1503,-0.098585
47.294,71.1503,-0.098585
47.326,71.1503,-0.098585
47.357,71.1503,-0.095339
47.388,71.1503,-0.095339
47.418,71.1503,-0.095339
47.449,71.1503,-0.095339
47.481,71.1503,-0.095339
47.512,71.1503,-0.095339
47.542,71.1503,-0.095339
47.572,71.1503,-0.095339
47.604,71.1503,-0.095339
47.635,71.1503,-0.092572
47.666,71.1503,-0.092572
47.698,71.1503,-0.092572
47.729,71.1503,-0.092572
47.760,71.1503,-0.092572
47.791,71.1503,-0.092572
47.822,71.1503,-0.092572
47.854,71.1503,-0.090079
47.886,71.1503,-0.090079
47.917,71.1503,-0.090079
47.949,71.1503,-0.090079
47.979,71.1503,-0.090079
48.010,71.1503,-0.090079
48.040,71.1503,-0.090079
48.072,71.1503,-0.090079
48.102,71.1503,-0.088056
48.133,71.1503,-0.088056
48.164,71.1503,-0.088056
48.195,71.1503,-0.088056
48.227,71.1503,-0.088056
48.258,71.1503,-0.088056
48.289,71.1503,-0.088056
48.321,71.1503,-0.088056
48.351,71.1503,-0.086296
48.383,71.1503,-0.086296
48.413,71.1503,-0.086296
48.443,71.1503,-0.086296
48.475,71.1503,-0.086296
48.506,71.1503,-0.086296
48.538,71.1503,-0.086296
48.569,71.1503,-0.086296
48.600,71.1503,-0.084621
48.631,71.1503,-0.084621
48.662,71.1503,-0.084621
48.693,71.1503,-0.084621
48.725,71.1503,-0.084621
48.755,71.1503,-0.084621
48.786,71.1503,-0.084621
48.817,71.1503,-0.084621
48.848,71.1503,-0.083106
48.879,71.1503,-0.083106
48.910,71.1503,-0.083106
48.940,71.1503,-0.083106
48.971,71.1503,-0.083106
49.003,71.1503,-0.083106
49.034,71.1503,-0.083106
49.065,71.1503,-0.083106
49.096,71.1503,-0.083106
49.127,71.1503,-0.081827
49.158,71.1503,-0.081827
49.189,71.1503,-0.081827
49.220,71.1503,-0.081827
49.250,71.1503,-0.081827
49.281,71.1503,-0.081827
49.312,71.1503,-0.081827
49.343,71.1503,-0.081827
49.375,71.1503,-0.080697
49.405,71.1503,-0.080697
49.437,71.1503,-0.080697
49.469,71.1503,-0.080697
49.499,71.1503,-0.080697
49.529,71.1503,-0.080697
49.561,71.1503,-0.080697
49.597,71.1503,-0.080697
49.623,71.1503,-0.079634
49.654,71.1503,-0.079634
49.685,71.1503,-0.079634
49.716,71.1503,-0.079634
49.747,71.1503,-0.079634
49.778,71.1503,-0.079634
49.809,71.1503,-0.079634
49.841,71.1503,-0.079634
49.872,71.1503,-0.078891
49.903,71.1503,-0.078891
49.935,71.1503,-0.078891
49.966,71.1503,-0.078891
49.998,71.1503,-0.078891
50.029,71.1499,-0.078891
50.060,71.1488,-0.078891
50.090,71.1470,-0.078891
50.121,71.1444,-0.078241
50.152,71.1411,-0.078241
50.183,71.1371,-0.078241
50.215,71.1322,-0.078241
50.246,71.1268,-0.078241
50.277,71.1205,-0.078241
50.308,71.1136,-0.078241
50.339,71.1057,-0.078241
50.371,71.0974,-0.078241
50.401,71.0884,-0.049533
50.431,71.0788,-0.049533
50.462,71.0683,-0.049533
50.493,71.0570,-0.049533
50.524,71.0451,-0.049533
50.555,71.0322,-0.049533
50.587,71.0183,-0.049533
50.618,71.0043,-0.013051
50.649,70.9893,-0.013051
50.681,70.9732,-0.013051
50.712,70.9567,-0.013051
50.743,70.9395,-0.013051
50.777,70.9198,-0.013051
50.804,70.9037,-0.013051
50.834,70.8845,-0.013051
50.865,70.8650,0.009664
50.896,70.8439,0.009664
50.927,70.8218,0.009664
50.959,70.8001,0.009664
50.990,70.7762,0.009664
51.020,70.7538,0.009664
51.051,70.7290,0.009664
51.082,70.7043,0.009664
51.116,70.6760,0.038495
51.145,70.6513,0.038495
51.175,70.6238,0.038495
51.208,70.5946,0.038495
51.238,70.5670,0.038495
51.269,70.5377,0.038495
51.304,70.5029,0.038495
51.332,70.4755,0.038495
51.364,70.4425,0.066498
51.394,70.4107,0.066498
51.425,70.3770,0.066498
51.457,70.3437,0.066498
51.487,70.3094,0.066498
51.518,70.2748,0.066498
51.548,70.2389,0.066498
51.580,70.2016,0.066498
51.610,70.1650,0.066498
51.641,70.1267,0.095461
51.673,70.0871,0.095461
51.704,70.0478,0.095461
51.735,70.0065,0.095461
51.765,69.9662,0.095461
51.800,69.9190,0.095461
51.828,69.8805,0.095461
51.860,69.8369,0.095461
51.890,69.7927,0.126890
51.921,69.7489,0.126890
51.952,69.7038,0.126890
51.988,69.6490,0.126890
52.015,69.6083,0.126890
52.045,69.5620,0.126890
52.076,69.5130,0.126890
52.107,69.4638,0.126890
52.139,69.4122,0.146396
52.171,69.3602,0.146396
52.200,69.3111,0.146396
52.232,69.2592,0.146396
52.263,69.2058,0.146396
52.293,69.1547,0.146396
52.323,69.1014,0.146396
52.354,69.0472,0.146396
52.385,68.9905,0.137532
52.416,68.9333,0.137532
52.447,68.8782,0.137532
52.478,68.8197,0.137532
52.509,68.7617,0.137532
52.540,68.7029,0.137532
52.570,68.6439,0.137532
52.602,68.5822,0.137532
52.633,68.5226,0.073537
52.664,68.4630,0.073537
52.694,68.4060,0.073537
52.725,68.3487,0.073537
52.756,68.2913,0.073537
52.791,68.2298,0.073537
52.817,68.1829,0.073537
52.849,68.1264,0.073537
52.879,68.0724,0.015093
52.910,68.0213,0.015093
52.941,67.9678,0.015093
52.971,67.9182,0.015093
53.004,67.8625,0.015093
53.032,67.8178,0.015093
53.062,67.7694,0.015093
53.094,67.7192,0.015093
53.125,67.6713,0.007998
53.156,67.6239,0.007998
53.187,67.5775,0.007998
53.218,67.5310,0.007998
53.248,67.4875,0.007998
53.279,67.4428,0.007998
53.310,67.3990,0.007998
53.341,67.3565,0.007255
53.372,67.3126,0.007255
53.403,67.2716,0.007255
53.435,67.2304,0.007255
53.466,67.1902,0.007255
53.497,67.1498,0.007255
53.528,67.1119,0.007255
53.559,67.0727,0.007255
53.590,67.0362,0.007255
53.620,67.0011,0.007255
53.651,66.9655,0.006916
53.682,66.9296,0.006916
53.712,66.8963,0.006916
53.743,66.8629,0.006916
53.775,66.8297,0.006916
53.806,66.7964,0.006916
53.835,66.7670,0.006916
53.866,66.7368,0.006916
53.896,66.7072,0.006803
53.928,66.6775,0.006803
53.958,66.6490,0.006803
53.989,66.6217,0.006803
54.020,66.5946,0.006803
54.056,66.5636,0.006803
54.082,66.5422,0.006803
54.113,66.5166,0.006803
54.144,66.4926,0.006653
54.175,66.4691,0.006653
54.206,66.4465,0.006653
54.238,66.4241,0.006653
54.268,66.4029,0.006653
54.300,66.3821,0.006653
54.330,66.3627,0.006653
54.361,66.3435,0.006653
54.392,66.3250,0.006521
54.423,66.3070,0.006521
54.454,66.2903,0.006521
54.486,66.2734,0.006521
54.517,66.2580,0.006521
54.548,66.2428,0.006521
54.579,66.2291,0.006521
54.615,66.2134,0.006521
54.641,66.2031,0.006389
54.672,66.1913,0.006389
54.703,66.1801,0.006389
54.735,66.1695,0.006389
54.765,66.1602,0.006389
54.796,66.1511,0.006389
54.827,66.1429,0.006389
54.858,66.1355,0.006389
54.889,66.1287,0.006304
54.921,66.1224,0.006304
54.950,66.1173,0.006304
54.981,66.1127,0.006304
55.013,66.1088,0.006304
55.045,66.1055,0.006304
55.075,66.1031,0.006304
55.107,66.1014,0.006304
55.136,66.1005,0.006192
55.167,66.1003,0.006192
55.199,66.1003,0.006192
55.230,66.1003,0.006192
55.261,66.1003,0.006192
55.293,66.1003,0.006192
55.323,66.1003,0.006192
55.354,66.1003,0.006192
55.386,66.1003,0.006050
55.418,66.1003,0.006050
55.449,66.1003,0.006050
55.481,66.1003,0.006050
55.512,66.1003,0.006050
55.543,66.1003,0.006050
55.573,66.1003,0.006050
55.603,66.1003,0.006050
55.633,66.1003,0.006097
55.666,66.1008,0.006097
55.696,66.1019,0.006097
55.728,66.1039,0.006097
55.758,66.1065,0.006097
55.789,66.1098,0.006097
55.821,66.1139,0.006097
55.852,66.1189,0.006097
55.883,66.1243,0.006097
55.914,66.1308,0.006069
55.944,66.1376,0.006069
55.976,66.1455,0.006069
56.007,66.1539,0.006069
56.037,66.1632,0.006069
56.069,66.1731,0.006069
56.099,66.1836,0.006069
56.131,66.1950,0.005834
56.162,66.2073,0.005834
56.193,66.2201,0.005834
56.224,66.2340,0.005834
56.255,66.2479,0.005834
56.285,66.2631,0.005834
56.317,66.2787,0.005834
56.348,66.2954,0.005834
56.380,66.3130,0.005599
56.410,66.3307,0.005599
56.441,66.3487,0.005599
56.472,66.3684,0.005599
56.503,66.3883,0.005599
56.533,66.4090,0.005599
56.565,66.4309,0.005599
56.597,66.4536,0.005599
56.628,66.4769,0.005420
56.659,66.5014,0.005420
56.690,66.5251,0.005420
56.720,66.5504,0.005420
56.752,66.5765,0.005420
56.782,66.6023,0.005420
56.813,66.6300,0.005420
56.843,66.6580,0.005420
56.875,66.6862,0.005232
56.905,66.7154,0.005232
56.937,66.7467,0.005232
56.968,66.7781,0.005232
57.001,66.8109,0.005232
57.032,66.8443,0.005232
57.063,66.8778,0.005232
57.094,66.9106,0.005232
57.125,66.9457,0.004997
57.156,66.9820,0.004997
57.187,67.0177,0.004997
57.218,67.0540,0.004997
57.249,67.0916,0.004997
57.280,67.1307,0.004997
57.311,67.1687,0.004997
57.342,67.2093,0.004997
57.373,67.2503,0.004705
57.404,67.2919,0.004705
57.436,67.3346,0.004705
57.467,67.3778,0.004705
57.498,67.4205,0.004705
57.529,67.4644,0.004705
57.559,67.5077,0.004705
57.591,67.5556,0.004705
57.622,67.6026,0.004225
57.654,67.6496,0.004225
57.687,67.7010,0.004225
57.717,67.7500,0.004225
57.748,67.7969,0.004225
57.779,67.8480,0.004225
57.809,67.8971,0.004225
57.841,67.9491,0.004225
57.872,68.0013,0.003679
57.902,68.0541,0.003679
57.934,68.1097,0.003679
57.964,68.1622,0.003679
57.996,68.2182,0.003679
58.027,68.2735,0.003679
58.060,68.3346,0.003679
58.089,68.3873,0.003679
58.116,68.4405,0.002973
58.151,68.5055,0.002973
58.182,68.5664,0.002973
58.214,68.6273,0.002973
58.244,68.6849,0.002973
58.276,68.7448,0.002973
58.307,68.8031,0.002973
58.337,68.8607,0.002973
58.368,68.9161,0.001929
58.400,68.9733,0.001929
58.431,69.0282,0.001929
58.462,69.0834,0.001929
58.493,69.1369,0.001929
58.527,69.1966,0.001929
58.556,69.2445,0.001929
58.586,69.2945,0.001929
58.620,69.3499,0.000367
58.655,69.4076,0.000367
58.696,69.4714,0.000367
58.726,69.5176,0.000367
58.759,69.5703,0.000367
58.787,69.6113,0.000367
58.819,69.6590,0.000367
58.850,69.7048,-0.002588
58.881,69.7495,-0.002588
58.912,69.7928,-0.002588
58.944,69.8375,-0.002588
58.974,69.8788,-0.002588
59.005,69.9206,-0.002588
59.035,69.9609,-0.002588
59.069,70.0040,-0.002588
59.097,70.0415,-0.008902
59.127,70.0787,-0.008902
59.158,70.1157,-0.008902
59.188,70.1522,-0.008902
59.219,70.1893,-0.008902
59.250,70.2260,-0.008902
59.281,70.2603,-0.008902
59.311,70.2950,-0.008902
59.343,70.3294,-0.008902
59.374,70.3627,-0.022593
59.405,70.3943,-0.022593
59.436,70.4262,-0.022593
59.466,70.4565,-0.022593
59.498,70.4879,-0.022593
59.529,70.5176,-0.022593
59.561,70.5461,-0.022593
59.591,70.5740,-0.022593
59.622,70.6007,-0.046352
59.653,70.6279,-0.046352
59.684,70.6531,-0.046352
59.715,70.6791,-0.046352
59.746,70.7037,-0.046352
59.777,70.7265,-0.046352
59.808,70.7497,-0.046352
59.839,70.7720,-0.046352
59.870,70.7933,-0.046352
59.902,70.8144,-0.075663
59.933,70.8350,-0.075663
59.963,70.8537,-0.075663
59.994,70.8726,-0.075663
60.025,70.8901,-0.075663
60.055,70.9067,-0.075663
60.087,70.9235,-0.075663
60.117,70.9389,-0.075663
60.149,70.9539,-0.103695
60.180,70.9686,-0.103695
60.210,70.9813,-0.103695
60.241,70.9942,-0.103695
60.271,71.0059,-0.103695
60.302,71.0173,-0.103695
60.334,71.0281,-0.103695
60.365,71.0381,-0.128960
60.395,71.0470,-0.128960
60.429,71.0560,-0.128960
60.458,71.0632,-0.128960
60.490,71.0705,-0.128960
60.520,71.0766,-0.128960
60.550,71.0819,-0.128960
60.580,71.0866,-0.128960
60.614,71.0910,-0.128960
60.642,71.0941,-0.161009
60.673,71.0967,-0.161009
60.703,71.0985,-0.161009
60.735,71.0998,-0.161009
60.766,71.1003,-0.161009
60.799,71.1003,-0.161009
60.828,71.1003,-0.161009
60.859,71.1003,-0.161009
60.889,71.1003,-0.175669
60.921,71.1003,-0.175669
60.951,71.1003,-0.175669
60.983,71.1003,-0.175669
61.014,71.1003,-0.175669
61.046,71.1003,-0.175669
61.077,71.1003,-0.175669
61.108,71.1003,-0.175669
61.139,71.1003,-0.151722
61.170,71.1003,-0.151722
61.200,71.1003,-0.151722
61.231,71.1003,-0.151722
61.261,71.1003,-0.151722
61.293,71.1003,-0.151722
61.323,71.1003,-0.151722
61.361,71.1003,-0.151722
61.401,71.1003,-0.126090
61.433,71.1003,-0.126090
61.463,71.1003,-0.126090
61.495,71.1003,-0.126090
61.525,71.1003,-0.126090
61.557,71.1003,-0.126090
61.588,71.1003,-0.126090
61.619,71.1003,-0.126090
61.650,71.1003,-0.115137
61.682,71.1003,-0.115137
61.714,71.1003,-0.115137
61.746,71.1003,-0.115137
61.776,71.1003,-0.115137
61.807,71.1003,-0.115137
61.839,71.1003,-0.115137
61.870,71.1003,-0.108174
61.902,71.1003,-0.108174
61.933,71.1003,-0.108174
61.964,71.1003,-0.108174
61.996,71.1003,-0.108174
62.027,71.1003,-0.108174
62.057,71.1003,-0.108174
62.089,71.1003,-0.108174
62.120,71.1003,-0.103017
62.152,71.1003,-0.103017
62.183,71.1003,-0.103017
62.214,71.1003,-0.103017
62.244,71.1003,-0.103017
62.276,71.1003,-0.103017
62.305,71.1003,-0.103017
62.337,71.1003,-0.103017
62.368,71.1003,-0.098971
62.399,71.1003,-0.098971
62.430,71.1003,-0.098971
62.462,71.1003,-0.098971
62.494,71.1003,-0.098971
62.524,71.1003,-0.098971
62.555,71.1003,-0.098971
62.585,71.1003,-0.098971
62.615,71.1003,-0.095621
62.647,71.1003,-0.095621
62.678,71.1003,-0.095621
62.709,71.1003,-0.095621
62.740,71.1003,-0.095621
62.771,71.1003,-0.095621
62.802,71.1003,-0.095621
62.834,71.1003,-0.095621
62.865,71.1003,-0.092827
62.896,71.1003,-0.092827
62.927,71.1003,-0.092827
62.958,71.1003,-0.092827
62.988,71.1003,-0.092827
63.019,71.1003,-0.092827
63.050,71.1003,-0.092827
63.080,71.1003,-0.092827
63.111,71.1003,-0.090436
63.142,71.1003,-0.090436
63.172,71.1003,-0.090436
63.203,71.1003,-0.090436
63.234,71.1003,-0.090436
63.269,71.1003,-0.090436
63.297,71.1003,-0.090436
63.328,71.1003,-0.090436
63.360,71.1003,-0.088376
63.391,71.1003,-0.088376
63.422,71.1003,-0.088376
63.453,71.1003,-0.088376
63.485,71.1003,-0.088376
63.516,71.1003,-0.088376
63.546,71.1003,-0.088376
63.577,71.1003,-0.088376
63.611,71.1003,-0.088376
63.639,71.1003,-0.088376
63.670,71.1003,-0.086531
63.701,71.1003,-0.086531
63.732,71.1003,-0.086531
63.763,71.1003,-0.086531
63.794,71.1003,-0.086531
63.825,71.1003,-0.086531
63.857,71.1003,-0.086531
63.889,71.1003,-0.084875
63.923,71.1003,-0.084875
63.950,71.1003,-0.084875
63.981,71.1003,-0.084875
64.012,71.1003,-0.084875
64.043,71.1003,-0.084875
64.073,71.1003,-0.084875
64.104,71.1003,-0.084875
64.135,71.1003,-0.084875
64.172,71.1003,-0.083417
64.212,71.1003,-0.083417
64.244,71.1003,-0.083417
64.276,71.1003,-0.083417
64.306,71.1003,-0.083417
64.338,71.1003,-0.083417
64.368,71.1003,-0.083417
64.399,71.1003,-0.082109
64.430,71.1003,-0.082109
64.461,71.1003,-0.082109
64.493,71.1003,-0.082109
64.525,71.1003,-0.082109
64.556,71.1003,-0.082109
64.587,71.1003,-0.082109
64.618,71.1003,-0.080857
64.656,71.1003,-0.080857
64.695,71.1003,-0.080857
64.726,71.1003,-0.080857
64.757,71.1003,-0.080857
64.788,71.1003,-0.080857
64.820,71.1003,-0.080857
64.850,71.1003,-0.079794
64.883,71.1003,-0.079794
64.912,71.1003,-0.079794
64.942,71.1003,-0.079794
64.973,71.1003,-0.079794
65.008,71.1003,-0.079794
65.035,71.1003,-0.079794
65.066,71.1003,-0.079794
65.097,71.1003,-0.078844
65.128,71.1003,-0.078844
65.158,71.1003,-0.078844
65.190,71.1003,-0.078844
65.220,71.1003,-0.078844
65.251,71.1003,-0.078844
65.282,71.1003,-0.078844
65.313,71.1003,-0.078844
65.343,71.1003,-0.078844
65.376,71.1003,-0.078844
65.405,71.1003,-0.078119
65.436,71.1003,-0.078119
65.469,71.1003,-0.078119
65.499,71.1003,-0.078119
65.530,71.1002,-0.078119
65.562,71.0995,-0.078119
65.593,71.0980,-0.078119
65.624,71.0959,-0.078119
65.655,71.0931,-0.077752
65.686,71.0895,-0.077752
65.717,71.0851,-0.077752
65.748,71.0799,-0.077752
65.779,71.0744,-0.077752
65.810,71.0677,-0.077752
65.841,71.0603,-0.077752
65.871,71.0528,-0.050285
65.900,71.0446,-0.050285
65.932,71.0350,-0.050285
65.969,71.0229,-0.050285
65.994,71.0140,-0.050285
66.026,71.0018,-0.050285
66.057,70.9897,-0.050285
66.088,70.9766,-0.014623
66.120,70.9627,-0.014623
66.151,70.9477,-0.014623
66.184,70.9314,-0.014623
66.209,70.9187,-0.014623
66.243,70.9006,-0.014623
66.273,70.8837,-0.014623
66.304,70.8660,-0.014623
66.335,70.8469,-0.014623
66.366,70.8276,0.008102
66.398,70.8066,0.008102
66.434,70.7822,0.008102
66.460,70.7636,0.008102
66.491,70.7406,0.008102
66.522,70.7179,0.008102
66.552,70.6946,0.008102
66.583,70.6699,0.008102
66.614,70.6445,0.036773
66.646,70.6176,0.036773
66.676,70.5917,0.036773
66.706,70.5643,0.036773
66.738,70.5356,0.036773
66.768,70.5073,0.036773
66.795,70.4818,0.036773
66.830,70.4482,0.036773
66.864,70.4136,0.064635
66.892,70.3844,0.064635
66.923,70.3517,0.064635
66.953,70.3194,0.064635
66.985,70.2845,0.064635
67.016,70.2496,0.064635
67.047,70.2135,0.064635
67.081,70.1733,0.064635
67.111,70.1391,0.064635
67.141,70.1014,0.092770
67.173,70.0628,0.092770
67.205,70.0223,0.092770
67.234,69.9838,0.092770
67.266,69.9419,0.092770
67.296,69.9016,0.092770
67.328,69.8579,0.092770
67.358,69.8171,0.092770
67.389,69.7734,0.122053
67.420,69.7297,0.122053
67.451,69.6844,0.122053
67.482,69.6382,0.122053
67.516,69.5869,0.122053
67.544,69.5453,0.122053
67.575,69.4963,0.122053
67.607,69.4474,0.137739
67.638,69.3968,0.137739
67.670,69.3462,0.137739
67.699,69.2975,0.137739
67.730,69.2461,0.137739
67.761,69.1930,0.137739
67.791,69.1437,0.137739
67.821,69.0891,0.137739
67.849,69.0410,0.137739
67.883,68.9802,0.128913
67.914,68.9240,0.128913
67.945,68.8686,0.128913
67.976,68.8119,0.128913
68.007,68.7524,0.128913
68.037,68.6958,0.128913
68.068,68.6362,0.128913
68.098,68.5779,0.128913
68.129,68.5182,0.070309
68.159,68.4592,0.070309
68.190,68.4008,0.070309
68.222,68.3430,0.070309
68.252,68.2854,0.070309
68.285,68.2253,0.070309
68.313,68.1761,0.070309
68.343,68.1217,0.070309
68.375,68.0667,0.015008
68.406,68.0112,0.015008
68.437,67.9596,0.015008
68.468,67.9075,0.015008
68.499,67.8557,0.015008
68.531,67.8032,0.015008
68.561,67.7530,0.015008
68.596,67.6988,0.015008
68.624,67.6550,0.007895
68.655,67.6055,0.007895
68.687,67.5580,0.007895
68.717,67.5123,0.007895
68.748,67.4668,0.007895
68.779,67.4217,0.007895
68.810,67.3773,0.007895
68.842,67.3327,0.007895
68.872,67.2900,0.007189
68.903,67.2495,0.007189
68.934,67.2077,0.007189
68.965,67.1675,0.007189
68.996,67.1272,0.007189
69.026,67.0877,0.007189
69.058,67.0488,0.007189
69.089,67.0114,0.006935
69.120,66.9740,0.006935
69.151,66.9381,0.006935
69.182,66.9016,0.006935
69.213,66.8675,0.006935
69.244,66.8325,0.006935
69.275,66.8009,0.006935
69.305,66.7688,0.006935
69.336,66.7368,0.006935
69.368,66.7040,0.006935
69.399,66.6744,0.006756
69.430,66.6442,0.006756
69.460,66.6160,0.006756
69.491,66.5874,0.006756
69.523,66.5598,0.006756
69.553,66.5331,0.006756
69.585,66.5062,0.006756
69.615,66.4819,0.006756
69.646,66.4567,0.006662
69.676,66.4335,0.006662
69.708,66.4095,0.006662
69.740,66.3865,0.006662
69.771,66.3646,0.006662
69.802,66.3436,0.006662
69.833,66.3233,0.006662
69.864,66.3043,0.006662
69.895,66.2852,0.006568
69.925,66.2676,0.006568
69.956,66.2502,0.006568
69.987,66.2330,0.006568
70.018,66.2174,0.006568
70.049,66.2023,0.006568
70.080,66.1875,0.006568
70.111,66.1737,0.006417
70.142,66.1609,0.006417
70.174,66.1484,0.006417
70.204,66.1370,0.006417
70.235,66.1261,0.006417
70.267,66.1159,0.006417
70.298,66.1065,0.006417
70.328,66.0978,0.006417
70.364,66.0887,0.006417
70.407,66.0792,0.006295
70.436,66.0734,0.006295
70.467,66.0677,0.006295
70.498,66.0632,0.006295
70.529,66.0592,0.006295
70.560,66.0560,0.006295
70.592,66.0534,0.006295
70.622,66.0517,0.006163
70.654,66.0505,0.006163
70.684,66.0503,0.006163
70.715,66.0503,0.006163
70.746,66.0503,0.006163
70.778,66.0503,0.006163
70.808,66.0503,0.006163
70.839,66.0504,0.006163
70.870,66.0513,0.006079
70.900,66.0528,0.006079
70.932,66.0551,0.006079
70.963,66.0581,0.006079
70.993,66.0620,0.006079
71.025,66.0664,0.006079
71.056,66.0715,0.006079
71.087,66.0776,0.006079
71.117,66.0839,0.005919
71.149,66.0915,0.005919
71.179,66.0995,0.005919
71.211,66.1086,0.005919
71.242,66.1180,0.005919
71.272,66.1281,0.005919
71.303,66.1391,0.005919
71.336,66.1514,0.005919
71.365,66.1634,0.005712
71.396,66.1769,0.005712
71.427,66.1902,0.005712
71.457,66.2046,0.005712
71.488,66.2197,0.005712
71.519,66.2366,0.005712
71.550,66.2531,0.005712
71.581,66.2703,0.005712
71.613,66.2889,0.005712
71.644,66.3081,0.005552
71.675,66.3274,0.005552
71.706,66.3480,0.005552
71.736,66.3689,0.005552
71.767,66.3904,0.005552
71.798,66.4133,0.005552
71.830,66.4379,0.005552
71.860,66.4608,0.005307
71.891,66.4856,0.005307
71.922,66.5107,0.005307
71.953,66.5375,0.005307
71.984,66.5646,0.005307
72.015,66.5922,0.005307
72.046,66.6207,0.005307
72.078,66.6506,0.005307
72.109,66.6803,0.005100
72.140,66.7107,0.005100
72.170,66.7412,0.005100
72.201,66.7735,0.005100
72.232,66.8060,0.005100
72.263,66.8396,0.005100
72.293,66.8733,0.005100
72.325,66.9093,0.005100
72.356,66.9441,0.004827
72.386,66.9800,0.004827
72.417,67.0167,0.004827
72.448,67.0546,0.004827
72.479,67.0931,0.004827
72.511,67.1336,0.004827
72.541,67.1731,0.004827
72.572,67.2149,0.004827
72.603,67.2558,0.004535
72.635,67.2987,0.004535
72.665,67.3401,0.004535
72.696,67.3844,0.004535
72.726,67.4268,0.004535
72.757,67.4725,0.004535
72.788,67.5177,0.004535
72.819,67.5660,0.004535
72.850,67.6117,0.004535
72.881,67.6617,0.004150
72.912,67.7089,0.004150
72.943,67.7581,0.004150
72.975,67.8092,0.004150
73.005,67.8607,0.004150
73.035,67.9105,0.004150
73.067,67.9635,0.004150
73.098,68.0162,0.004150
73.130,68.0729,0.003566
73.161,68.1274,0.003566
73.193,68.1839,0.003566
73.223,68.2376,0.003566
73.254,68.2956,0.003566
73.285,68.3534,0.003566
73.316,68.4101,0.003566
73.347,68.4689,0.003566
73.377,68.5278,0.003566
73.408,68.5877,0.002795
73.439,68.6459,0.002795
73.469,68.7043,0.002795
73.501,68.7636,0.002795
73.532,68.8202,0.002795
73.564,68.8788,0.002795
73.595,68.9350,0.002795
73.626,68.9914,0.001722
73.658,69.0461,0.001722
73.690,69.1015,0.001722
73.721,69.1550,0.001722
73.752,69.2088,0.001722
73.783,69.2589,0.001722
73.815,69.3104,0.001722
73.844,69.3582,0.001722
73.877,69.4097,-0.000019
73.908,69.4583,-0.000019
73.939,69.5060,-0.000019
73.970,69.5530,-0.000019
74.001,69.6003,-0.000019
74.032,69.6456,-0.000019
74.063,69.6905,-0.000019
74.095,69.7355,-0.000019
74.124,69.7765,-0.003500
74.155,69.8197,-0.003500
74.187,69.8613,-0.003500
74.218,69.9031,-0.003500
74.249,69.9431,-0.003500
74.280,69.9841,-0.003500
74.310,70.0220,-0.003500
74.342,70.0602,-0.003500
74.373,70.0983,-0.010991
74.405,70.1366,-0.010991
74.436,70.1718,-0.010991
74.467,70.2081,-0.010991
74.497,70.2413,-0.010991
74.527,70.2750,-0.010991
74.558,70.3076,-0.010991
74.588,70.3385,-0.010991
74.619,70.3718,-0.026799
74.650,70.4026,-0.026799
74.682,70.4334,-0.026799
74.714,70.4634,-0.026799
74.743,70.4919,-0.026799
74.774,70.5191,-0.026799
74.805,70.5468,-0.026799
74.836,70.5729,-0.026799
74.867,70.5993,-0.052290
74.898,70.6243,-0.052290
74.929,70.6490,-0.052290
74.961,70.6736,-0.052290
74.991,70.6961,-0.052290
75.023,70.7187,-0.052290
75.054,70.7401,-0.052290
75.085,70.7611,-0.052290
75.117,70.7819,-0.052290
75.148,70.8010,-0.081723
75.178,70.8199,-0.081723
75.209,70.8376,-0.081723
75.240,70.8547,-0.081723
75.272,70.8715,-0.081723
75.303,70.8872,-0.081723
75.334,70.9025,-0.081723
75.363,70.9164,-0.081723
75.395,70.9297,-0.108974
75.426,70.9429,-0.108974
75.455,70.9539,-0.108974
75.488,70.9663,-0.108974
75.520,70.9777,-0.108974
75.551,70.9873,-0.108974
75.582,70.9965,-0.108974
75.613,71.0050,-0.134925
75.643,71.0127,-0.134925
75.675,71.0199,-0.134925
75.706,71.0260,-0.134925
75.737,71.0317,-0.134925
75.769,71.0367,-0.134925
75.800,71.0407,-0.134925
75.831,71.0440,-0.134925
75.862,71.0467,-0.134925
75.893,71.0487,-0.166824
75.925,71.0499,-0.166824
75.955,71.0503,-0.166824
75.981,71.0503,-0.166824
76.017,71.0503,-0.166824
76.048,71.0503,-0.166824
76.078,71.0503,-0.166824
76.110,71.0503,-0.170541
76.140,71.0503,-0.170541
76.170,71.0503,-0.170541
76.202,71.0503,-0.170541
76.232,71.0503,-0.170541
76.263,71.0503,-0.170541
76.294,71.0503,-0.170541
76.326,71.0503,-0.170541
76.357,71.0503,-0.141559
76.388,71.0503,-0.141559
76.419,71.0503,-0.141559
76.450,71.0503,-0.141559
76.481,71.0503,-0.141559
76.512,71.0503,-0.141559
76.544,71.0503,-0.141559
76.576,71.0503,-0.141559
76.607,71.0503,-0.121677
76.637,71.0503,-0.121677
76.668,71.0503,-0.121677
76.700,71.0503,-0.121677
76.730,71.0503,-0.121677
76.761,71.0503,-0.121677
76.792,71.0503,-0.121677
76.823,71.0503,-0.121677
76.854,71.0503,-0.112568
76.885,71.0503,-0.112568
76.915,71.0503,-0.112568
76.946,71.0503,-0.112568
76.977,71.0503,-0.112568
77.008,71.0503,-0.112568
77.038,71.0503,-0.112568
77.070,71.0503,-0.112568
77.102,71.0503,-0.112568
77.133,71.0503,-0.106235
77.164,71.0503,-0.106235
77.195,71.0503,-0.106235
77.226,71.0503,-0.106235
77.257,71.0503,-0.106235
77.288,71.0503,-0.106235
77.319,71.0503,-0.106235
77.350,71.0503,-0.106235
77.381,71.0503,-0.106235
77.413,71.0503,-0.101173
77.444,71.0503,-0.101173
77.474,71.0503,-0.101173
77.506,71.0503,-0.101173
77.537,71.0503,-0.101173
77.567,71.0503,-0.101173
77.598,71.0503,-0.101173
77.630,71.0503,-0.097315
77.661,71.0503,-0.097315
77.693,71.0503,-0.097315
77.723,71.0503,-0.097315
77.755,71.0503,-0.097315
77.786,71.0503,-0.097315
77.817,71.0503,-0.097315
77.848,71.0503,-0.097315
77.878,71.0503,-0.097315
77.910,71.0503,-0.094163
77.941,71.0503,-0.094163
77.972,71.0503,-0.094163
78.003,71.0503,-0.094163
78.033,71.0503,-0.094163
78.064,71.0503,-0.094163
78.096,71.0503,-0.094163
78.126,71.0503,-0.091556
78.158,71.0503,-0.091556
78.188,71.0503,-0.091556
78.219,71.0503,-0.091556
78.250,71.0503,-0.091556
78.281,71.0503,-0.091556
78.312,71.0503,-0.091556
78.343,71.0503,-0.091556
78.375,71.0503,-0.089138
78.405,71.0503,-0.089138
78.436,71.0503,-0.089138
78.467,71.0503,-0.089138
78.497,71.0503,-0.089138
78.535,71.0503,-0.089138
78.574,71.0503,-0.089138
78.606,71.0503,-0.089138
78.636,71.0503,-0.089138
78.668,71.0503,-0.087275
78.699,71.0503,-0.087275
78.729,71.0503,-0.087275
78.762,71.0503,-0.087275
78.792,71.0503,-0.087275
78.822,71.0503,-0.087275
78.854,71.0503,-0.087275
78.885,71.0503,-0.085525
78.916,71.0503,-0.085525
78.947,71.0503,-0.085525
78.979,71.0503,-0.085525
79.010,71.0503,-0.085525
79.040,71.0503,-0.085525
79.071,71.0503,-0.085525
79.104,71.0503,-0.085525
79.133,71.0503,-0.084160
79.165,71.0503,-0.084160
79.196,71.0503,-0.084160
79.227,71.0503,-0.084160
79.258,71.0503,-0.084160
79.290,71.0503,-0.084160
79.320,71.0503,-0.084160
79.354,71.0503,-0.084160
79.381,71.0503,-0.082579
79.411,71.0503,-0.082579
79.442,71.0503,-0.082579
79.473,71.0503,-0.082579
79.504,71.0503,-0.082579
79.539,71.0503,-0.082579
79.567,71.0503,-0.082579
79.597,71.0503,-0.082579
79.629,71.0503,-0.081093
79.659,71.0503,-0.081093
79.690,71.0503,-0.081093
79.724,71.0503,-0.081093
79.751,71.0503,-0.081093
79.784,71.0503,-0.081093
79.813,71.0503,-0.081093
79.843,71.0503,-0.081093
79.874,71.0503,-0.081093
79.908,71.0503,-0.080133
79.936,71.0503,-0.080133
79.968,71.0503,-0.080133
79.999,71.0503,-0.080133
80.031,71.0503,-0.080133
80.062,71.0503,-0.080133
80.096,71.0503,-0.080133
80.124,71.0503,-0.080133
80.155,71.0503,-0.079182
80.187,71.0503,-0.079182
80.219,71.0503,-0.079182
80.248,71.0503,-0.079182
80.279,71.0503,-0.079182
80.310,71.0503,-0.079182
80.341,71.0503,-0.079182
80.372,71.0503,-0.079182
80.403,71.0503,-0.078524
80.436,71.0503,-0.078524
80.465,71.0503,-0.078524
80.497,71.0503,-0.078524
80.528,71.0503,-0.078524
80.559,71.0497,-0.078524
80.590,71.0484,-0.078524
80.621,71.0463,-0.078524
80.652,71.0436,-0.078016
80.684,71.0400,-0.078016
80.716,71.0358,-0.078016
80.747,71.0306,-0.078016
80.778,71.0251,-0.078016
80.808,71.0188,-0.078016
80.840,71.0115,-0.078016
80.871,71.0037,-0.050615
80.902,70.9950,-0.050615
80.932,70.9859,-0.050615
80.963,70.9758,-0.050615
80.994,70.9653,-0.050615
81.025,70.9536,-0.050615
81.056,70.9415,-0.050615
81.087,70.9281,-0.050615
81.119,70.9146,-0.050615
81.149,70.9005,-0.015008
81.180,70.8850,-0.015008
81.211,70.8693,-0.015008
81.242,70.8529,-0.015008
81.272,70.8357,-0.015008
81.303,70.8178,-0.015008
81.335,70.7989,-0.015008
81.366,70.7792,-0.015008
81.399,70.7579,0.007678
81.434,70.7335,0.007678
81.474,70.7049,0.007678
81.505,70.6827,0.007678
81.537,70.6588,0.007678
81.568,70.6344,0.007678
81.599,70.6094,0.007678
81.629,70.5847,0.036604
81.661,70.5568,0.036604
81.692,70.5305,0.036604
81.723,70.5017,0.036604
81.754,70.4736,0.036604
81.786,70.4430,0.036604
81.816,70.4142,0.036604
81.847,70.3838,0.036604
81.877,70.3530,0.064748
81.908,70.3212,0.064748
81.938,70.2889,0.064748
81.969,70.2552,0.064748
82.000,70.2210,0.064748
82.032,70.1846,0.064748
82.063,70.1495,0.064748
82.094,70.1121,0.064748
82.125,70.0756,0.093749
82.156,70.0367,0.093749
82.188,69.9980,0.093749
82.220,69.9569,0.093749
82.248,69.9196,0.093749
82.279,69.8783,0.093749
82.309,69.8383,0.093749
82.340,69.7959,0.093749
82.371,69.7528,0.126908
82.403,69.7086,0.126908
82.432,69.6661,0.126908
82.463,69.6214,0.126908
82.493,69.5764,0.126908
82.524,69.5288,0.126908
82.554,69.4838,0.126908
82.585,69.4358,0.126908
82.616,69.3879,0.150903
82.646,69.3378,0.150903
82.678,69.2880,0.150903
82.708,69.2367,0.150903
82.740,69.1849,0.150903
82.771,69.1307,0.150903
82.803,69.0783,0.150903
82.834,69.0226,0.150903
82.865,68.9694,0.143601
82.895,68.9135,0.143601
82.926,68.8595,0.143601
82.957,68.8013,0.143601
82.988,68.7453,0.143601
83.019,68.6854,0.143601
83.049,68.6291,0.143601
83.080,68.5696,0.143601
83.112,68.5078,0.085327
83.143,68.4478,0.085327
83.174,68.3886,0.085327
83.205,68.3290,0.085327
83.235,68.2725,0.085327
83.267,68.2152,0.085327
83.297,68.1599,0.085327
83.327,68.1054,0.085327
83.358,68.0505,0.024578
83.393,67.9893,0.024578
83.420,67.9428,0.024578
83.451,67.8896,0.024578
83.482,67.8382,0.024578
83.513,67.7865,0.024578
83.544,67.7344,0.024578
83.575,67.6860,0.024578
83.606,67.6375,0.024578
83.637,67.5882,0.008064
83.668,67.5413,0.008064
83.698,67.4952,0.008064
83.730,67.4482,0.008064
83.761,67.4023,0.008064
83.792,67.3576,0.008064
83.823,67.3127,0.008064
83.853,67.2709,0.007340
83.885,67.2279,0.007340
83.916,67.1862,0.007340
83.946,67.1446,0.007340
83.978,67.1044,0.007340
84.009,67.0651,0.007340
84.040,67.0254,0.007340
84.070,66.9875,0.007340
84.101,66.9495,0.006963
84.132,66.9132,0.006963
84.164,66.8764,0.006963
84.193,66.8432,0.006963
84.224,66.8076,0.006963
84.256,66.7742,0.006963
84.289,66.7381,0.006963
84.318,66.7089,0.006963
84.348,66.6771,0.006963
84.378,66.6472,0.006794
84.410,66.6160,0.006794
84.440,66.5876,0.006794
84.470,66.5593,0.006794
84.501,66.5306,0.006794
84.532,66.5038,0.006794
84.563,66.4767,0.006794
84.594,66.4506,0.006794
84.627,66.4247,0.006794
84.657,66.4007,0.006671
84.688,66.3768,0.006671
84.719,66.3538,0.006671
84.750,66.3315,0.006671
84.782,66.3098,0.006671
84.813,66.2884,0.006671
84.843,66.2689,0.006671
84.875,66.2494,0.006549
84.906,66.2305,0.006549
84.937,66.2125,0.006549
84.968,66.1950,0.006549
84.998,66.1790,0.006549
85.029,66.1637,0.006549
85.060,66.1484,0.006549
85.092,66.1336,0.006549
85.123,66.1201,0.006549
85.154,66.1076,0.006464
85.185,66.0953,0.006464
85.215,66.0839,0.006464
85.247,66.0730,0.006464
85.278,66.0631,0.006464
85.309,66.0539,0.006464
85.340,66.0452,0.006464
85.372,66.0375,0.006304
85.403,66.0305,0.006304
85.435,66.0240,0.006304
85.469,66.0180,0.006304
85.496,66.0140,0.006304
85.527,66.0099,0.006304
85.558,66.0065,0.006304
85.589,66.0038,0.006304
85.620,66.0019,0.006210
85.652,66.0007,0.006210
85.683,66.0003,0.006210
85.714,66.0003,0.006210
85.744,66.0003,0.006210
85.776,66.0003,0.006210
85.807,66.0003,0.006210
85.837,66.0006,0.006210
85.868,66.0014,0.006182
85.900,66.0032,0.006182
85.931,66.0056,0.006182
85.962,66.0089,0.006182
85.993,66.0126,0.006182
86.029,66.0183,0.006182
86.055,66.0225,0.006182
86.087,66.0287,0.006182
86.118,66.0355,0.005966
86.148,66.0429,0.005966
86.180,66.0514,0.005966
86.211,66.0603,0.005966
86.244,66.0710,0.005966
86.272,66.0804,0.005966
86.304,66.0917,0.005966
86.334,66.1035,0.005966
86.366,66.1163,0.005749
86.396,66.1289,0.005749
86.427,66.1436,0.005749
86.458,66.1577,0.005749
86.488,66.1728,0.005749
86.519,66.1891,0.005749
86.550,66.2063,0.005749
86.581,66.2243,0.005749
86.612,66.2419,0.005749
86.643,66.2616,0.005646
86.674,66.2811,0.005646
86.705,66.3017,0.005646
86.736,66.3228,0.005646
86.767,66.3452,0.005646
86.797,66.3672,0.005646
86.828,66.3911,0.005646
86.858,66.4139,0.005646
86.890,66.4392,0.005439
86.920,66.4653,0.005439
86.951,66.4906,0.005439
86.981,66.5176,0.005439
87.013,66.5454,0.005439
87.045,66.5750,0.005439
87.075,66.6028,0.005439
87.107,66.6347,0.005439
87.138,66.6647,0.005185
87.167,66.6953,0.005185
87.199,66.7273,0.005185
87.233,66.7645,0.005185
87.261,66.7944,0.005185
87.293,66.8294,0.005185
87.323,66.8641,0.005185
87.354,66.8992,0.005185
87.386,66.9373,0.004912
87.416,66.9738,0.004912
87.447,67.0127,0.004912
87.479,67.0508,0.004912
87.512,67.0941,0.004912
87.540,67.1302,0.004912
87.571,67.1711,0.004912
87.602,67.2126,0.004630
87.634,67.2554,0.004630
87.664,67.2985,0.004630
87.695,67.3419,0.004630
87.726,67.3860,0.004630
87.757,67.4318,0.004630
87.788,67.4773,0.004630
87.818,67.5223,0.004630
87.852,67.5750,0.004630
87.880,67.6176,0.004630
87.911,67.6678,0.004197
87.942,67.7158,0.004197
87.976,67.7705,0.004197
88.004,67.8186,0.004197
88.036,67.8716,0.004197
88.067,67.9235,0.004197
88.099,67.9786,0.004197
88.129,68.0311,0.003585
88.159,68.0845,0.003585
88.191,68.1400,0.003585
88.221,68.1960,0.003585
88.253,68.2553,0.003585
88.284,68.3131,0.003585
88.316,68.3716,0.003585
88.348,68.4330,0.003585
88.380,68.4943,0.002748
88.410,68.5547,0.002748
88.441,68.6124,0.002748
88.473,68.6736,0.002748
88.504,68.7296,0.002748
88.535,68.7885,0.002748
88.565,68.8413,0.002748
88.596,68.8982,0.002748
88.626,68.9517,0.001618
88.658,69.0083,0.001618
88.690,69.0611,0.001618
88.721,69.1153,0.001618
88.752,69.1675,0.001618
88.783,69.2180,0.001618
88.814,69.2685,0.001618
88.845,69.3189,0.001618
88.876,69.3693,-0.000207
88.907,69.4157,-0.000207
88.937,69.4626,-0.000207
88.968,69.5084,-0.000207
88.999,69.5551,-0.000207
89.031,69.6015,-0.000207
89.060,69.6439,-0.000207
89.091,69.6886,-0.000207
89.122,69.7316,-0.003858
89.154,69.7752,-0.003858
89.183,69.8150,-0.003858
89.214,69.8556,-0.003858
89.246,69.8970,-0.003858
89.276,69.9366,-0.003858
89.307,69.9746,-0.003858
89.338,70.0140,-0.003858
89.369,70.0504,-0.011922
89.400,70.0875,-0.011922
89.431,70.1229,-0.011922
89.462,70.1583,-0.011922
89.493,70.1933,-0.011922
89.524,70.2279,-0.011922
89.554,70.2599,-0.011922
89.585,70.2920,-0.011922
89.616,70.3235,-0.028511
89.648,70.3571,-0.028511
89.677,70.3844,-0.028511
89.708,70.4143,-0.028511
89.739,70.4431,-0.028511
89.770,70.4711,-0.028511
89.801,70.4988,-0.028511
89.832,70.5246,-0.028511
89.863,70.5506,-0.054539
89.894,70.5767,-0.054539
89.925,70.6008,-0.054539
89.956,70.6247,-0.054539
89.987,70.6469,-0.054539
90.019,70.6703,-0.054539
90.050,70.6914,-0.054539
90.080,70.7122,-0.054539
90.111,70.7318,-0.054539
90.143,70.7521,-0.083878
90.173,70.7700,-0.083878
90.204,70.7885,-0.083878
90.235,70.8052,-0.083878
90.267,70.8223,-0.083878
90.296,70.8372,-0.083878
90.328,70.8526,-0.083878
90.359,70.8667,-0.110743
90.389,70.8804,-0.110743
90.420,70.8929,-0.110743
90.451,70.9051,-0.110743
90.483,70.9167,-0.110743
90.514,70.9274,-0.110743
90.545,70.9376,-0.110743
90.577,70.9469,-0.110743
90.607,70.9552,-0.136836
90.639,70.9631,-0.136836
90.670,70.9701,-0.136836
90.701,70.9764,-0.136836
90.732,70.9818,-0.136836
90.764,70.9868,-0.136836
90.796,70.9911,-0.136836
90.825,70.9941,-0.136836
90.860,70.9971,-0.168876
90.888,70.9987,-0.168876
90.922,70.9999,-0.168876
90.949,71.0003,-0.168876
90.980,71.0003,-0.168876
91.011,71.0003,-0.168876
