Elapsed Time (s),Position (mm),Force (N)
-0.016,59.1000,-0.044713
0.000,59.1000,-0.045921
0.016,59.1000,-0.051963
0.032,59.1000,-0.047129
0.047,59.1000,-0.044713
0.064,59.1000,-0.047129
0.079,59.1000,-0.044713
0.095,59.1000,-0.044713
0.112,59.1000,-0.042296
0.132,59.1000,-0.050755
0.148,59.1000,-0.044713
0.165,59.1000,-0.043504
0.180,59.1000,-0.045921
0.197,59.1000,-0.045921
0.213,59.1000,-0.049546
0.229,59.1000,-0.049546
0.245,59.1000,-0.036253
0.260,59.1000,-0.036253
0.276,59.1000,-0.037462
0.292,59.1000,-0.036253
0.309,59.1000,-0.042296
0.325,59.1000,-0.041087
0.342,59.1000,-0.041087
0.356,59.1000,-0.036253
0.372,59.1000,-0.033837
0.388,59.1000,-0.036253
0.405,59.1000,-0.043504
0.420,59.1000,-0.041087
0.437,59.1000,-0.045921
0.452,59.1000,-0.045921
0.469,59.1000,-0.038670
0.484,59.1000,-0.042296
0.507,59.1000,-0.041087
0.530,59.1000,-0.033837
0.548,59.1000,-0.036253
0.568,59.1000,-0.037462
0.583,59.1000,-0.038670
0.597,59.1000,-0.038670
0.613,59.1000,-0.032628
0.629,59.1000,-0.035045
0.645,59.1000,-0.036253
0.663,59.1000,-0.031420
0.687,59.1000,-0.045921
0.706,59.1000,-0.039879
0.719,59.1000,-0.035045
0.734,59.1000,-0.033837
0.751,59.1000,-0.032628
0.767,59.1000,-0.036253
0.783,59.1000,-0.041087
0.798,59.1000,-0.038670
0.815,59.1000,-0.036253
0.831,59.1000,-0.032628
0.847,59.1000,-0.033837
0.862,59.1000,-0.032628
0.879,59.1000,-0.031420
0.895,59.1000,-0.032628
0.910,59.1000,-0.032628
0.927,59.1000,-0.031420
0.942,59.1000,-0.038670
0.959,59.1000,-0.036253
0.974,59.1000,-0.035045
0.993,59.1000,-0.036253
1.006,59.1000,-0.030211
1.022,59.1000,-0.029003
1.039,59.1000,-0.037462
1.055,59.1000,-0.042296
1.071,59.1000,-0.039879
1.089,59.1000,-0.037462
1.102,59.1000,-0.033837
1.119,59.1000,-0.033837
1.134,59.1000,-0.033837
1.150,59.1000,-0.038670
1.170,59.1000,-0.038670
1.182,59.1000,-0.035045
1.198,59.1000,-0.038670
1.214,59.1000,-0.033837
1.236,59.1000,-0.037462
1.255,59.1000,-0.035045
1.267,59.1000,-0.031420
1.283,59.1000,-0.031420
1.300,59.1000,-0.032628
1.315,59.1000,-0.031420
1.331,59.1000,-0.031420
1.347,59.1000,-0.037462
1.363,59.1000,-0.032628
1.380,59.1000,-0.035045
1.395,59.1000,-0.036253
1.417,59.1000,-0.036253
1.427,59.1000,-0.035045
1.443,59.1000,-0.037462
1.459,59.1000,-0.037462
1.475,59.1000,-0.026586
1.491,59.1000,-0.033837
1.507,59.1000,-0.041087
1.523,59.1000,-0.037462
1.540,59.1000,-0.037462
1.555,59.1000,-0.033837
1.572,59.1000,-0.030211
1.587,59.1000,-0.031420
1.603,59.1000,-0.037462
1.620,59.1000,-0.037462
1.635,59.1000,-0.035045
1.651,59.1000,-0.035045
1.667,59.1000,-0.031420
1.683,59.1000,-0.041087
1.699,59.1000,-0.038670
1.717,59.1000,-0.029003
1.731,59.1000,-0.027794
1.747,59.1000,-0.027794
1.763,59.1000,-0.033837
1.779,59.1000,-0.027794
1.795,59.1000,-0.030211
1.811,59.1000,-0.031420
1.827,59.1000,-0.036253
1.844,59.1000,-0.035045
1.859,59.1000,-0.031420
1.876,59.1000,-0.027794
1.891,59.1000,-0.030211
1.908,59.1000,-0.025377
1.923,59.1000,-0.030211
1.941,59.1000,-0.036253
1.955,59.1000,-0.029003
1.970,59.1000,-0.035045
1.987,59.1000,-0.030211
2.003,59.1000,-0.025377
2.018,59.1000,-0.033837
2.034,59.1000,-0.032628
2.051,59.1000,-0.032628
2.066,59.1000,-0.032628
2.084,59.1000,-0.025377
2.100,59.1000,-0.025377
2.116,59.1000,-0.031420
2.131,59.1000,-0.036253
2.153,59.1000,-0.027794
2.178,59.1000,-0.032628
2.194,59.1000,-0.037462
2.211,59.1000,-0.037462
2.227,59.1000,-0.030211
2.243,59.1000,-0.032628
2.258,59.1000,-0.037462
2.280,59.1000,-0.029003
2.304,59.1000,-0.031420
2.320,59.1000,-0.026586
2.336,59.1000,-0.030211
2.352,59.1000,-0.032628
2.369,59.1000,-0.032628
2.384,59.1000,-0.030211
2.400,59.1000,-0.030211
2.416,59.1000,-0.026586
2.432,59.1000,-0.026586
2.448,59.1000,-0.030211
2.464,59.1000,-0.032628
2.479,59.1000,-0.032628
2.496,59.1000,-0.027794
2.511,59.1000,-0.031420
2.527,59.1000,-0.030211
2.543,59.1000,-0.030211
2.559,59.1000,-0.030211
2.575,59.1000,-0.035045
2.592,59.1000,-0.030211
2.607,59.1000,-0.029003
2.623,59.1000,-0.030211
2.640,59.1000,-0.036253
2.655,59.1000,-0.030211
2.671,59.1000,-0.029003
2.687,59.1000,-0.025377
2.703,59.1000,-0.024169
2.719,59.1000,-0.027794
2.736,59.1000,-0.031420
2.751,59.1000,-0.036253
2.768,59.1000,-0.027794
2.783,59.1000,-0.030211
2.800,59.1000,-0.032628
2.816,59.1000,-0.031420
2.831,59.1000,-0.031420
2.858,59.1000,-0.025377
2.874,59.1000,-0.024169
2.890,59.1000,-0.032628
2.906,59.1000,-0.030211
2.923,59.1000,-0.027794
2.939,59.1000,-0.021752
2.955,59.1000,-0.027794
2.970,59.1000,-0.025377
2.987,59.1000,-0.029003
3.003,59.1000,-0.024169
3.018,59.1000,-0.030211
3.034,59.1000,-0.021752
3.054,59.1000,-0.021752
3.067,59.1000,-0.025377
3.082,59.1000,-0.033837
3.098,59.1000,-0.035045
3.115,59.1000,-0.025377
3.131,59.1000,-0.033837
3.146,59.1000,-0.024169
3.165,59.1000,-0.025377
3.178,59.1000,-0.024169
3.194,59.1000,-0.026586
3.210,59.1000,-0.032628
3.226,59.1000,-0.031420
3.242,59.1000,-0.031420
3.259,59.1000,-0.027794
3.276,59.1000,-0.024169
3.290,59.1000,-0.026586
3.306,59.1000,-0.036253
3.322,59.1000,-0.032628
3.338,59.1000,-0.027794
3.355,59.1000,-0.027794
3.371,59.1000,-0.030211
3.395,59.1000,-0.032628
3.411,59.1000,-0.032628
3.427,59.1000,-0.026586
3.443,59.1000,-0.025377
3.462,59.1000,-0.026586
3.475,59.1000,-0.030211
3.491,59.1000,-0.031420
3.507,59.1000,-0.029003
3.524,59.1000,-0.027794
3.539,59.1000,-0.027794
3.555,59.1000,-0.026586
3.572,59.1000,-0.026586
3.587,59.1000,-0.029003
3.603,59.1000,-0.030211
3.619,59.1000,-0.027794
3.636,59.1000,-0.024169
3.652,59.1000,-0.024169
3.667,59.1000,-0.021752
3.683,59.1000,-0.029003
3.699,59.1000,-0.030211
3.715,59.1000,-0.030211
3.731,59.1000,-0.022961
3.747,59.1000,-0.024169
3.763,59.1000,-0.027794
3.779,59.1000,-0.033837
3.795,59.1000,-0.035045
3.813,59.1000,-0.033837
3.827,59.1000,-0.031420
3.844,59.1000,-0.031420
3.859,59.1000,-0.022961
3.879,59.1000,-0.026586
3.891,59.1000,-0.026586
3.907,59.1000,-0.019335
3.923,59.1000,-0.029003
3.939,59.1000,-0.027794
3.955,59.1000,-0.024169
3.971,59.1000,-0.027794
3.987,59.1000,-0.031420
4.004,59.1000,-0.020544
4.019,59.1000,-0.022961
4.036,59.1000,-0.027794
4.051,59.1000,-0.029003
4.072,59.1000,-0.025377
4.083,59.1000,-0.029003
4.099,59.1000,-0.027794
4.115,59.1000,-0.022961
4.130,59.1000,-0.022961
4.146,59.1000,-0.026586
4.163,59.1000,-0.027794
4.179,59.1000,-0.031420
4.195,59.1000,-0.030211
4.211,59.1000,-0.029003
4.227,59.1000,-0.025377
4.243,59.1000,-0.030211
4.259,59.1000,-0.030211
4.275,59.1000,-0.027794
4.291,59.1000,-0.031420
4.307,59.1000,-0.031420
4.323,59.1000,-0.031420
4.338,59.1000,-0.029003
4.355,59.1000,-0.022961
4.371,59.1000,-0.022961
4.386,59.1000,-0.027794
4.403,59.1000,-0.029003
4.419,59.1000,-0.029003
4.434,59.1000,-0.027794
4.450,59.1000,-0.027794
4.466,59.1000,-0.031420
4.490,59.1000,-0.030211
4.507,59.1000,-0.029003
4.522,59.1000,-0.029003
4.538,59.1000,-0.030211
4.554,59.1000,-0.024169
4.570,59.1000,-0.024169
4.586,59.1000,-0.032628
4.601,59.1000,-0.027794
4.619,59.1000,-0.030211
4.633,59.1000,-0.026586
4.650,59.1000,-0.026586
4.665,59.1000,-0.024169
4.682,59.1000,-0.024169
4.697,59.1000,-0.029003
4.713,59.1000,-0.027794
4.729,59.1000,-0.027794
4.746,59.1000,-0.026586
4.762,59.1000,-0.026586
4.777,59.1000,-0.026586
4.793,59.1000,-0.030211
4.809,59.1000,-0.020544
4.825,59.1000,-0.021752
4.841,59.1000,-0.022961
4.862,59.1000,-0.025377
4.874,59.1000,-0.031420
4.890,59.1000,-0.029003
4.905,59.1000,-0.031420
4.922,59.1000,-0.031420
4.938,59.1000,-0.031420
4.954,59.1000,-0.029003
4.969,59.1000,-0.024169
4.988,59.1000,-0.025377
5.001,59.1000,-0.030211
5.017,59.1000,-0.029003
5.033,59.1000,-0.029003
5.050,59.1000,-0.025377
5.065,59.1000,-0.025377
5.081,59.1000,-0.022961
5.097,59.1000,-0.022961
5.113,59.1000,-0.032628
5.130,59.1000,-0.031420
5.145,59.1000,-0.032628
5.161,59.1000,-0.030211
5.178,59.1000,-0.022961
5.193,59.1000,-0.029003
5.209,59.1000,-0.029003
5.226,59.1000,-0.024169
5.241,59.1000,-0.032628
5.259,59.1000,-0.032628
5.273,59.1000,-0.032628
5.290,59.1000,-0.032628
5.305,59.1000,-0.026586
5.321,59.1000,-0.026586
5.337,59.1000,-0.027794
5.361,59.1000,-0.027794
5.383,59.1000,-0.024169
5.402,59.1000,-0.025377
5.418,59.1000,-0.027794
5.433,59.1000,-0.026586
5.449,59.1000,-0.027794
5.465,59.1000,-0.027794
5.482,59.1000,-0.027794
5.497,59.1000,-0.027794
5.513,59.1000,-0.026586
5.529,59.1000,-0.026586
5.545,59.1000,-0.027794
5.561,59.1000,-0.027794
5.578,59.1000,-0.027794
5.602,59.1000,-0.031420
5.618,59.1000,-0.030211
5.634,59.1000,-0.030211
5.650,59.1000,-0.025377
5.669,59.1000,-0.025377
5.682,59.1000,-0.022961
5.699,59.1000,-0.022961
5.715,59.1000,-0.026586
5.731,59.1000,-0.026586
5.746,59.1000,-0.030211
5.763,59.1000,-0.031420
5.778,59.1000,-0.025377
5.802,59.1000,-0.027794
5.815,59.1000,-0.027794
5.827,59.1000,-0.021752
5.842,59.1000,-0.021752
5.858,59.1000,-0.027794
5.874,59.1000,-0.027794
5.890,59.1000,-0.025377
5.906,59.1000,-0.025377
5.922,59.1000,-0.025377
5.938,59.1000,-0.029003
5.954,59.1000,-0.024169
5.970,59.1000,-0.029003
5.986,59.1000,-0.031420
6.002,59.1000,-0.020544
6.018,59.1000,-0.025377
6.034,59.1000,-0.021752
6.050,59.1000,-0.025377
6.066,59.1000,-0.024169
6.082,59.1000,-0.029003
6.102,59.1000,-0.029003
6.114,59.1000,-0.022961
6.130,59.1000,-0.026586
6.146,59.1000,-0.029003
6.162,59.1000,-0.029003
6.178,59.1000,-0.027794
6.194,59.1000,-0.029003
6.210,59.1000,-0.025377
6.227,59.1000,-0.030211
6.242,59.1000,-0.031420
6.258,59.1000,-0.025377
6.274,59.1000,-0.019335
6.293,59.1000,-0.019335
6.306,59.1000,-0.025377
6.322,59.1000,-0.025377
6.338,59.1000,-0.027794
6.354,59.1000,-0.027794
6.370,59.1000,-0.027794
6.386,59.1000,-0.022961
6.402,59.1000,-0.022961
6.417,59.1000,-0.027794
6.434,59.1000,-0.026586
6.449,59.1000,-0.022961
6.466,59.1000,-0.025377
6.482,59.1000,-0.027794
6.498,59.1000,-0.020544
6.514,59.1000,-0.019335
6.530,59.1000,-0.027794
6.546,59.1000,-0.026586
6.561,59.1000,-0.020544
6.577,59.1000,-0.024169
6.594,59.1000,-0.026586
6.610,59.1000,-0.029003
6.626,59.1000,-0.031420
6.641,59.1000,-0.021752
6.658,59.1000,-0.026586
6.673,59.1000,-0.026586
6.690,59.1000,-0.029003
6.717,59.1000,-0.031420
6.732,59.1000,-0.021752
6.749,59.1000,-0.019335
6.764,59.1000,-0.019335
6.781,59.1000,-0.030211
6.797,59.1000,-0.027794
6.815,59.1000,-0.029003
6.828,59.1000,-0.022961
6.845,59.1000,-0.026586
6.861,59.1000,-0.024169
6.877,59.1000,-0.026586
6.892,59.1000,-0.026586
6.910,59.1000,-0.029003
6.925,59.1000,-0.026586
6.940,59.1000,-0.026586
6.956,59.1000,-0.026586
6.972,59.1000,-0.026586
6.988,59.1000,-0.021752
7.004,59.1000,-0.024169
7.020,59.1000,-0.024169
7.036,59.1000,-0.029003
7.053,59.1000,-0.022961
7.068,59.1000,-0.026586
7.089,59.1000,-0.024169
7.100,59.1000,-0.025377
7.117,59.1000,-0.024169
7.132,59.1000,-0.024169
7.152,59.1000,-0.025377
7.165,59.1000,-0.024169
7.180,59.1000,-0.025377
7.196,59.1000,-0.026586
7.212,59.1000,-0.027794
7.228,59.1000,-0.027794
7.244,59.1000,-0.022961
7.270,59.1000,-0.020544
7.286,59.1000,-0.022961
7.303,59.1000,-0.022961
7.318,59.1000,-0.025377
7.335,59.1000,-0.025377
7.350,59.1000,-0.029003
7.368,59.1000,-0.026586
7.382,59.1000,-0.027794
7.399,59.1000,-0.025377
7.415,59.1000,-0.030211
7.432,59.1000,-0.022961
7.446,59.1000,-0.026586
7.462,59.1000,-0.016918
7.479,59.1000,-0.016918
7.496,59.1000,-0.025377
7.511,59.1000,-0.025377
7.527,59.1000,-0.032628
7.543,59.1000,-0.032628
7.558,59.1000,-0.021752
7.574,59.1000,-0.019335
7.590,59.1000,-0.019335
7.606,59.1000,-0.027794
7.622,59.1000,-0.027794
7.638,59.1000,-0.027794
7.654,59.1000,-0.025377
7.670,59.1000,-0.025377
7.686,59.1000,-0.020544
7.702,59.1000,-0.025377
7.718,59.1000,-0.026586
7.734,59.1000,-0.026586
7.750,59.1000,-0.024169
7.766,59.1000,-0.024169
7.782,59.1000,-0.020544
7.798,59.1000,-0.026586
7.814,59.1000,-0.022961
7.830,59.1000,-0.029003
7.846,59.1000,-0.025377
7.862,59.1000,-0.024169
7.883,59.1000,-0.026586
7.895,59.1000,-0.021752
7.911,59.1000,-0.027794
7.926,59.1000,-0.027794
7.943,59.1000,-0.030211
7.958,59.1000,-0.022961
7.975,59.1000,-0.024169
7.992,59.1000,-0.024169
8.006,59.1000,-0.025377
8.022,59.1000,-0.025377
8.038,59.1000,-0.026586
8.054,59.1000,-0.021752
8.070,59.1000,-0.021752
8.086,59.1000,-0.025377
8.102,59.1000,-0.032628
8.118,59.1000,-0.033837
8.134,59.1000,-0.024169
8.150,59.1000,-0.024169
8.166,59.1000,-0.016918
8.186,59.1000,-0.016918
8.205,59.1000,-0.025377
8.228,59.1000,-0.030211
8.245,59.1000,-0.027794
8.262,59.1000,-0.026586
8.278,59.1000,-0.021752
8.294,59.1000,-0.024169
8.310,59.1000,-0.020544
8.326,59.1000,-0.022961
8.354,59.1000,-0.024169
8.375,59.1000,-0.024169
8.398,59.1000,-0.019335
8.416,59.1000,-0.032628
8.432,59.1000,-0.030211
8.449,59.1000,-0.030211
8.465,59.1000,-0.024169
8.481,59.1000,-0.024169
8.496,59.1000,-0.021752
8.515,59.1000,-0.021752
8.528,59.1000,-0.029003
8.545,59.1000,-0.029003
8.561,59.1000,-0.026586
8.577,59.1000,-0.021752
8.592,59.1000,-0.021752
8.609,59.1000,-0.033837
8.625,59.1000,-0.029003
8.640,59.1000,-0.029003
8.657,59.1000,-0.029003
8.673,59.1000,-0.026586
8.688,59.1000,-0.026586
8.705,59.1000,-0.022961
8.723,59.1000,-0.027794
8.737,59.1000,-0.031420
8.753,59.1000,-0.018127
8.768,59.1000,-0.027794
8.785,59.1000,-0.024169
8.800,59.1000,-0.030211
8.816,59.1000,-0.026586
8.832,59.1000,-0.026586
8.853,59.1000,-0.018127
8.877,59.1000,-0.021752
8.894,59.1000,-0.019335
8.909,59.1000,-0.029003
8.925,59.1000,-0.026586
8.941,59.1000,-0.025377
8.960,59.1000,-0.021752
8.973,59.1000,-0.018127
8.990,59.1000,-0.018127
9.006,59.1000,-0.022961
9.024,59.1000,-0.029003
9.038,59.1000,-0.027794
9.060,59.1000,-0.019335
9.077,59.1000,-0.020544
9.092,59.1000,-0.019335
9.108,59.1000,-0.019335
9.122,59.1000,-0.029003
9.133,59.1000,-0.026586
9.149,59.1000,-0.026586
9.166,59.1000,-0.024169
9.181,59.1000,-0.024169
9.197,59.1000,-0.020544
9.213,59.1000,-0.020544
9.232,59.1000,-0.030211
9.246,59.1000,-0.026586
9.262,59.1000,-0.027794
9.278,59.1000,-0.020544
9.294,59.1000,-0.027794
9.310,59.1000,-0.027794
9.325,59.1000,-0.026586
9.343,59.1000,-0.026586
9.358,59.1000,-0.024169
9.374,59.1000,-0.018127
9.405,59.1000,-0.027794
9.420,59.1000,-0.027794
9.436,59.1000,-0.024169
9.452,59.1000,-0.016918
9.472,59.1000,-0.016918
9.485,59.1000,-0.026586
9.501,59.1000,-0.029003
9.516,59.1000,-0.024169
9.533,59.1000,-0.024169
9.548,59.1000,-0.021752
9.564,59.1000,-0.025377
9.580,59.1000,-0.018127
9.596,59.1000,-0.022961
9.612,59.1000,-0.022961
9.628,59.1000,-0.033837
9.644,59.1000,-0.021752
9.660,59.1000,-0.024169
9.676,59.1000,-0.020544
9.692,59.1000,-0.026586
9.709,59.1000,-0.025377
9.724,59.1000,-0.029003
9.740,59.1000,-0.029003
9.756,59.1000,-0.027794
9.772,59.1000,-0.026586
9.788,59.1000,-0.024169
9.804,59.1000,-0.021752
9.820,59.1000,-0.024169
9.836,59.1000,-0.021752
9.852,59.1000,-0.021752
9.869,59.1000,-0.025377
9.884,59.1000,-0.024169
9.900,59.1000,-0.024169
9.916,59.1000,-0.024169
9.947,59.1000,-0.022961
9.962,59.1000,-0.025377
9.978,59.1000,-0.022961
9.994,59.1000,-0.025377
10.010,59.1000,-0.025377
10.026,59.1000,-0.029003
10.044,59.1000,-0.024169
10.058,59.1000,-0.025377
10.074,59.1000,-0.029003
10.090,59.1000,-0.024169
10.106,59.1000,-0.024169
10.122,59.1000,-0.024169
10.138,59.1000,-0.030211
10.154,59.1000,-0.025377
10.170,59.1000,-0.024169
10.186,59.1000,-0.024169
10.202,59.1000,-0.027794
10.219,59.1000,-0.027794
10.234,59.1000,-0.026586
10.250,59.1000,-0.027794
10.266,59.1000,-0.020544
10.282,59.1000,-0.022961
10.299,59.1000,-0.022961
10.315,59.1000,-0.027794
10.330,59.1000,-0.027794
10.346,59.1000,-0.027794
10.362,59.1000,-0.027794
10.378,59.1000,-0.027794
10.394,59.1000,-0.025377
10.410,59.1000,-0.024169
10.431,59.1000,-0.026586
10.445,59.1000,-0.021752
10.457,59.1000,-0.020544
10.474,59.1000,-0.020544
10.489,59.1000,-0.022961
10.506,59.1000,-0.025377
10.521,59.1000,-0.018127
10.538,59.1000,-0.022961
10.553,59.1000,-0.029003
10.569,59.1000,-0.029003
10.586,59.1000,-0.026586
10.603,59.1000,-0.026586
10.618,59.1000,-0.021752
10.634,59.1000,-0.022961
10.650,59.1000,-0.022961
10.665,59.1000,-0.022961
10.682,59.1000,-0.022961
10.697,59.1000,-0.026586
10.714,59.1000,-0.027794
10.729,59.1000,-0.031420
10.754,59.1000,-0.016918
10.775,59.1000,-0.026586
10.793,59.1000,-0.025377
10.812,59.1000,-0.021752
10.825,59.1000,-0.019335
10.841,59.1000,-0.025377
10.857,59.1000,-0.026586
10.875,59.1000,-0.029003
10.889,59.1000,-0.022961
10.906,59.1000,-0.021752
10.921,59.1000,-0.020544
10.938,59.1000,-0.022961
10.954,59.1000,-0.024169
10.969,59.1000,-0.022961
10.985,59.1000,-0.021752
11.002,59.1000,-0.021752
11.018,59.1000,-0.020544
11.033,59.1000,-0.024169
11.056,59.1000,-0.022961
11.073,59.1000,-0.021752
11.089,59.1000,-0.025377
11.104,59.1000,-0.026586
11.121,59.0478,-0.026586
11.137,58.9687,0.037462
11.153,58.8907,0.010876
11.170,58.8062,0.010876
11.185,58.7330,0.051963
11.201,58.6520,0.049546
11.216,58.5749,0.067673
11.234,58.4904,0.067673
11.249,58.4178,0.082174
11.264,58.3407,0.101510
11.281,58.2588,0.111177
11.297,58.1801,0.129304
11.312,58.1026,0.141388
11.328,58.0250,0.152264
11.345,57.9410,0.159515
11.360,57.8660,0.169183
11.376,57.7864,0.188518
11.392,57.7084,0.195769
11.409,57.6249,0.203019
11.428,57.5325,0.211478
11.440,57.4687,0.213895
11.457,57.3858,0.211478
11.473,57.3086,0.206645
11.488,57.2311,0.194560
11.505,57.1500,0.190935
11.520,57.0770,0.166766
11.538,56.9880,0.152264
11.552,56.9188,0.116011
11.568,56.8398,0.049546
11.584,56.7602,0.015710
11.600,56.6817,0.007251
11.616,56.6017,0.009668
11.633,56.5221,0.007251
11.648,56.4451,0.003625
11.665,56.3591,0.006042
11.681,56.2820,0.003625
11.698,56.1985,0.007251
11.712,56.1278,0.008459
11.729,56.0423,0.008459
11.744,55.9707,0.004834
11.760,55.8912,0.004834
11.776,55.8067,0.003625
11.792,55.7320,0.003625
11.809,55.6520,0.000000
11.824,55.5750,0.007251
11.841,55.4880,0.001208
11.856,55.4144,0.001208
11.872,55.3343,0.002417
11.888,55.2593,0.001208
11.906,55.1688,0.007251
11.920,55.1016,0.006042
11.936,55.0211,0.008459
11.952,54.9435,0.009668
11.975,54.8254,0.008459
11.998,54.7138,0.004834
12.016,54.6214,0.004834
12.034,54.5355,0.003625
12.048,54.4677,0.004834
12.064,54.3882,0.006042
12.080,54.3081,0.006042
12.099,54.2167,0.003625
12.113,54.1486,0.001208
12.129,54.0670,0.002417
12.144,53.9950,0.003625
12.172,53.8561,0.001208
12.188,53.7776,0.003625
12.204,53.6981,-0.001208
12.220,53.6194,0.006042
12.236,53.5365,0.001208
12.252,53.4609,0.002417
12.268,53.3798,0.007251
12.289,53.2741,0.010876
12.301,53.2202,0.006042
12.316,53.1457,0.003625
12.332,53.0671,0.000000
12.348,53.0500,-0.007251
12.365,53.0500,0.000000
12.380,53.0500,0.000000
12.398,53.0500,0.010876
12.412,53.0500,-0.001208
12.428,53.0500,-0.001208
12.444,53.0500,0.000000
12.460,53.0500,0.009668
12.476,53.0500,0.008459
12.492,53.0500,0.010876
12.508,53.0500,0.004834
12.524,53.0500,0.002417
12.540,53.0500,0.000000
12.556,53.0500,0.001208
12.572,53.0500,0.007251
12.589,53.0500,0.007251
12.604,53.0500,0.006042
12.620,53.0500,0.004834
12.636,53.0500,0.007251
12.654,53.0500,0.007251
12.667,53.0500,-0.003625
12.683,53.0500,0.001208
12.700,53.0500,0.001208
12.716,53.0500,0.003625
12.731,53.0500,0.003625
12.747,53.0500,0.003625
12.764,53.0500,0.000000
12.780,53.0500,0.001208
12.796,53.0500,0.002417
12.811,53.0500,0.002417
12.828,53.0500,0.006042
12.843,53.0500,0.004834
12.859,53.0500,0.004834
12.875,53.0508,-0.004834
12.892,53.1201,-0.055589
12.908,53.2001,-0.033837
12.923,53.2743,-0.006042
12.940,53.3567,0.002417
12.956,53.4362,-0.006042
12.972,53.5149,-0.006042
12.987,53.5904,-0.002417
13.003,53.6730,-0.002417
13.020,53.7505,0.001208
13.037,53.8350,0.008459
13.051,53.9067,0.000000
13.070,54.0005,0.001208
13.083,54.0648,-0.003625
13.099,54.1458,0.000000
13.115,54.2218,-0.003625
13.132,54.3064,-0.003625
13.148,54.3839,-0.006042
13.165,54.4738,0.002417
13.179,54.5391,0.001208
13.195,54.6186,-0.001208
13.211,54.6967,-0.001208
13.227,54.7807,0.006042
13.252,54.8972,0.003625
13.266,54.9694,0.002417
13.282,55.0494,0.002417
13.298,55.1264,0.002417
13.316,55.2218,0.001208
13.330,55.2856,0.002417
13.347,55.3660,0.000000
13.362,55.4427,-0.002417
13.384,55.5543,-0.001208
13.395,55.6053,0.001208
13.411,55.6813,0.000000
13.427,55.7633,0.003625
13.443,55.8424,-0.003625
13.459,55.9204,-0.002417
13.475,56.0019,0.002417
13.490,56.0746,0.006042
13.507,56.1595,0.002417
13.523,56.2387,0.000000
13.538,56.3132,0.003625
13.554,56.3947,0.001208
13.570,56.4708,0.001208
13.586,56.5489,-0.003625
13.602,56.6275,-0.004834
13.618,56.7070,0.000000
13.635,56.7900,-0.001208
13.650,56.8646,-0.001208
13.667,56.9476,0.000000
13.683,57.0276,0.000000
13.698,57.1037,-0.004834
13.714,57.1847,-0.003625
13.731,57.2658,-0.008459
13.747,57.3424,-0.002417
13.763,57.4229,-0.004834
13.778,57.5000,-0.010876
13.795,57.5830,-0.009668
13.810,57.6547,-0.006042
13.826,57.7356,-0.002417
13.842,57.8146,-0.008459
13.858,57.8943,-0.014501
13.874,57.9708,-0.010876
13.893,58.0657,-0.010876
13.906,58.1319,-0.016918
13.922,58.2104,-0.016918
13.938,58.2890,-0.015710
13.955,58.3695,-0.026586
13.970,58.4457,-0.025377
13.986,58.5257,-0.035045
14.002,58.6047,-0.038670
14.018,58.6828,-0.051963
14.035,58.7653,-0.049546
14.056,58.8700,-0.049546
14.066,58.9229,-0.064048
14.082,58.9999,-0.082174
14.099,59.0500,-0.082174
14.114,59.0500,-0.030211
14.130,59.0500,-0.084591
14.146,59.0500,-0.068882
14.165,59.0500,-0.074924
14.178,59.0500,-0.065256
14.194,59.0500,-0.068882
14.210,59.0500,-0.065256
14.226,59.0500,-0.065256
14.242,59.0500,-0.062839
14.260,59.0500,-0.062839
14.274,59.0500,-0.059214
14.290,59.0500,-0.059214
14.306,59.0500,-0.059214
14.323,59.0500,-0.055589
14.347,59.0500,-0.055589
14.363,59.0500,-0.054380
14.379,59.0500,-0.056797
14.395,59.0500,-0.061631
14.411,59.0500,-0.051963
14.427,59.0500,-0.056797
14.443,59.0500,-0.047129
14.459,59.0500,-0.051963
14.475,59.0500,-0.048338
14.491,59.0500,-0.047129
14.508,59.0500,-0.047129
14.523,59.0500,-0.048338
14.539,59.0500,-0.048338
14.555,59.0500,-0.051963
14.571,59.0500,-0.050755
14.587,59.0500,-0.048338
14.603,59.0500,-0.047129
14.619,59.0500,-0.047129
14.635,59.0500,-0.045921
14.651,59.0500,-0.051963
14.667,59.0500,-0.048338
14.683,59.0500,-0.049546
14.699,59.0500,-0.041087
14.716,59.0500,-0.038670
14.731,59.0500,-0.042296
14.747,59.0500,-0.043504
14.762,59.0500,-0.048338
14.779,59.0500,-0.045921
14.795,59.0500,-0.043504
14.811,59.0500,-0.038670
14.827,59.0500,-0.039879
14.843,59.0500,-0.044713
14.860,59.0500,-0.044713
14.876,59.0500,-0.044713
14.901,59.0500,-0.042296
14.915,59.0500,-0.041087
14.933,59.0500,-0.041087
14.948,59.0500,-0.043504
14.966,59.0500,-0.037462
14.979,59.0500,-0.037462
14.995,59.0500,-0.039879
15.012,59.0500,-0.041087
15.028,59.0500,-0.038670
15.043,59.0500,-0.038670
15.061,59.0500,-0.038670
15.076,59.0500,-0.039879
15.092,59.0500,-0.039879
15.108,59.0500,-0.037462
15.123,59.0500,-0.039879
15.140,59.0500,-0.036253
15.156,59.0500,-0.041087
15.171,59.0500,-0.041087
15.190,59.0500,-0.038670
15.204,59.0500,-0.035045
15.219,59.0500,-0.037462
15.236,59.0500,-0.041087
15.251,59.0500,-0.037462
15.276,59.0500,-0.037462
15.298,59.0500,-0.033837
15.316,59.0500,-0.035045
15.332,59.0500,-0.033837
15.348,59.0500,-0.037462
15.363,59.0500,-0.038670
15.380,59.0500,-0.038670
15.396,59.0500,-0.038670
15.411,59.0500,-0.042296
15.427,59.0500,-0.044713
15.443,59.0500,-0.033837
15.460,59.0500,-0.031420
15.475,59.0500,-0.032628
15.491,59.0500,-0.039879
15.511,59.0500,-0.039879
15.524,59.0500,-0.037462
15.540,59.0500,-0.032628
15.555,59.0500,-0.036253
15.572,59.0500,-0.036253
15.587,59.0500,-0.037462
15.603,59.0500,-0.027794
15.620,59.0500,-0.027794
15.635,59.0500,-0.032628
15.651,59.0500,-0.032628
15.667,59.0500,-0.036253
15.683,59.0500,-0.036253
15.699,59.0500,-0.035045
15.716,59.0500,-0.029003
15.731,59.0500,-0.030211
15.749,59.0500,-0.042296
15.764,59.0500,-0.036253
15.779,59.0500,-0.030211
15.795,59.0500,-0.036253
15.811,59.0500,-0.027794
15.827,59.0500,-0.031420
15.843,59.0500,-0.036253
15.859,59.0500,-0.041087
15.875,59.0500,-0.033837
15.891,59.0500,-0.035045
15.907,59.0500,-0.033837
15.923,59.0500,-0.030211
15.942,59.0500,-0.031420
15.955,59.0500,-0.035045
15.971,59.0500,-0.032628
15.999,59.0500,-0.037462
16.014,59.0500,-0.035045
16.031,59.0500,-0.027794
16.046,59.0500,-0.029003
16.063,59.0500,-0.035045
16.078,59.0500,-0.038670
16.096,59.0500,-0.033837
16.111,59.0500,-0.032628
16.127,59.0500,-0.035045
16.143,59.0500,-0.030211
16.158,59.0500,-0.029003
16.174,59.0500,-0.035045
16.190,59.0500,-0.035045
16.206,59.0500,-0.036253
16.223,59.0500,-0.038670
16.238,59.0500,-0.030211
16.254,59.0500,-0.038670
16.270,59.0500,-0.033837
16.295,59.0500,-0.032628
16.306,59.0500,-0.032628
16.319,59.0500,-0.025377
16.335,59.0500,-0.029003
16.350,59.0500,-0.029003
16.366,59.0500,-0.035045
16.382,59.0500,-0.035045
16.398,59.0500,-0.031420
16.416,59.0500,-0.035045
16.430,59.0500,-0.037462
16.446,59.0500,-0.027794
16.462,59.0500,-0.033837
16.479,59.0500,-0.037462
16.495,59.0500,-0.029003
16.511,59.0500,-0.030211
16.535,59.0500,-0.030211
16.551,59.0500,-0.024169
16.567,59.0500,-0.036253
16.583,59.0500,-0.036253
16.599,59.0500,-0.038670
16.615,59.0500,-0.033837
16.631,59.0500,-0.033837
16.647,59.0500,-0.025377
16.663,59.0500,-0.024169
16.679,59.0500,-0.027794
16.695,59.0500,-0.030211
16.722,59.0500,-0.031420
16.743,59.0500,-0.030211
16.759,59.0500,-0.030211
16.775,59.0500,-0.029003
16.791,59.0500,-0.033837
16.807,59.0500,-0.030211
16.822,59.0500,-0.031420
16.839,59.0500,-0.031420
16.855,59.0500,-0.033837
16.871,59.0500,-0.033837
16.887,59.0500,-0.030211
16.903,59.0500,-0.031420
16.919,59.0500,-0.031420
16.935,59.0500,-0.030211
16.959,59.0500,-0.026586
16.981,59.0500,-0.033837
16.999,59.0500,-0.032628
17.015,59.0500,-0.027794
17.031,59.0500,-0.031420
17.046,59.0500,-0.033837
17.076,59.0500,-0.037462
17.093,59.0500,-0.033837
17.108,59.0500,-0.027794
17.125,59.0500,-0.025377
17.142,59.0500,-0.027794
17.157,59.0500,-0.027794
17.173,59.0500,-0.027794
17.188,59.0500,-0.029003
17.205,59.0500,-0.027794
17.220,59.0500,-0.032628
17.237,59.0500,-0.027794
17.253,59.0500,-0.027794
17.269,59.0500,-0.024169
17.285,59.0500,-0.029003
17.301,59.0500,-0.035045
17.317,59.0500,-0.032628
17.332,59.0500,-0.027794
17.348,59.0500,-0.029003
17.368,59.0500,-0.031420
17.381,59.0500,-0.031420
17.397,59.0500,-0.026586
17.413,59.0500,-0.024169
17.429,59.0500,-0.031420
17.445,59.0500,-0.029003
17.460,59.0500,-0.029003
17.483,59.0500,-0.029003
17.494,59.0500,-0.036253
17.508,59.0500,-0.026586
17.524,59.0500,-0.029003
17.541,59.0500,-0.031420
17.556,59.0500,-0.030211
17.574,59.0500,-0.031420
17.597,59.0500,-0.030211
17.614,59.0500,-0.031420
17.629,59.0500,-0.026586
17.645,59.0500,-0.031420
17.662,59.0500,-0.036253
17.677,59.0500,-0.029003
17.693,59.0500,-0.030211
17.709,59.0500,-0.030211
17.725,59.0500,-0.030211
17.741,59.0500,-0.030211
17.759,59.0500,-0.029003
17.773,59.0500,-0.027794
17.790,59.0500,-0.027794
17.806,59.0500,-0.030211
17.821,59.0500,-0.032628
17.839,59.0500,-0.032628
17.854,59.0500,-0.029003
17.870,59.0500,-0.029003
17.886,59.0500,-0.027794
17.902,59.0500,-0.027794
17.918,59.0500,-0.027794
17.933,59.0500,-0.029003
17.950,59.0500,-0.027794
17.965,59.0500,-0.027794
17.981,59.0500,-0.027794
17.997,59.0500,-0.031420
18.013,59.0500,-0.032628
18.030,59.0500,-0.032628
18.045,59.0500,-0.031420
18.061,59.0500,-0.027794
18.082,59.0500,-0.027794
18.094,59.0500,-0.025377
18.110,59.0500,-0.030211
18.125,59.0500,-0.032628
18.155,59.0500,-0.031420
18.171,59.0500,-0.035045
18.187,59.0500,-0.026586
18.203,59.0500,-0.027794
18.221,59.0500,-0.022961
18.235,59.0500,-0.026586
18.251,59.0500,-0.027794
18.267,59.0500,-0.029003
18.284,59.0500,-0.029003
18.300,59.0500,-0.032628
18.315,59.0500,-0.031420
18.331,59.0500,-0.026586
18.348,59.0500,-0.020544
18.364,59.0500,-0.025377
18.379,59.0500,-0.024169
18.395,59.0500,-0.029003
18.411,59.0500,-0.031420
18.427,59.0500,-0.033837
18.443,59.0500,-0.024169
18.459,59.0500,-0.024169
18.476,59.0500,-0.029003
18.492,59.0500,-0.024169
18.509,59.0500,-0.030211
18.523,59.0500,-0.027794
18.539,59.0500,-0.026586
18.555,59.0500,-0.027794
18.571,59.0500,-0.032628
18.588,59.0500,-0.026586
18.604,59.0500,-0.026586
18.619,59.0500,-0.026586
18.635,59.0500,-0.026586
18.653,59.0500,-0.026586
18.667,59.0500,-0.033837
18.683,59.0500,-0.029003
18.699,59.0500,-0.031420
18.715,59.0500,-0.027794
18.731,59.0500,-0.021752
18.747,59.0500,-0.031420
18.763,59.0500,-0.029003
18.779,59.0500,-0.024169
18.795,59.0500,-0.027794
18.813,59.0500,-0.033837
18.827,59.0500,-0.029003
18.843,59.0500,-0.025377
18.859,59.0500,-0.029003
18.875,59.0500,-0.027794
18.891,59.0500,-0.026586
18.913,59.0500,-0.026586
18.926,59.0500,-0.029003
18.939,59.0500,-0.026586
18.956,59.0500,-0.029003
18.971,59.0500,-0.026586
18.987,59.0500,-0.029003
19.003,59.0500,-0.030211
19.020,59.0500,-0.021752
19.035,59.0500,-0.024169
19.052,59.0500,-0.024169
19.067,59.0500,-0.025377
19.088,59.0500,-0.030211
19.099,59.0500,-0.025377
19.114,59.0500,-0.030211
19.130,59.0500,-0.027794
19.149,59.0500,-0.031420
19.162,59.0500,-0.025377
19.179,59.0500,-0.027794
19.195,59.0500,-0.022961
19.212,59.0500,-0.022961
19.227,59.0500,-0.027794
19.243,59.0500,-0.026586
19.272,59.0500,-0.020544
19.288,59.0500,-0.026586
19.304,59.0500,-0.027794
19.321,59.0500,-0.027794
19.338,59.0500,-0.031420
19.353,59.0500,-0.029003
19.368,59.0500,-0.030211
19.385,59.0500,-0.019335
19.400,59.0500,-0.019335
19.416,59.0500,-0.027794
19.432,59.0500,-0.024169
19.452,59.0500,-0.027794
19.464,59.0500,-0.029003
19.481,59.0500,-0.025377
19.498,59.0500,-0.026586
19.519,59.0500,-0.022961
19.542,59.0500,-0.027794
19.560,59.0500,-0.020544
19.577,59.0500,-0.025377
19.593,59.0500,-0.027794
19.609,59.0500,-0.027794
19.625,59.0500,-0.018127
19.640,59.0500,-0.026586
19.656,59.0500,-0.022961
19.672,59.0500,-0.025377
19.689,59.0500,-0.027794
19.705,59.0500,-0.022961
19.720,59.0500,-0.022961
19.737,59.0500,-0.031420
19.752,59.0500,-0.026586
19.770,59.0500,-0.027794
19.786,59.0500,-0.031420
19.810,59.0500,-0.029003
19.826,59.0500,-0.030211
19.842,59.0500,-0.035045
19.858,59.0500,-0.026586
19.874,59.0500,-0.026586
19.890,59.0500,-0.031420
19.909,59.0500,-0.036253
19.922,59.0500,-0.030211
19.939,59.0500,-0.030211
19.954,59.0500,-0.029003
19.970,59.0500,-0.029003
19.987,59.0500,-0.025377
20.002,59.0500,-0.022961
20.018,59.0500,-0.025377
20.034,59.0500,-0.026586
20.052,59.0500,-0.026586
20.067,59.0500,-0.024169
20.082,59.0500,-0.024169
20.098,59.0500,-0.029003
20.114,59.0500,-0.027794
20.131,59.0500,-0.029003
20.146,59.0500,-0.025377
20.163,59.0500,-0.022961
20.179,59.0500,-0.026586
20.195,59.0500,-0.025377
20.210,59.0500,-0.025377
20.228,59.0500,-0.016918
20.242,59.0500,-0.024169
20.258,59.0500,-0.019335
20.274,59.0500,-0.026586
20.296,59.0500,-0.026586
20.307,59.0500,-0.027794
20.322,59.0500,-0.027794
20.340,59.0500,-0.027794
20.368,59.0500,-0.029003
20.388,59.0500,-0.025377
20.399,59.0500,-0.027794
20.416,59.0500,-0.029003
20.432,59.0500,-0.027794
20.448,59.0500,-0.019335
20.464,59.0500,-0.019335
20.479,59.0500,-0.027794
20.496,59.0500,-0.032628
20.511,59.0500,-0.032628
20.528,59.0500,-0.026586
20.543,59.0500,-0.024169
20.560,59.0500,-0.022961
20.575,59.0500,-0.026586
20.591,59.0500,-0.026586
20.607,59.0500,-0.031420
20.623,59.0500,-0.026586
20.639,59.0500,-0.024169
20.655,59.0500,-0.024169
20.671,59.0500,-0.024169
20.687,59.0500,-0.022961
20.703,59.0500,-0.024169
20.719,59.0500,-0.026586
20.736,59.0500,-0.022961
20.751,59.0500,-0.033837
20.767,59.0500,-0.026586
20.783,59.0500,-0.021752
20.799,59.0500,-0.025377
20.816,59.0500,-0.022961
20.831,59.0500,-0.022961
20.850,59.0500,-0.029003
20.863,59.0500,-0.026586
20.879,59.0500,-0.026586
20.895,59.0500,-0.025377
20.911,59.0500,-0.027794
20.927,59.0500,-0.026586
20.943,59.0500,-0.025377
20.959,59.0500,-0.024169
20.977,59.0500,-0.019335
20.991,59.0500,-0.025377
21.008,59.0500,-0.030211
21.023,59.0500,-0.030211
21.039,59.0500,-0.030211
21.055,59.0500,-0.026586
21.071,59.0500,-0.026586
21.087,59.0500,-0.027794
21.103,59.0500,-0.029003
21.119,59.0500,-0.029003
21.135,59.0500,-0.021752
21.153,59.0500,-0.021752
21.167,59.0500,-0.024169
21.183,59.0500,-0.027794
21.199,59.0500,-0.027794
21.217,59.0500,-0.024169
21.231,59.0500,-0.022961
21.247,59.0500,-0.026586
21.263,59.0500,-0.029003
21.281,59.0500,-0.027794
21.295,59.0500,-0.036253
21.311,59.0500,-0.025377
21.327,59.0500,-0.024169
21.343,59.0500,-0.027794
21.359,59.0500,-0.027794
21.376,59.0500,-0.022961
21.391,59.0500,-0.022961
21.407,59.0500,-0.026586
21.423,59.0500,-0.024169
21.439,59.0500,-0.025377
21.463,59.0500,-0.019335
21.479,59.0500,-0.024169
21.495,59.0500,-0.029003
21.511,59.0500,-0.030211
21.527,59.0500,-0.029003
21.542,59.0500,-0.021752
21.559,59.0500,-0.021752
21.575,59.0500,-0.026586
21.592,59.0500,-0.026586
21.607,59.0500,-0.029003
21.624,59.0500,-0.021752
21.638,59.0500,-0.020544
21.656,59.0500,-0.025377
21.671,59.0500,-0.025377
21.688,59.0500,-0.025377
21.703,59.0500,-0.022961
21.718,59.0500,-0.029003
21.734,59.0500,-0.031420
21.751,59.0500,-0.026586
21.767,59.0500,-0.022961
21.782,59.0500,-0.025377
21.798,59.0500,-0.025377
21.814,59.0500,-0.029003
21.830,59.0500,-0.022961
21.846,59.0500,-0.029003
21.862,59.0500,-0.025377
21.878,59.0500,-0.024169
21.895,59.0500,-0.027794
21.911,59.0500,-0.025377
21.927,59.0500,-0.022961
21.943,59.0500,-0.030211
21.958,59.0500,-0.021752
21.974,59.0500,-0.026586
21.991,59.0500,-0.026586
22.006,59.0500,-0.022961
22.022,59.0500,-0.027794
22.038,59.0500,-0.027794
22.054,59.0500,-0.030211
22.070,59.0500,-0.026586
22.086,59.0500,-0.027794
22.102,59.0500,-0.026586
22.118,59.0500,-0.026586
22.134,59.0500,-0.021752
22.150,59.0500,-0.022961
22.175,59.0500,-0.024169
22.197,59.0500,-0.026586
22.215,59.0500,-0.022961
22.231,59.0500,-0.022961
22.246,59.0500,-0.024169
22.262,59.0500,-0.022961
22.278,59.0500,-0.018127
22.295,59.0500,-0.022961
22.311,59.0500,-0.030211
22.328,59.0500,-0.024169
22.342,59.0500,-0.022961
22.359,59.0500,-0.022961
22.375,59.0500,-0.032628
22.390,59.0500,-0.025377
22.406,59.0500,-0.022961
22.423,59.0500,-0.026586
22.438,59.0500,-0.022961
22.456,59.0500,-0.027794
22.470,59.0500,-0.018127
22.487,59.0500,-0.020544
22.503,59.0500,-0.025377
22.519,59.0500,-0.024169
22.542,59.0500,-0.024169
22.558,59.0500,-0.025377
22.574,59.0500,-0.024169
22.590,59.0500,-0.024169
22.607,59.0500,-0.024169
22.623,59.0500,-0.030211
22.639,59.0500,-0.027794
22.654,59.0500,-0.029003
22.670,59.0500,-0.029003
22.687,59.0500,-0.026586
22.704,59.0500,-0.029003
22.718,59.0500,-0.025377
22.735,59.0500,-0.024169
22.750,59.0500,-0.024169
22.766,59.0500,-0.026586
22.783,59.0500,-0.026586
22.798,59.0500,-0.027794
22.814,59.0500,-0.018127
22.830,59.0500,-0.025377
22.846,59.0500,-0.026586
22.862,59.0500,-0.021752
22.878,59.0500,-0.024169
22.894,59.0500,-0.030211
22.910,59.0500,-0.026586
22.926,59.0500,-0.026586
22.942,59.0500,-0.025377
22.958,59.0500,-0.024169
22.980,59.0500,-0.025377
22.991,59.0500,-0.025377
23.006,59.0500,-0.014501
23.025,59.0500,-0.019335
23.039,59.0500,-0.022961
23.054,59.0500,-0.022961
23.072,59.0500,-0.024169
23.097,59.0500,-0.020544
23.112,59.0500,-0.022961
23.129,59.0500,-0.021752
23.144,59.0500,-0.025377
23.161,59.0500,-0.026586
23.176,59.0500,-0.018127
23.192,59.0500,-0.025377
23.208,59.0500,-0.019335
23.229,59.0500,-0.024169
23.240,59.0500,-0.024169
23.256,59.0500,-0.021752
23.272,59.0500,-0.024169
23.288,59.0500,-0.022961
23.305,59.0500,-0.019335
23.321,59.0500,-0.020544
23.336,59.0500,-0.024169
23.352,59.0500,-0.024169
23.368,59.0500,-0.029003
23.384,59.0500,-0.029003
23.403,59.0500,-0.029003
23.417,59.0500,-0.020544
23.432,59.0500,-0.020544
23.448,59.0500,-0.020544
23.468,59.0500,-0.019335
23.480,59.0500,-0.025377
23.496,59.0500,-0.022961
23.512,59.0500,-0.025377
23.534,59.0500,-0.024169
23.558,59.0500,-0.022961
23.576,59.0500,-0.027794
23.593,59.0500,-0.024169
23.609,59.0500,-0.029003
23.624,59.0500,-0.030211
23.654,59.0500,-0.030211
23.669,59.0500,-0.025377
23.684,59.0500,-0.026586
23.701,59.0500,-0.019335
23.721,59.0500,-0.027794
23.733,59.0500,-0.027794
23.748,59.0500,-0.025377
23.765,59.0500,-0.025377
23.783,59.0500,-0.027794
23.796,59.0500,-0.022961
23.813,59.0500,-0.020544
23.828,59.0500,-0.021752
23.849,59.0500,-0.024169
23.861,59.0500,-0.024169
23.877,59.0500,-0.026586
23.893,59.0500,-0.029003
23.913,59.0500,-0.029003
23.924,59.0500,-0.026586
23.940,59.0500,-0.025377
23.957,59.0500,-0.026586
23.972,59.0500,-0.024169
23.988,59.0500,-0.024169
24.005,59.0500,-0.021752
24.024,59.0500,-0.029003
24.036,59.0500,-0.020544
24.052,59.0500,-0.024169
24.069,59.0500,-0.022961
24.091,59.0500,-0.029003
24.101,59.0500,-0.022961
24.116,59.0500,-0.025377
24.132,59.0500,-0.021752
24.152,59.0500,-0.021752
24.164,59.0500,-0.025377
24.181,59.0500,-0.021752
24.196,59.0500,-0.030211
24.219,59.0500,-0.029003
24.240,59.0500,-0.029003
24.251,59.0500,-0.029003
24.266,59.0500,-0.025377
24.282,59.0500,-0.026586
24.298,59.0500,-0.025377
24.315,59.0500,-0.019335
24.330,59.0500,-0.019335
24.348,59.0500,-0.025377
24.362,59.0500,-0.022961
24.378,59.0500,-0.019335
24.395,59.0500,-0.022961
24.410,59.0500,-0.022961
24.426,59.0500,-0.030211
24.442,59.0500,-0.027794
24.458,59.0500,-0.021752
24.477,59.0500,-0.020544
24.490,59.0500,-0.020544
24.507,59.0500,-0.020544
24.522,59.0500,-0.019335
24.540,59.0500,-0.020544
24.554,59.0500,-0.022961
24.571,59.0500,-0.027794
24.586,59.0500,-0.020544
24.603,59.0500,-0.020544
24.618,59.0500,-0.024169
24.634,59.0500,-0.026586
24.650,59.0500,-0.026586
24.666,59.0500,-0.024169
24.682,59.0500,-0.024169
24.698,59.0500,-0.020544
24.715,59.0500,-0.024169
24.731,59.0500,-0.024169
24.747,59.0500,-0.024169
24.778,59.0500,-0.021752
24.793,59.0500,-0.022961
24.810,59.0500,-0.026586
24.825,59.0500,-0.027794
24.842,59.0500,-0.030211
24.858,59.0500,-0.031420
24.873,59.0500,-0.024169
24.889,59.0500,-0.024169
24.905,59.0500,-0.024169
24.921,59.0500,-0.018127
24.938,59.0500,-0.020544
24.953,59.0500,-0.019335
24.973,59.0500,-0.020544
24.987,59.0500,-0.022961
25.002,59.0500,-0.029003
25.017,59.0500,-0.026586
25.034,59.0500,-0.021752
25.049,59.0500,-0.021752
25.065,59.0500,-0.020544
25.082,59.0500,-0.020544
25.102,59.0500,-0.022961
25.113,59.0500,-0.025377
25.129,59.0500,-0.025377
25.145,59.0500,-0.024169
25.162,59.0500,-0.024169
25.178,59.0500,-0.021752
25.193,59.0500,-0.026586
25.209,59.0500,-0.024169
25.226,59.0500,-0.019335
25.242,59.0500,-0.025377
25.257,59.0500,-0.026586
25.276,59.0500,-0.031420
25.289,59.0500,-0.031420
25.305,59.0500,-0.024169
25.321,59.0500,-0.025377
25.342,59.0500,-0.022961
25.358,59.0500,-0.021752
25.374,59.0500,-0.027794
25.390,59.0500,-0.026586
25.406,59.0500,-0.020544
25.423,59.0500,-0.025377
25.438,59.0500,-0.026586
25.455,59.0500,-0.025377
25.470,59.0500,-0.022961
25.486,59.0500,-0.025377
25.502,59.0500,-0.025377
25.517,59.0500,-0.020544
25.534,59.0500,-0.019335
25.551,59.0500,-0.024169
25.566,59.0500,-0.022961
25.588,59.0500,-0.022961
25.599,59.0500,-0.025377
25.615,59.0500,-0.022961
25.630,59.0500,-0.021752
25.647,59.0500,-0.022961
25.662,59.0500,-0.019335
25.680,59.0500,-0.020544
25.694,59.0500,-0.030211
25.710,59.0500,-0.030211
25.726,59.0500,-0.020544
25.743,59.0500,-0.025377
25.758,59.0494,-0.024169
25.774,58.9801,0.013293
25.791,58.8931,0.037462
25.806,58.8206,0.013293
25.822,58.7359,0.013293
25.838,58.6511,0.030211
25.854,58.5739,0.061631
25.878,58.4457,0.076132
25.896,58.3572,0.083383
25.909,58.2903,0.099093
25.929,58.1912,0.107552
25.942,58.1217,0.120845
25.958,58.0441,0.129304
25.974,57.9612,0.142597
25.990,57.8805,0.160724
26.009,57.7830,0.166766
26.021,57.7180,0.177642
26.038,57.6338,0.181267
26.054,57.5505,0.193352
26.070,57.4677,0.193352
26.086,57.3854,0.186101
26.101,57.3094,0.186101
26.119,57.2199,0.187309
26.134,57.1438,0.147431
26.150,57.0605,0.147431
26.166,56.9818,0.125679
26.182,56.8996,0.112386
26.197,56.8153,0.036253
26.214,56.7350,0.012084
26.229,56.6553,0.012084
26.248,56.5552,0.009668
26.262,56.4887,0.003625
26.278,56.4050,0.002417
26.293,56.3283,0.010876
26.309,56.2430,0.006042
26.325,56.1628,0.006042
26.341,56.0832,0.001208
26.360,55.9891,0.004834
26.373,55.9201,0.007251
26.389,55.8383,0.000000
26.405,55.7576,0.003625
26.421,55.6749,0.009668
26.438,55.5905,0.006042
26.454,55.5088,0.003625
26.469,55.4297,0.007251
26.486,55.3417,0.009668
26.502,55.2631,0.000000
26.520,55.1696,0.002417
26.533,55.1031,0.003625
26.550,55.0127,0.010876
26.566,54.9356,0.009668
26.582,54.8527,-0.001208
26.597,54.7767,0.002417
26.614,54.6897,0.000000
26.630,54.6111,0.001208
26.645,54.5314,0.006042
26.661,54.4496,0.006042
26.677,54.3674,0.006042
26.694,54.2826,0.003625
26.709,54.2044,0.000000
26.726,54.1180,0.002417
26.742,54.0384,0.000000
26.757,53.9581,0.009668
26.773,53.8779,-0.001208
26.790,53.7870,-0.001208
26.806,53.7103,0.000000
26.821,53.6286,0.003625
26.837,53.5510,0.007251
26.854,53.4635,0.008459
26.869,53.3859,0.009668
26.885,53.3051,0.003625
26.901,53.2239,0.006042
26.918,53.1386,0.002417
26.933,53.0605,0.003625
26.950,53.0001,-0.065256
26.976,53.0001,0.006042
26.992,53.0001,0.008459
27.008,53.0001,0.000000
27.024,53.0001,0.003625
27.040,53.0001,0.003625
27.056,53.0001,-0.003625
27.072,53.0001,0.001208
27.088,53.0001,0.001208
27.104,53.0001,-0.003625
27.120,53.0001,-0.003625
27.142,53.0001,0.000000
27.152,53.0001,0.008459
27.168,53.0001,0.008459
27.184,53.0001,-0.001208
27.203,53.0001,0.003625
27.216,53.0001,0.002417
27.232,53.0001,-0.001208
27.248,53.0001,0.000000
27.264,53.0001,0.006042
27.281,53.0001,0.006042
27.296,53.0001,0.004834
27.313,53.0001,0.006042
27.329,53.0001,0.000000
27.345,53.0001,0.000000
27.361,53.0001,-0.001208
27.376,53.0001,0.002417
27.394,53.0001,0.006042
27.408,53.0001,0.003625
27.424,53.0001,0.008459
27.441,53.0001,0.006042
27.456,53.0001,0.003625
27.472,53.0001,0.001208
27.488,53.0001,0.000000
27.512,53.0001,0.006042
27.527,53.0425,-0.049546
27.543,53.1252,0.012084
27.559,53.2023,-0.006042
27.576,53.2893,-0.009668
27.591,53.3699,0.004834
27.607,53.4522,0.007251
27.623,53.5340,-0.001208
27.639,53.6126,0.003625
27.655,53.6948,0.003625
27.671,53.7741,0.001208
27.687,53.8614,-0.003625
27.703,53.9387,0.001208
27.719,54.0229,-0.004834
27.734,54.1005,-0.003625
27.752,54.1894,-0.001208
27.767,54.2682,0.006042
27.783,54.3484,0.003625
27.799,54.4276,-0.003625
27.815,54.5109,0.000000
27.831,54.5910,0.002417
27.847,54.6723,-0.002417
27.864,54.7592,0.006042
27.879,54.8363,0.004834
27.894,54.9176,-0.001208
27.912,55.0044,0.002417
27.927,55.0810,-0.001208
27.943,55.1664,-0.001208
27.959,55.2445,-0.001208
27.975,55.3278,0.001208
27.991,55.4122,0.001208
28.007,55.4934,-0.003625
28.035,55.6379,0.003625
28.051,55.7157,0.003625
28.067,55.7989,0.003625
28.083,55.8801,0.001208
28.099,55.9630,-0.002417
28.115,56.0421,0.002417
28.130,56.1238,-0.001208
28.147,56.2046,-0.002417
28.162,56.2873,-0.002417
28.179,56.3711,-0.002417
28.195,56.4499,0.001208
28.211,56.5352,0.000000
28.228,56.6245,0.000000
28.243,56.6977,-0.008459
28.259,56.7773,0.000000
28.278,56.8811,-0.002417
28.291,56.9424,-0.002417
28.307,57.0272,0.002417
28.323,57.1044,-0.006042
28.339,57.1917,-0.006042
28.354,57.2683,-0.003625
28.373,57.3654,-0.009668
28.388,57.4390,-0.009668
28.403,57.5146,-0.006042
28.418,57.5944,-0.006042
28.434,57.6796,-0.013293
28.451,57.7619,-0.013293
28.466,57.8406,-0.007251
28.482,57.9208,-0.014501
28.498,58.0040,-0.013293
28.517,58.0956,-0.018127
28.530,58.1665,-0.019335
28.547,58.2498,-0.018127
28.577,58.4087,-0.029003
28.593,58.4875,-0.033837
28.609,58.5702,-0.042296
28.626,58.6519,-0.048338
28.649,58.7705,-0.048338
28.672,58.8900,-0.065256
28.689,58.9779,-0.087008
28.706,59.0001,-0.076132
28.722,59.0001,-0.083383
28.739,59.0001,-0.080966
28.753,59.0001,-0.071298
28.769,59.0001,-0.067673
28.785,59.0001,-0.072507
28.801,59.0001,-0.072507
28.822,59.0001,-0.065256
28.834,59.0001,-0.060422
28.850,59.0001,-0.067673
28.865,59.0001,-0.065256
28.883,59.0001,-0.062839
28.898,59.0001,-0.059214
28.915,59.0001,-0.056797
28.929,59.0001,-0.054380
28.946,59.0001,-0.055589
28.961,59.0001,-0.055589
28.977,59.0001,-0.056797
28.994,59.0001,-0.060422
29.009,59.0001,-0.060422
29.025,59.0001,-0.056797
29.041,59.0001,-0.054380
29.057,59.0001,-0.053172
29.073,59.0001,-0.050755
29.089,59.0001,-0.050755
29.105,59.0001,-0.051963
29.122,59.0001,-0.048338
29.137,59.0001,-0.045921
29.154,59.0001,-0.045921
29.169,59.0001,-0.048338
29.186,59.0001,-0.044713
29.201,59.0001,-0.050755
29.217,59.0001,-0.047129
29.233,59.0001,-0.049546
29.250,59.0001,-0.049546
29.265,59.0001,-0.043504
29.281,59.0001,-0.042296
29.297,59.0001,-0.043504
29.314,59.0001,-0.039879
29.329,59.0001,-0.039879
29.348,59.0001,-0.047129
29.361,59.0001,-0.041087
29.377,59.0001,-0.045921
29.393,59.0001,-0.043504
29.409,59.0001,-0.037462
29.425,59.0001,-0.045921
29.442,59.0001,-0.045921
29.459,59.0001,-0.038670
29.478,59.0001,-0.039879
29.489,59.0001,-0.039879
29.505,59.0001,-0.039879
29.521,59.0001,-0.039879
29.543,59.0001,-0.035045
29.554,59.0001,-0.041087
29.569,59.0001,-0.041087
29.588,59.0001,-0.038670
29.602,59.0001,-0.038670
29.617,59.0001,-0.043504
29.633,59.0001,-0.039879
29.659,59.0001,-0.043504
29.676,59.0001,-0.036253
29.692,59.0001,-0.035045
29.707,59.0001,-0.036253
29.723,59.0001,-0.041087
29.739,59.0001,-0.041087
29.755,59.0001,-0.037462
29.771,59.0001,-0.032628
29.789,59.0001,-0.039879
29.803,59.0001,-0.041087
29.819,59.0001,-0.038670
29.835,59.0001,-0.033837
29.851,59.0001,-0.033837
29.868,59.0001,-0.036253
29.883,59.0001,-0.037462
29.899,59.0001,-0.037462
29.915,59.0001,-0.038670
29.931,59.0001,-0.038670
29.947,59.0001,-0.039879
29.963,59.0001,-0.042296
29.979,59.0001,-0.037462
29.995,59.0001,-0.036253
30.019,59.0001,-0.032628
30.042,59.0001,-0.033837
30.058,59.0001,-0.038670
30.078,59.0001,-0.038670
30.091,59.0001,-0.036253
30.107,59.0001,-0.031420
30.123,59.0001,-0.029003
30.140,59.0001,-0.033837
30.155,59.0001,-0.036253
30.171,59.0001,-0.030211
30.198,59.0001,-0.033837
30.214,59.0001,-0.031420
30.229,59.0001,-0.038670
30.246,59.0001,-0.035045
30.263,59.0001,-0.035045
30.278,59.0001,-0.035045
30.294,59.0001,-0.032628
30.310,59.0001,-0.035045
30.326,59.0001,-0.037462
30.342,59.0001,-0.038670
30.360,59.0001,-0.037462
30.374,59.0001,-0.036253
30.391,59.0001,-0.031420
30.406,59.0001,-0.036253
30.422,59.0001,-0.036253
30.438,59.0001,-0.038670
30.460,59.0001,-0.032628
30.472,59.0001,-0.035045
30.486,59.0001,-0.037462
30.502,59.0001,-0.035045
30.518,59.0001,-0.038670
30.535,59.0001,-0.033837
30.550,59.0001,-0.037462
30.567,59.0001,-0.033837
30.582,59.0001,-0.031420
30.598,59.0001,-0.035045
30.613,59.0001,-0.031420
30.629,59.0001,-0.024169
30.645,59.0001,-0.030211
30.661,59.0001,-0.030211
30.677,59.0001,-0.029003
30.694,59.0001,-0.024169
30.710,59.0001,-0.030211
30.737,59.0001,-0.030211
30.754,59.0001,-0.029003
30.769,59.0001,-0.030211
30.785,59.0001,-0.039879
30.802,59.0001,-0.039879
30.818,59.0001,-0.039879
30.833,59.0001,-0.033837
30.849,59.0001,-0.042296
30.867,59.0001,-0.039879
30.882,59.0001,-0.031420
30.899,59.0001,-0.031420
30.913,59.0001,-0.030211
30.930,59.0001,-0.030211
30.946,59.0001,-0.025377
30.962,59.0001,-0.025377
30.977,59.0001,-0.031420
30.993,59.0001,-0.037462
31.009,59.0001,-0.037462
31.025,59.0001,-0.033837
31.042,59.0001,-0.033837
31.057,59.0001,-0.038670
31.073,59.0001,-0.038670
31.089,59.0001,-0.032628
31.105,59.0001,-0.029003
31.121,59.0001,-0.029003
31.137,59.0001,-0.030211
31.154,59.0001,-0.031420
31.169,59.0001,-0.031420
31.186,59.0001,-0.031420
31.201,59.0001,-0.032628
31.217,59.0001,-0.031420
31.234,59.0001,-0.032628
31.249,59.0001,-0.027794
31.265,59.0001,-0.033837
31.281,59.0001,-0.033837
31.297,59.0001,-0.029003
31.314,59.0001,-0.031420
31.329,59.0001,-0.026586
31.346,59.0001,-0.027794
31.361,59.0001,-0.027794
31.378,59.0001,-0.033837
31.393,59.0001,-0.031420
31.409,59.0001,-0.029003
31.425,59.0001,-0.033837
31.442,59.0001,-0.027794
31.457,59.0001,-0.026586
31.474,59.0001,-0.029003
31.489,59.0001,-0.027794
31.505,59.0001,-0.027794
31.521,59.0001,-0.027794
31.537,59.0001,-0.026586
31.553,59.0001,-0.033837
31.569,59.0001,-0.033837
31.595,59.0001,-0.033837
31.616,59.0001,-0.032628
31.635,59.0001,-0.031420
31.650,59.0001,-0.031420
31.665,59.0001,-0.026586
31.681,59.0001,-0.030211
31.697,59.0001,-0.030211
31.713,59.0001,-0.025377
31.729,59.0001,-0.022961
31.745,59.0001,-0.026586
31.761,59.0001,-0.036253
31.778,59.0001,-0.030211
31.793,59.0001,-0.030211
31.809,59.0001,-0.033837
31.836,59.0001,-0.030211
31.853,59.0001,-0.030211
31.870,59.0001,-0.030211
31.884,59.0001,-0.027794
31.901,59.0001,-0.027794
31.916,59.0001,-0.030211
31.934,59.0001,-0.027794
31.948,59.0001,-0.029003
31.964,59.0001,-0.022961
31.979,59.0001,-0.025377
31.996,59.0001,-0.035045
32.012,59.0001,-0.031420
32.033,59.0001,-0.031420
32.044,59.0001,-0.025377
32.060,59.0001,-0.026586
32.077,59.0001,-0.031420
32.093,59.0001,-0.032628
32.108,59.0001,-0.027794
32.124,59.0001,-0.036253
32.140,59.0001,-0.032628
32.157,59.0001,-0.035045
32.172,59.0001,-0.031420
32.188,59.0001,-0.029003
32.204,59.0001,-0.031420
32.221,59.0001,-0.030211
32.236,59.0001,-0.029003
32.252,59.0001,-0.026586
32.269,59.0001,-0.030211
32.284,59.0001,-0.031420
32.300,59.0001,-0.026586
32.316,59.0001,-0.025377
32.334,59.0001,-0.026586
32.348,59.0001,-0.027794
32.365,59.0001,-0.027794
32.395,59.0001,-0.030211
32.411,59.0001,-0.030211
32.426,59.0001,-0.026586
32.443,59.0001,-0.030211
32.459,59.0001,-0.030211
32.475,59.0001,-0.025377
32.491,59.0001,-0.025377
32.507,59.0001,-0.027794
32.522,59.0001,-0.032628
32.539,59.0001,-0.032628
32.554,59.0001,-0.031420
32.571,59.0001,-0.027794
32.586,59.0001,-0.025377
32.603,59.0001,-0.026586
32.618,59.0001,-0.026586
32.634,59.0001,-0.031420
32.650,59.0001,-0.031420
32.666,59.0001,-0.026586
32.683,59.0001,-0.027794
32.701,59.0001,-0.031420
32.715,59.0001,-0.024169
32.731,59.0001,-0.030211
32.746,59.0001,-0.032628
32.762,59.0001,-0.026586
32.779,59.0001,-0.022961
32.796,59.0001,-0.020544
32.810,59.0001,-0.026586
32.828,59.0001,-0.027794
32.843,59.0001,-0.032628
32.859,59.0001,-0.030211
32.874,59.0001,-0.026586
32.891,59.0001,-0.026586
32.907,59.0001,-0.029003
32.924,59.0001,-0.031420
32.947,59.0001,-0.026586
32.963,59.0001,-0.031420
32.979,59.0001,-0.027794
32.995,59.0001,-0.026586
33.012,59.0001,-0.026586
33.027,59.0001,-0.025377
33.045,59.0001,-0.030211
33.059,59.0001,-0.024169
33.076,59.0001,-0.029003
33.092,59.0001,-0.029003
33.108,59.0001,-0.026586
33.123,59.0001,-0.029003
33.140,59.0001,-0.024169
33.156,59.0001,-0.021752
33.171,59.0001,-0.021752
33.188,59.0001,-0.031420
33.210,59.0001,-0.036253
33.222,59.0001,-0.026586
33.235,59.0001,-0.020544
33.251,59.0001,-0.027794
33.269,59.0001,-0.027794
33.284,59.0001,-0.030211
33.299,59.0001,-0.030211
33.317,59.0001,-0.029003
33.332,59.0001,-0.030211
33.348,59.0001,-0.029003
33.363,59.0001,-0.021752
33.379,59.0001,-0.027794
33.395,59.0001,-0.027794
33.411,59.0001,-0.024169
33.427,59.0001,-0.026586
33.443,59.0001,-0.026586
33.460,59.0001,-0.030211
33.475,59.0001,-0.030211
33.503,59.0001,-0.025377
33.519,59.0001,-0.024169
33.535,59.0001,-0.024169
33.551,59.0001,-0.032628
33.569,59.0001,-0.026586
33.584,59.0001,-0.032628
33.599,59.0001,-0.029003
33.615,59.0001,-0.027794
33.631,59.0001,-0.021752
33.648,59.0001,-0.024169
33.664,59.0001,-0.031420
33.679,59.0001,-0.031420
33.695,59.0001,-0.027794
33.711,59.0001,-0.031420
33.727,59.0001,-0.021752
33.743,59.0001,-0.022961
33.759,59.0001,-0.024169
33.775,59.0001,-0.031420
33.792,59.0001,-0.027794
33.809,59.0001,-0.027794
33.824,59.0001,-0.027794
33.839,59.0001,-0.030211
33.861,59.0001,-0.029003
33.872,59.0001,-0.029003
33.887,59.0001,-0.030211
33.903,59.0001,-0.027794
33.919,59.0001,-0.027794
33.935,59.0001,-0.026586
33.952,59.0001,-0.030211
33.967,59.0001,-0.025377
33.984,59.0001,-0.024169
33.999,59.0001,-0.020544
34.015,59.0001,-0.024169
34.040,59.0001,-0.022961
34.060,59.0001,-0.025377
34.071,59.0001,-0.022961
34.087,59.0001,-0.032628
34.103,59.0001,-0.030211
34.119,59.0001,-0.030211
34.135,59.0001,-0.027794
34.151,59.0001,-0.022961
34.168,59.0001,-0.030211
34.183,59.0001,-0.035045
34.199,59.0001,-0.030211
34.215,59.0001,-0.024169
34.232,59.0001,-0.024169
34.250,59.0001,-0.020544
34.264,59.0001,-0.022961
34.279,59.0001,-0.031420
34.295,59.0001,-0.030211
34.312,59.0001,-0.024169
34.328,59.0001,-0.024169
34.343,59.0001,-0.019335
34.359,59.0001,-0.018127
34.375,59.0001,-0.021752
34.391,59.0001,-0.026586
34.407,59.0001,-0.024169
34.423,59.0001,-0.026586
34.439,59.0001,-0.026586
34.455,59.0001,-0.019335
34.471,59.0001,-0.026586
34.489,59.0001,-0.027794
34.504,59.0001,-0.029003
34.519,59.0001,-0.029003
34.535,59.0001,-0.021752
34.551,59.0001,-0.024169
34.567,59.0001,-0.021752
34.582,59.0001,-0.020544
34.603,59.0001,-0.029003
34.620,59.0001,-0.030211
34.636,59.0001,-0.027794
34.652,59.0001,-0.025377
34.669,59.0001,-0.024169
34.684,59.0001,-0.025377
34.699,59.0001,-0.025377
34.716,59.0001,-0.020544
34.731,59.0001,-0.020544
34.747,59.0001,-0.026586
34.764,59.0001,-0.024169
34.780,59.0001,-0.024169
34.795,59.0001,-0.025377
34.811,59.0001,-0.025377
34.829,59.0001,-0.027794
34.844,59.0001,-0.033837
34.859,59.0001,-0.033837
34.875,59.0001,-0.027794
34.892,59.0001,-0.029003
34.908,59.0001,-0.022961
34.923,59.0001,-0.022961
34.940,59.0001,-0.019335
34.956,59.0001,-0.025377
34.971,59.0001,-0.025377
34.987,59.0001,-0.024169
35.004,59.0001,-0.026586
35.019,59.0001,-0.027794
35.036,59.0001,-0.024169
35.051,59.0001,-0.027794
35.068,59.0001,-0.025377
35.085,59.0001,-0.024169
35.099,59.0001,-0.026586
35.115,59.0001,-0.025377
35.131,59.0001,-0.031420
35.147,59.0001,-0.029003
35.163,59.0001,-0.025377
35.179,59.0001,-0.024169
35.196,59.0001,-0.029003
35.211,59.0001,-0.029003
35.227,59.0001,-0.022961
35.244,59.0001,-0.027794
35.259,59.0001,-0.027794
35.276,59.0001,-0.016918
35.291,59.0001,-0.016918
35.307,59.0001,-0.024169
35.323,59.0001,-0.026586
35.339,59.0001,-0.026586
35.355,59.0001,-0.025377
35.371,59.0001,-0.025377
35.387,59.0001,-0.026586
35.404,59.0001,-0.024169
35.419,59.0001,-0.029003
35.435,59.0001,-0.027794
35.452,59.0001,-0.025377
35.468,59.0001,-0.029003
35.483,59.0001,-0.030211
35.499,59.0001,-0.030211
35.515,59.0001,-0.020544
35.532,59.0001,-0.026586
35.547,59.0001,-0.030211
35.563,59.0001,-0.031420
35.579,59.0001,-0.027794
35.596,59.0001,-0.021752
35.611,59.0001,-0.025377
35.628,59.0001,-0.022961
35.643,59.0001,-0.022961
35.659,59.0001,-0.027794
35.685,59.0001,-0.022961
35.701,59.0001,-0.032628
35.717,59.0001,-0.025377
35.733,59.0001,-0.021752
35.750,59.0001,-0.035045
35.766,59.0001,-0.032628
35.782,59.0001,-0.025377
35.797,59.0001,-0.026586
35.813,59.0001,-0.032628
35.830,59.0001,-0.029003
35.846,59.0001,-0.026586
35.861,59.0001,-0.026586
35.877,59.0001,-0.025377
35.893,59.0001,-0.024169
35.909,59.0001,-0.031420
35.926,59.0001,-0.027794
35.941,59.0001,-0.021752
35.957,59.0001,-0.022961
35.973,59.0001,-0.031420
35.990,59.0001,-0.027794
36.005,59.0001,-0.024169
36.022,59.0001,-0.024169
36.037,59.0001,-0.025377
36.053,59.0001,-0.025377
36.069,59.0001,-0.025377
36.085,59.0001,-0.021752
36.101,59.0001,-0.024169
36.117,59.0001,-0.024169
36.133,59.0001,-0.024169
36.149,59.0001,-0.019335
36.170,59.0001,-0.025377
36.182,59.0001,-0.026586
36.198,59.0001,-0.027794
36.214,59.0001,-0.025377
36.240,59.0001,-0.022961
36.255,59.0001,-0.026586
36.272,59.0001,-0.026586
36.288,59.0001,-0.025377
36.307,59.0001,-0.026586
36.320,59.0001,-0.019335
36.336,59.0001,-0.024169
36.352,59.0001,-0.029003
36.369,59.0001,-0.027794
36.384,59.0001,-0.025377
36.400,59.0001,-0.022961
36.416,59.0001,-0.030211
36.434,59.0001,-0.030211
36.448,59.0001,-0.025377
36.465,59.0001,-0.026586
36.480,59.0001,-0.026586
36.498,59.0001,-0.026586
36.512,59.0001,-0.025377
36.528,59.0001,-0.025377
36.544,59.0001,-0.027794
36.562,59.0001,-0.027794
36.576,59.0001,-0.022961
36.592,59.0001,-0.020544
36.608,59.0001,-0.020544
36.624,59.0001,-0.032628
36.640,59.0001,-0.032628
36.656,59.0001,-0.030211
36.672,59.0001,-0.027794
36.688,59.0001,-0.026586
36.704,59.0001,-0.019335
36.720,59.0001,-0.019335
36.736,59.0001,-0.025377
36.752,59.0001,-0.029003
36.768,59.0001,-0.029003
36.799,59.0001,-0.020544
36.815,59.0001,-0.027794
36.831,59.0001,-0.022961
36.847,59.0001,-0.019335
36.863,59.0001,-0.020544
36.879,59.0001,-0.026586
36.896,59.0001,-0.025377
36.911,59.0001,-0.026586
36.927,59.0001,-0.025377
36.944,59.0001,-0.020544
36.959,59.0001,-0.020544
36.975,59.0001,-0.027794
36.990,59.0001,-0.027794
37.007,59.0001,-0.031420
37.023,59.0001,-0.024169
37.038,59.0001,-0.022961
37.055,59.0001,-0.021752
37.070,59.0001,-0.021752
37.086,59.0001,-0.027794
37.102,59.0001,-0.024169
37.123,59.0001,-0.024169
37.135,59.0001,-0.024169
37.151,59.0001,-0.024169
37.166,59.0001,-0.027794
37.182,59.0001,-0.020544
37.199,59.0001,-0.021752
37.215,59.0001,-0.030211
37.233,59.0001,-0.027794
37.246,59.0001,-0.026586
37.262,59.0001,-0.030211
37.278,59.0001,-0.025377
37.295,59.0001,-0.024169
37.311,59.0001,-0.030211
37.326,59.0001,-0.018127
37.354,59.0001,-0.027794
37.370,59.0001,-0.027794
37.386,59.0001,-0.026586
37.402,59.0001,-0.021752
37.419,59.0001,-0.021752
37.435,59.0001,-0.030211
37.451,59.0001,-0.022961
37.466,59.0001,-0.021752
37.483,59.0001,-0.025377
37.498,59.0001,-0.030211
37.514,59.0001,-0.021752
37.530,59.0001,-0.021752
37.550,59.0001,-0.021752
37.563,59.0001,-0.021752
37.579,59.0001,-0.025377
37.594,59.0001,-0.024169
37.611,59.0001,-0.024169
37.627,59.0001,-0.024169
37.642,59.0001,-0.024169
37.658,59.0001,-0.027794
37.674,59.0001,-0.025377
37.691,59.0001,-0.024169
37.706,59.0001,-0.027794
37.723,59.0001,-0.026586
37.739,59.0001,-0.027794
37.755,59.0001,-0.021752
37.775,59.0001,-0.020544
37.786,59.0001,-0.024169
37.802,59.0001,-0.021752
37.818,59.0001,-0.025377
37.839,59.0001,-0.025377
37.851,59.0001,-0.027794
37.866,59.0001,-0.025377
37.882,59.0001,-0.019335
37.906,59.0001,-0.019335
37.921,59.0001,-0.019335
37.937,59.0001,-0.025377
37.953,59.0001,-0.024169
37.969,59.0001,-0.024169
37.985,59.0001,-0.024169
38.001,59.0001,-0.026586
38.021,59.0001,-0.022961
38.034,59.0001,-0.021752
38.049,59.0001,-0.024169
38.065,59.0001,-0.029003
38.083,59.0001,-0.026586
38.097,59.0001,-0.026586
38.113,59.0001,-0.024169
38.129,59.0001,-0.022961
38.147,59.0001,-0.021752
38.162,59.0001,-0.025377
38.177,59.0001,-0.031420
38.192,59.0001,-0.024169
38.209,59.0001,-0.024169
38.225,59.0001,-0.024169
38.241,59.0001,-0.024169
38.258,59.0001,-0.025377
38.274,59.0001,-0.022961
38.290,59.0001,-0.022961
38.304,59.0001,-0.026586
38.321,59.0001,-0.026586
38.337,59.0001,-0.025377
38.353,59.0001,-0.026586
38.369,59.0001,-0.026586
38.385,59.0001,-0.020544
38.401,59.0001,-0.020544
38.417,59.0001,-0.026586
38.439,59.0001,-0.021752
38.455,59.0001,-0.021752
38.471,59.0001,-0.016918
38.487,59.0001,-0.019335
38.506,59.0001,-0.020544
38.520,59.0001,-0.022961
38.536,59.0001,-0.025377
38.551,59.0001,-0.026586
38.567,59.0001,-0.019335
38.583,59.0001,-0.022961
38.599,59.0001,-0.022961
38.615,59.0001,-0.024169
38.631,59.0001,-0.024169
38.647,59.0001,-0.027794
38.663,59.0001,-0.022961
38.679,59.0001,-0.022961
38.695,59.0001,-0.030211
38.711,59.0001,-0.030211
38.727,59.0001,-0.022961
38.743,59.0001,-0.026586
38.759,59.0001,-0.026586
38.775,59.0001,-0.025377
38.790,59.0001,-0.025377
38.814,59.0001,-0.025377
38.837,59.0001,-0.025377
38.856,59.0001,-0.026586
38.873,59.0001,-0.021752
38.887,59.0001,-0.027794
38.903,59.0001,-0.025377
38.919,59.0001,-0.019335
38.936,59.0001,-0.020544
38.951,59.0001,-0.014501
38.967,59.0001,-0.025377
38.997,59.0001,-0.022961
39.013,59.0001,-0.022961
39.028,59.0001,-0.022961
39.045,59.0001,-0.024169
39.064,59.0001,-0.021752
39.076,59.0001,-0.021752
39.092,59.0001,-0.020544
39.108,59.0001,-0.026586
39.129,59.0001,-0.026586
39.140,59.0001,-0.018127
39.157,59.0001,-0.022961
39.172,59.0001,-0.020544
39.189,59.0001,-0.020544
39.205,59.0001,-0.020544
39.222,59.0001,-0.020544
39.237,59.0001,-0.024169
39.253,59.0001,-0.029003
39.269,59.0001,-0.029003
39.284,59.0001,-0.020544
39.301,59.0001,-0.020544
39.321,59.0001,-0.026586
39.332,59.0001,-0.024169
39.348,59.0001,-0.024169
39.366,59.0001,-0.026586
39.380,59.0001,-0.026586
39.396,59.0001,-0.027794
39.412,59.0001,-0.027794
39.431,59.0001,-0.024169
39.444,59.0001,-0.021752
39.461,59.0001,-0.018127
39.476,59.0001,-0.025377
39.493,59.0001,-0.025377
39.509,59.0001,-0.025377
39.524,59.0001,-0.026586
39.554,59.0001,-0.022961
39.570,59.0001,-0.022961
39.586,59.0001,-0.022961
39.602,59.0001,-0.022961
39.619,59.0001,-0.025377
39.635,59.0001,-0.024169
39.650,59.0001,-0.024169
39.666,59.0001,-0.021752
39.683,59.0001,-0.024169
39.699,59.0001,-0.024169
39.714,59.0001,-0.025377
39.730,59.0001,-0.025377
39.747,59.0001,-0.024169
39.762,59.0001,-0.016918
39.779,59.0001,-0.021752
39.794,59.0001,-0.026586
39.812,59.0001,-0.026586
39.826,59.0001,-0.024169
39.843,59.0001,-0.025377
39.858,59.0001,-0.024169
39.874,59.0001,-0.024169
39.890,59.0001,-0.022961
39.906,59.0001,-0.024169
39.922,59.0001,-0.029003
39.938,59.0001,-0.030211
39.954,59.0001,-0.025377
39.970,59.0001,-0.029003
39.994,59.0001,-0.025377
40.006,59.0001,-0.030211
40.019,59.0001,-0.019335
40.034,59.0001,-0.022961
40.050,59.0001,-0.027794
40.067,59.0001,-0.025377
40.082,59.0001,-0.025377
40.109,59.0001,-0.021752
40.125,59.0001,-0.024169
40.141,59.0001,-0.022961
40.157,59.0001,-0.024169
40.173,59.0001,-0.024169
40.189,59.0001,-0.025377
40.205,59.0001,-0.026586
40.221,59.0001,-0.024169
40.237,59.0001,-0.029003
40.253,59.0001,-0.019335
40.272,59.0001,-0.018127
40.285,59.0001,-0.026586
40.302,59.0001,-0.021752
40.317,59.0001,-0.031420
40.333,59.0001,-0.027794
40.349,59.0001,-0.025377
40.365,59.0001,-0.018127
40.381,59.0001,-0.018127
40.397,59.0001,-0.022961
40.413,58.9531,0.049546
40.429,58.8723,0.049546
40.445,58.7906,0.018127
40.461,58.7124,0.037462
40.478,58.6250,0.041087
40.493,58.5459,0.058005
40.509,58.4677,0.058005
40.525,58.3808,0.072507
40.541,58.3022,0.093050
40.557,58.2193,0.103926
40.573,58.1402,0.123262
40.595,58.0216,0.125679
40.617,57.9139,0.149848
40.638,57.8056,0.174016
40.662,57.6829,0.184892
40.678,57.6027,0.193352
40.694,57.5224,0.206645
40.710,57.4381,0.206645
40.726,57.3529,0.216312
40.742,57.2737,0.221146
40.759,57.1873,0.219937
40.774,57.1138,0.206645
40.792,57.0141,0.206645
40.806,56.9492,0.181267
40.822,56.8670,0.166766
40.838,56.7872,0.128095
40.854,56.6983,0.103926
40.869,56.6233,0.027794
40.886,56.5409,0.013293
40.902,56.4603,0.010876
40.919,56.3698,0.010876
40.934,56.2911,0.008459
40.951,56.2058,0.002417
40.966,56.1338,0.003625
40.982,56.0474,0.001208
40.998,55.9636,0.008459
41.014,55.8891,0.002417
41.030,55.8037,0.002417
41.048,55.7081,0.000000
41.061,55.6432,0.002417
41.077,55.5605,0.012084
41.094,55.4803,0.006042
41.110,55.3940,0.012084
41.125,55.3132,0.009668
41.142,55.2340,0.010876
41.160,55.1380,0.000000
41.187,55.0001,0.001208
41.204,54.9111,0.000000
41.219,54.8365,0.007251
41.236,54.7506,0.007251
41.252,54.6699,0.000000
41.268,54.5867,0.006042
41.283,54.5069,0.003625
41.304,54.4023,0.004834
41.316,54.3445,0.004834
41.331,54.2612,0.003625
41.347,54.1830,-0.001208
41.365,54.0890,0.002417
41.380,54.0164,0.002417
41.396,53.9332,-0.001208
41.411,53.8556,0.007251
41.428,53.7671,0.006042
41.444,53.6910,0.001208
41.461,53.5965,0.003625
41.475,53.5295,0.000000
41.491,53.4453,0.000000
41.507,53.3651,-0.001208
41.523,53.2838,0.001208
41.540,53.1975,0.001208
41.556,53.1168,-0.001208
41.574,53.0257,0.001208
41.594,52.9501,0.001208
41.605,52.9501,-0.033837
41.620,52.9501,-0.033837
41.636,52.9501,0.000000
41.652,52.9501,-0.001208
41.668,52.9501,-0.004834
41.685,52.9501,0.002417
41.709,52.9501,0.002417
41.724,52.9501,-0.003625
41.740,52.9501,-0.003625
41.756,52.9501,0.002417
41.773,52.9501,0.001208
41.789,52.9501,0.001208
41.804,52.9501,0.008459
41.820,52.9501,0.008459
41.836,52.9501,0.008459
41.852,52.9501,0.007251
41.868,52.9501,0.006042
41.885,52.9501,0.002417
41.901,52.9501,0.002417
41.917,52.9501,0.007251
41.932,52.9501,0.001208
41.953,52.9501,-0.002417
41.964,52.9501,0.008459
41.980,52.9501,0.002417
41.996,52.9501,0.001208
42.017,52.9501,0.001208
42.029,52.9501,0.003625
42.045,52.9501,-0.002417
42.060,52.9501,0.004834
42.077,52.9501,0.003625
42.093,52.9501,0.006042
42.108,52.9501,0.002417
42.124,52.9501,0.001208
42.140,53.0007,-0.027794
42.156,53.0808,0.012084
42.172,53.1610,-0.004834
42.189,53.2454,0.000000
42.204,53.3235,-0.006042
42.220,53.4124,0.008459
42.244,53.5289,0.001208
42.259,53.6055,0.001208
42.275,53.6868,0.001208
42.294,53.7829,0.012084
42.308,53.8538,0.015710
42.323,53.9326,0.000000
42.342,54.0276,0.000000
42.355,54.0956,-0.001208
42.374,54.1932,-0.001208
42.387,54.2590,0.002417
42.403,54.3398,-0.001208
42.419,54.4215,0.002417
42.435,54.5079,0.004834
42.451,54.5876,0.004834
42.466,54.6668,-0.001208
42.483,54.7485,0.003625
42.499,54.8318,0.003625
42.515,54.9115,0.006042
42.531,54.9937,0.004834
42.547,55.0755,0.001208
42.563,55.1593,-0.006042
42.579,55.2395,0.000000
42.595,55.3239,-0.002417
42.612,55.4076,0.001208
42.627,55.4837,0.004834
42.643,55.5681,0.002417
42.659,55.6477,-0.004834
42.676,55.7371,0.000000
42.691,55.8118,0.000000
42.707,55.8971,0.000000
42.724,55.9819,-0.001208
42.740,56.0601,0.000000
42.755,56.1382,0.001208
42.784,56.2859,0.002417
42.799,56.3677,-0.001208
42.816,56.4504,-0.004834
42.832,56.5311,-0.004834
42.849,56.6215,-0.003625
42.864,56.6993,-0.001208
42.881,56.7810,-0.007251
42.896,56.8582,-0.004834
42.911,56.9404,-0.003625
42.928,57.0231,-0.001208
42.944,57.1029,-0.007251
42.960,57.1892,-0.007251
42.977,57.2735,-0.002417
42.993,57.3538,-0.002417
43.008,57.4319,-0.008459
43.027,57.5285,-0.007251
43.040,57.5970,-0.007251
43.056,57.6782,-0.008459
43.071,57.7559,-0.007251
43.088,57.8422,-0.007251
43.104,57.9204,-0.018127
43.120,58.0022,-0.018127
43.135,58.0829,-0.019335
43.152,58.1687,-0.019335
43.168,58.2479,-0.024169
43.184,58.3327,-0.029003
43.200,58.4144,-0.036253
43.216,58.4947,-0.044713
43.232,58.5759,-0.044713
43.248,58.6571,-0.054380
43.263,58.7410,-0.061631
43.279,58.8186,-0.072507
43.295,58.9013,-0.077341
43.324,58.9501,-0.021752
43.340,58.9501,-0.083383
43.357,58.9501,-0.073715
43.373,58.9501,-0.073715
43.391,58.9501,-0.072507
43.404,58.9501,-0.070090
43.420,58.9501,-0.066465
43.436,58.9501,-0.070090
43.453,58.9501,-0.067673
43.469,58.9501,-0.067673
43.487,58.9501,-0.065256
43.500,58.9501,-0.056797
43.518,58.9501,-0.064048
43.533,58.9501,-0.064048
43.550,58.9501,-0.059214
43.564,58.9501,-0.058005
43.580,58.9501,-0.058005
43.596,58.9501,-0.054380
43.612,58.9501,-0.050755
43.629,58.9501,-0.048338
43.644,58.9501,-0.049546
43.660,58.9501,-0.056797
43.676,58.9501,-0.054380
43.693,58.9501,-0.051963
43.709,58.9501,-0.051963
43.724,58.9501,-0.047129
43.741,58.9501,-0.047129
43.757,58.9501,-0.050755
43.772,58.9501,-0.047129
43.788,58.9501,-0.048338
43.804,58.9501,-0.043504
43.822,58.9501,-0.043504
43.836,58.9501,-0.045921
43.853,58.9501,-0.048338
43.884,58.9501,-0.045921
43.902,58.9501,-0.047129
43.915,58.9501,-0.042296
43.932,58.9501,-0.039879
43.947,58.9501,-0.044713
43.965,58.9501,-0.045921
