Elapsed Time (s),Position (mm),Force (N)
-0.026,64.1000,-0.043504
0.000,64.1000,-0.043504
0.020,64.1000,-0.041087
0.039,64.1000,-0.043504
0.055,64.1000,-0.043504
0.071,64.1000,-0.038670
0.086,64.1000,-0.033837
0.103,64.1000,-0.032628
0.119,64.1000,-0.037462
0.135,64.1000,-0.036253
0.164,64.1000,-0.039879
0.181,64.1000,-0.036253
0.197,64.1000,-0.039879
0.212,64.1000,-0.043504
0.230,64.1000,-0.042296
0.245,64.1000,-0.037462
0.262,64.1000,-0.037462
0.276,64.1000,-0.035045
0.292,64.1000,-0.035045
0.309,64.1000,-0.035045
0.324,64.1000,-0.036253
0.342,64.1000,-0.036253
0.364,64.1000,-0.037462
0.388,64.1000,-0.036253
0.404,64.1000,-0.036253
0.420,64.1000,-0.042296
0.436,64.1000,-0.035045
0.453,64.1000,-0.037462
0.469,64.1000,-0.042296
0.485,64.1000,-0.038670
0.500,64.1000,-0.033837
0.518,64.1000,-0.033837
0.532,64.1000,-0.039879
0.548,64.1000,-0.033837
0.564,64.1000,-0.041087
0.581,64.1000,-0.041087
0.598,64.1000,-0.036253
0.613,64.1000,-0.038670
0.628,64.1000,-0.035045
0.645,64.1000,-0.033837
0.660,64.1000,-0.031420
0.677,64.1000,-0.038670
0.702,64.1000,-0.035045
0.717,64.1000,-0.035045
0.733,64.1000,-0.039879
0.749,64.1000,-0.038670
0.765,64.1000,-0.026586
0.781,64.1000,-0.026586
0.797,64.1000,-0.036253
0.813,64.1000,-0.031420
0.830,64.1000,-0.031420
0.845,64.1000,-0.033837
0.862,64.1000,-0.030211
0.877,64.1000,-0.031420
0.893,64.1000,-0.038670
0.909,64.1000,-0.037462
0.925,64.1000,-0.030211
0.941,64.1000,-0.032628
0.957,64.1000,-0.032628
0.974,64.1000,-0.033837
0.990,64.1000,-0.032628
1.006,64.1000,-0.030211
1.021,64.1000,-0.030211
1.037,64.1000,-0.029003
1.053,64.1000,-0.030211
1.070,64.1000,-0.036253
1.085,64.1000,-0.035045
1.101,64.1000,-0.032628
1.117,64.1000,-0.032628
1.133,64.1000,-0.026586
1.149,64.1000,-0.031420
1.165,64.1000,-0.037462
1.184,64.1000,-0.037462
1.197,64.1000,-0.033837
1.213,64.1000,-0.026586
1.229,64.1000,-0.032628
1.251,64.1000,-0.027794
1.267,64.1000,-0.033837
1.284,64.1000,-0.032628
1.299,64.1000,-0.033837
1.315,64.1000,-0.031420
1.331,64.1000,-0.035045
1.348,64.1000,-0.031420
1.363,64.1000,-0.031420
1.379,64.1000,-0.032628
1.395,64.1000,-0.029003
1.410,64.1000,-0.035045
1.427,64.1000,-0.031420
1.443,64.1000,-0.031420
1.459,64.1000,-0.031420
1.475,64.1000,-0.025377
1.491,64.1000,-0.029003
1.507,64.1000,-0.029003
1.522,64.1000,-0.030211
1.540,64.1000,-0.030211
1.554,64.1000,-0.030211
1.571,64.1000,-0.030211
1.587,64.1000,-0.038670
1.603,64.1000,-0.031420
1.621,64.1000,-0.030211
1.634,64.1000,-0.038670
1.650,64.1000,-0.032628
1.666,64.1000,-0.030211
1.683,64.1000,-0.030211
1.699,64.1000,-0.030211
1.715,64.1000,-0.027794
1.730,64.1000,-0.035045
1.750,64.1000,-0.035045
1.764,64.1000,-0.029003
1.779,64.1000,-0.035045
1.795,64.1000,-0.033837
1.822,64.1000,-0.029003
1.837,64.1000,-0.029003
1.854,64.1000,-0.030211
1.869,64.1000,-0.030211
1.886,64.1000,-0.033837
1.902,64.1000,-0.031420
1.918,64.1000,-0.031420
1.933,64.1000,-0.032628
1.950,64.1000,-0.032628
1.965,64.1000,-0.026586
1.981,64.1000,-0.024169
1.998,64.1000,-0.024169
2.014,64.1000,-0.031420
2.030,64.1000,-0.033837
2.045,64.1000,-0.027794
2.062,64.1000,-0.030211
2.077,64.1000,-0.032628
2.094,64.1000,-0.029003
2.109,64.1000,-0.032628
2.126,64.1000,-0.026586
2.142,64.1000,-0.025377
2.157,64.1000,-0.030211
2.174,64.1000,-0.033837
2.190,64.1000,-0.026586
2.205,64.1000,-0.030211
2.222,64.1000,-0.030211
2.238,64.1000,-0.029003
2.255,64.1000,-0.032628
2.269,64.1000,-0.032628
2.286,64.1000,-0.031420
2.302,64.1000,-0.033837
2.318,64.1000,-0.032628
2.333,64.1000,-0.025377
2.349,64.1000,-0.024169
2.365,64.1000,-0.027794
2.381,64.1000,-0.030211
2.397,64.1000,-0.030211
2.415,64.1000,-0.035045
2.430,64.1000,-0.035045
2.448,64.1000,-0.032628
2.461,64.1000,-0.029003
2.477,64.1000,-0.031420
2.494,64.1000,-0.027794
2.509,64.1000,-0.030211
2.533,64.1000,-0.030211
2.555,64.1000,-0.029003
2.573,64.1000,-0.027794
2.590,64.1000,-0.030211
2.606,64.1000,-0.027794
2.621,64.1000,-0.036253
2.637,64.1000,-0.030211
2.655,64.1000,-0.029003
2.669,64.1000,-0.025377
2.685,64.1000,-0.025377
2.701,64.1000,-0.029003
2.718,64.1000,-0.031420
2.733,64.1000,-0.032628
2.749,64.1000,-0.032628
2.765,64.1000,-0.029003
2.781,64.1000,-0.026586
2.797,64.1000,-0.022961
2.816,64.1000,-0.027794
2.829,64.1000,-0.027794
2.845,64.1000,-0.033837
2.861,64.1000,-0.033837
2.877,64.1000,-0.026586
2.900,64.1000,-0.030211
2.916,64.1000,-0.026586
2.932,64.1000,-0.022961
2.948,64.1000,-0.022961
2.967,64.1000,-0.027794
2.980,64.1000,-0.029003
2.996,64.1000,-0.026586
3.012,64.1000,-0.027794
3.028,64.1000,-0.022961
3.044,64.1000,-0.025377
3.060,64.1000,-0.025377
3.076,64.1000,-0.022961
3.092,64.1000,-0.021752
3.109,64.1000,-0.021752
3.125,64.1000,-0.027794
3.140,64.1000,-0.027794
3.156,64.1000,-0.020544
3.172,64.1000,-0.025377
3.190,64.1000,-0.029003
3.204,64.1000,-0.024169
3.220,64.1000,-0.027794
3.236,64.1000,-0.029003
3.253,64.1000,-0.020544
3.269,64.1000,-0.025377
3.285,64.1000,-0.026586
3.300,64.1000,-0.031420
3.318,64.1000,-0.031420
3.332,64.1000,-0.033837
3.348,64.1000,-0.027794
3.364,64.1000,-0.026586
3.381,64.1000,-0.022961
3.396,64.1000,-0.024169
3.412,64.1000,-0.022961
3.442,64.1000,-0.027794
3.457,64.1000,-0.031420
3.474,64.1000,-0.031420
3.489,64.1000,-0.024169
3.507,64.1000,-0.026586
3.523,64.1000,-0.025377
3.537,64.1000,-0.020544
3.554,64.1000,-0.026586
3.570,64.1000,-0.026586
3.586,64.1000,-0.026586
3.602,64.1000,-0.027794
3.618,64.1000,-0.027794
3.633,64.1000,-0.025377
3.649,64.1000,-0.025377
3.665,64.1000,-0.027794
3.686,64.1000,-0.029003
3.698,64.1000,-0.022961
3.714,64.1000,-0.022961
3.729,64.1000,-0.022961
3.745,64.1000,-0.026586
3.762,64.1000,-0.024169
3.778,64.1000,-0.019335
3.794,64.1000,-0.027794
3.813,64.1000,-0.027794
3.825,64.1000,-0.025377
3.842,64.1000,-0.027794
3.857,64.1000,-0.021752
3.873,64.1000,-0.025377
3.889,64.1000,-0.025377
3.906,64.1000,-0.016918
3.921,64.1000,-0.026586
3.938,64.1000,-0.024169
3.954,64.1000,-0.022961
3.971,64.1000,-0.024169
3.995,64.1000,-0.027794
4.011,64.1000,-0.027794
4.027,64.1000,-0.025377
4.043,64.1000,-0.025377
4.060,64.1000,-0.025377
4.075,64.1000,-0.032628
4.091,64.1000,-0.026586
4.108,64.1000,-0.026586
4.123,64.1000,-0.025377
4.139,64.1000,-0.020544
4.155,64.1000,-0.025377
4.173,64.1000,-0.025377
4.187,64.1000,-0.025377
4.204,64.1000,-0.029003
4.219,64.1000,-0.020544
4.236,64.1000,-0.027794
4.251,64.1000,-0.032628
4.268,64.1000,-0.025377
4.283,64.1000,-0.030211
4.300,64.1000,-0.029003
4.315,64.1000,-0.022961
4.331,64.1000,-0.022961
4.348,64.1000,-0.024169
4.363,64.1000,-0.019335
4.379,64.1000,-0.026586
4.395,64.1000,-0.026586
4.414,64.1000,-0.030211
4.427,64.1000,-0.029003
4.443,64.1000,-0.020544
4.459,64.1000,-0.024169
4.476,64.1000,-0.025377
4.491,64.1000,-0.019335
4.506,64.1000,-0.029003
4.536,64.1000,-0.029003
4.552,64.1000,-0.030211
4.568,64.1000,-0.025377
4.583,64.1000,-0.022961
4.599,64.1000,-0.027794
4.616,64.1000,-0.024169
4.632,64.1000,-0.022961
4.649,64.1000,-0.022961
4.663,64.1000,-0.026586
4.680,64.1000,-0.026586
4.695,64.1000,-0.019335
4.711,64.1000,-0.019335
4.727,64.1000,-0.024169
4.743,64.1000,-0.025377
4.759,64.1000,-0.025377
4.775,64.1000,-0.029003
4.793,64.1000,-0.029003
4.807,64.1000,-0.022961
4.824,64.1000,-0.024169
4.839,64.1000,-0.022961
4.857,64.1000,-0.027794
4.871,64.1000,-0.027794
4.889,64.1000,-0.024169
4.903,64.1000,-0.025377
4.919,64.1000,-0.025377
4.935,64.1000,-0.022961
4.952,64.1000,-0.022961
4.968,64.1000,-0.024169
4.983,64.1000,-0.025377
5.000,64.1000,-0.025377
5.015,64.1000,-0.021752
5.031,64.1000,-0.022961
5.048,64.1000,-0.022961
5.063,64.1000,-0.021752
5.079,64.1000,-0.026586
5.096,64.1000,-0.025377
5.111,64.1000,-0.026586
5.127,64.1000,-0.030211
5.143,64.1000,-0.024169
5.159,64.1000,-0.025377
5.175,64.1000,-0.019335
5.191,64.1000,-0.020544
5.206,64.1000,-0.026586
5.233,64.1000,-0.024169
5.253,64.1000,-0.024169
5.271,64.1000,-0.026586
5.288,64.1000,-0.024169
5.303,64.1000,-0.022961
5.319,64.1000,-0.027794
5.335,64.1000,-0.026586
5.352,64.1000,-0.032628
5.367,64.1000,-0.030211
5.384,64.1000,-0.024169
5.399,64.1000,-0.025377
5.415,64.1000,-0.021752
5.431,64.1000,-0.021752
5.447,64.1000,-0.027794
5.463,64.1000,-0.027794
5.481,64.1000,-0.027794
5.495,64.1000,-0.022961
5.511,64.1000,-0.022961
5.527,64.1000,-0.025377
5.543,64.1000,-0.022961
5.559,64.1000,-0.022961
5.575,64.1000,-0.025377
5.591,64.1000,-0.022961
5.607,64.1000,-0.026586
5.623,64.1000,-0.024169
5.647,64.1000,-0.018127
5.663,64.1000,-0.020544
5.679,64.1000,-0.020544
5.695,64.1000,-0.022961
5.711,64.1000,-0.025377
5.728,64.1000,-0.027794
5.743,64.1000,-0.025377
5.759,64.1000,-0.024169
5.776,64.1000,-0.029003
5.791,64.1000,-0.026586
5.807,64.1000,-0.024169
5.825,64.1000,-0.029003
5.838,64.1000,-0.029003
5.854,64.1000,-0.024169
5.870,64.1000,-0.024169
5.887,64.1000,-0.020544
5.903,64.1000,-0.024169
5.918,64.1000,-0.027794
5.935,64.1000,-0.027794
5.951,64.1000,-0.025377
5.967,64.1000,-0.024169
5.982,64.1000,-0.020544
5.998,64.1000,-0.020544
6.014,64.1000,-0.020544
6.031,64.1000,-0.020544
6.047,64.1000,-0.024169
6.063,64.1000,-0.022961
6.078,64.1000,-0.024169
6.094,64.1000,-0.019335
6.115,64.1000,-0.019335
6.127,64.1000,-0.015710
6.142,64.1000,-0.021752
6.158,64.1000,-0.020544
6.182,64.1000,-0.021752
6.201,64.1000,-0.021752
6.218,64.1000,-0.025377
6.229,64.1000,-0.025377
6.245,64.1000,-0.020544
6.261,64.1000,-0.022961
6.277,64.1000,-0.021752
6.293,64.1000,-0.021752
6.311,64.1000,-0.021752
6.325,64.1000,-0.024169
6.342,64.1000,-0.022961
6.357,64.1000,-0.020544
6.374,64.1000,-0.021752
6.390,64.1000,-0.031420
6.405,64.1000,-0.025377
6.421,64.1000,-0.022961
6.439,64.1000,-0.022961
6.454,64.1000,-0.014501
6.472,64.1000,-0.021752
6.485,64.1000,-0.021752
6.502,64.1000,-0.025377
6.517,64.1000,-0.022961
6.533,64.1000,-0.025377
6.549,64.1000,-0.022961
6.566,64.1000,-0.021752
6.581,64.1000,-0.025377
6.597,64.1000,-0.024169
6.614,64.1000,-0.020544
6.629,64.1000,-0.021752
6.647,64.1000,-0.025377
6.661,64.1000,-0.024169
6.685,64.1000,-0.025377
6.709,64.1000,-0.020544
6.724,64.1000,-0.019335
6.740,64.1000,-0.027794
6.756,64.1000,-0.022961
6.772,64.1000,-0.021752
6.789,64.1000,-0.031420
6.804,64.1000,-0.029003
6.820,64.1000,-0.022961
6.836,64.1000,-0.025377
6.852,64.1000,-0.024169
6.868,64.1000,-0.024169
6.885,64.1000,-0.022961
6.902,64.1000,-0.022961
6.916,64.1000,-0.024169
6.932,64.1000,-0.021752
6.949,64.1000,-0.019335
6.964,64.1000,-0.027794
6.982,64.1000,-0.027794
6.996,64.1000,-0.021752
7.013,64.1000,-0.021752
7.028,64.1000,-0.021752
7.046,64.1000,-0.024169
7.060,64.1000,-0.024169
7.076,64.1000,-0.024169
7.092,64.1000,-0.024169
7.108,64.1000,-0.022961
7.125,64.1000,-0.024169
7.144,64.1000,-0.024169
7.156,64.1000,-0.016918
7.172,64.1000,-0.020544
7.189,64.1000,-0.022961
7.204,64.1000,-0.022961
7.221,64.1000,-0.025377
7.236,64.1000,-0.029003
7.259,64.1000,-0.029003
7.274,64.1000,-0.022961
7.290,64.1000,-0.019335
7.306,64.1000,-0.021752
7.323,64.1000,-0.020544
7.338,64.1000,-0.020544
7.355,64.1000,-0.026586
7.370,64.1000,-0.026586
7.386,64.1000,-0.025377
7.402,64.1000,-0.024169
7.417,64.1000,-0.021752
7.435,64.1000,-0.024169
7.450,64.1000,-0.027794
7.465,64.1000,-0.030211
7.482,64.1000,-0.025377
7.501,64.1000,-0.015710
7.514,64.1000,-0.019335
7.530,64.1000,-0.020544
7.546,64.1000,-0.025377
7.563,64.1000,-0.022961
7.581,64.1000,-0.024169
7.594,64.1000,-0.024169
7.610,64.1000,-0.022961
7.626,64.1000,-0.024169
7.642,64.1000,-0.024169
7.658,64.1000,-0.021752
7.674,64.1000,-0.021752
7.691,64.1000,-0.021752
7.706,64.1000,-0.024169
7.722,64.1000,-0.021752
7.738,64.1000,-0.021752
7.755,64.1000,-0.019335
7.770,64.1000,-0.019335
7.786,64.1000,-0.022961
7.810,64.1000,-0.026586
7.825,64.1000,-0.022961
7.842,64.1000,-0.024169
7.858,64.1000,-0.021752
7.875,64.1000,-0.025377
7.890,64.1000,-0.016918
7.906,64.1000,-0.016918
7.921,64.1000,-0.026586
7.937,64.1000,-0.021752
7.954,64.1000,-0.020544
7.972,64.1000,-0.020544
7.986,64.1000,-0.019335
8.002,64.1000,-0.016918
8.018,64.1000,-0.021752
8.034,64.1000,-0.022961
8.050,64.1000,-0.021752
8.066,64.1000,-0.021752
8.081,64.1000,-0.020544
8.097,64.1000,-0.021752
8.114,64.1000,-0.019335
8.129,64.1000,-0.019335
8.145,64.1000,-0.016918
8.161,64.1000,-0.027794
8.180,64.1000,-0.027794
8.194,64.1000,-0.018127
8.209,64.1000,-0.021752
8.225,64.1000,-0.018127
8.242,64.1000,-0.018127
8.258,64.1000,-0.020544
8.273,64.1000,-0.020544
8.290,64.1000,-0.026586
8.309,64.1000,-0.026586
8.321,64.1000,-0.020544
8.338,64.1000,-0.019335
8.353,64.1000,-0.018127
8.377,64.1000,-0.018127
8.392,64.1000,-0.027794
8.407,64.1000,-0.020544
8.423,64.1000,-0.022961
8.440,64.1000,-0.021752
8.456,64.1000,-0.021752
8.471,64.1000,-0.020544
8.487,64.1000,-0.022961
8.504,64.1000,-0.024169
8.520,64.1000,-0.024169
8.536,64.1000,-0.025377
8.552,64.1000,-0.025377
8.568,64.1000,-0.020544
8.583,64.1000,-0.016918
8.601,64.1000,-0.016918
8.615,64.1000,-0.022961
8.631,64.1000,-0.025377
8.647,64.1000,-0.018127
8.663,64.1000,-0.024169
8.684,64.1000,-0.024169
8.696,64.1000,-0.022961
8.711,64.1000,-0.016918
8.727,64.1000,-0.015710
8.744,64.1000,-0.018127
8.759,64.1000,-0.025377
8.775,64.1000,-0.026586
8.792,64.1000,-0.029003
8.808,64.1000,-0.022961
8.823,64.1000,-0.018127
8.839,64.1000,-0.020544
8.856,64.1000,-0.019335
8.872,64.1000,-0.025377
8.887,64.1000,-0.024169
8.903,64.1000,-0.015710
8.919,64.1000,-0.020544
8.936,64.1000,-0.018127
8.951,64.1000,-0.018127
8.967,64.1000,-0.020544
8.984,64.1000,-0.025377
9.000,64.1000,-0.021752
9.017,64.1000,-0.020544
9.031,64.1000,-0.019335
9.048,64.1000,-0.020544
9.063,64.1000,-0.021752
9.079,64.1000,-0.021752
9.095,64.1000,-0.021752
9.111,64.1000,-0.024169
9.128,64.1000,-0.018127
9.143,64.1000,-0.026586
9.164,64.1000,-0.031420
9.176,64.1000,-0.025377
9.191,64.1000,-0.026586
9.208,64.1000,-0.020544
9.224,64.1000,-0.016918
9.240,64.1000,-0.035045
9.256,64.1000,-0.027794
9.272,64.1000,-0.019335
9.287,64.1000,-0.020544
9.303,64.1000,-0.015710
9.319,64.1000,-0.024169
9.335,64.1000,-0.024169
9.351,64.1000,-0.020544
9.367,64.1000,-0.022961
9.383,64.1000,-0.015710
9.399,64.1000,-0.015710
9.415,64.1000,-0.018127
9.431,64.1000,-0.022961
9.456,64.1000,-0.020544
9.471,64.1000,-0.024169
9.487,64.1000,-0.026586
9.503,64.1000,-0.018127
9.519,64.1000,-0.019335
9.535,64.1000,-0.025377
9.552,64.1000,-0.025377
9.567,64.1000,-0.021752
9.583,64.1000,-0.018127
9.599,64.1000,-0.026586
9.615,64.1000,-0.025377
9.631,64.1000,-0.025377
9.647,64.1000,-0.020544
9.663,64.1000,-0.024169
9.679,64.1000,-0.021752
9.695,64.1000,-0.020544
9.711,64.1000,-0.022961
9.727,64.1000,-0.019335
9.744,64.1000,-0.021752
9.759,64.1000,-0.019335
9.776,64.1000,-0.024169
9.791,64.1000,-0.025377
9.807,64.1000,-0.021752
9.824,64.1000,-0.026586
9.839,64.1000,-0.021752
9.855,64.1000,-0.018127
9.873,64.1000,-0.018127
9.888,64.1000,-0.019335
9.903,64.1000,-0.024169
9.919,64.1000,-0.021752
9.936,64.1000,-0.025377
9.951,64.1000,-0.022961
9.967,64.1000,-0.019335
9.997,64.1000,-0.020544
10.013,64.1000,-0.020544
10.029,64.1000,-0.021752
10.045,64.1000,-0.018127
10.061,64.1000,-0.018127
10.077,64.1000,-0.020544
10.093,64.1000,-0.016918
10.109,64.1000,-0.015710
10.126,64.1000,-0.018127
10.140,64.1000,-0.020544
10.157,64.1000,-0.020544
10.173,64.1000,-0.019335
10.190,64.1000,-0.014501
10.205,64.1000,-0.022961
10.223,64.1000,-0.019335
10.236,64.1000,-0.019335
10.252,64.1000,-0.020544
10.268,64.1000,-0.026586
10.286,64.1000,-0.022961
10.301,64.1000,-0.021752
10.317,64.1000,-0.020544
10.333,64.1000,-0.021752
10.349,64.1000,-0.020544
10.365,64.1000,-0.021752
10.381,64.1000,-0.022961
10.398,64.1000,-0.020544
10.413,64.1000,-0.018127
10.429,64.1000,-0.018127
10.444,64.1000,-0.022961
10.461,64.1000,-0.016918
10.477,64.1000,-0.019335
10.494,64.1000,-0.019335
10.523,64.1000,-0.025377
10.537,64.1000,-0.021752
10.553,64.1000,-0.020544
10.569,64.1000,-0.022961
10.586,64.1000,-0.019335
10.602,64.1000,-0.019335
10.618,64.1000,-0.025377
10.633,64.1000,-0.026586
10.650,64.1000,-0.026586
10.666,64.1000,-0.016918
10.682,64.1000,-0.014501
10.697,64.1000,-0.018127
10.714,64.1000,-0.018127
10.729,64.1000,-0.014501
10.745,64.1000,-0.024169
10.764,64.1000,-0.020544
10.777,64.1000,-0.021752
10.793,64.1000,-0.019335
10.809,64.1000,-0.020544
10.827,64.1000,-0.013293
10.841,64.1000,-0.021752
10.859,64.1000,-0.025377
10.874,64.1000,-0.015710
10.889,64.1000,-0.015710
10.906,64.1000,-0.015710
10.922,64.1000,-0.016918
10.938,64.1000,-0.015710
10.954,64.1000,-0.022961
10.969,64.1000,-0.024169
10.985,64.1000,-0.027794
11.001,64.1000,-0.020544
11.017,64.1000,-0.019335
11.034,64.1000,-0.027794
11.063,64.1000,-0.020544
11.078,64.1000,-0.027794
11.094,64.1000,-0.024169
11.112,64.1000,-0.019335
11.127,64.1000,-0.018127
11.143,64.1000,-0.021752
11.159,64.1000,-0.021752
11.175,64.0915,-0.015710
11.190,64.0672,-0.003625
11.206,64.0411,-0.012084
11.222,64.0173,-0.006042
11.238,63.9913,-0.003625
11.254,63.9671,0.001208
11.270,63.9415,0.002417
11.287,63.9151,0.010876
11.302,63.8910,0.009668
11.318,63.8659,0.019335
11.338,63.8349,0.020544
11.350,63.8165,0.024169
11.366,63.7913,0.025377
11.382,63.7668,0.039879
11.399,63.7394,0.035045
11.415,63.7144,0.031420
11.430,63.6910,0.038670
11.446,63.6661,0.042296
11.463,63.6395,0.049546
11.478,63.6162,0.053172
11.494,63.5905,0.050755
11.510,63.5651,0.055589
11.526,63.5391,0.059214
11.542,63.5155,0.060422
11.558,63.4906,0.073715
11.587,63.4439,0.079758
11.603,63.4203,0.073715
11.619,63.3950,0.073715
11.635,63.3703,0.084591
11.652,63.3422,0.084591
11.668,63.3182,0.084591
11.683,63.2949,0.100301
11.699,63.2677,0.100301
11.716,63.2419,0.102718
11.732,63.2176,0.106343
11.747,63.1947,0.109969
11.763,63.1691,0.114803
11.779,63.1437,0.114803
11.794,63.1184,0.126887
11.816,63.0848,0.128095
11.829,63.0665,0.138971
11.844,63.0424,0.134138
11.859,63.0189,0.143805
11.876,62.9914,0.149848
11.891,62.9691,0.153473
11.907,62.9439,0.157098
11.923,62.9187,0.158307
11.939,62.8938,0.160724
11.955,62.8688,0.165557
11.970,62.8433,0.172808
11.987,62.8186,0.178850
12.004,62.7913,0.181267
12.019,62.7683,0.182476
12.035,62.7416,0.184892
12.051,62.7183,0.196977
12.068,62.6904,0.196977
12.083,62.6661,0.205436
12.098,62.6431,0.216312
12.125,62.6011,0.217521
12.140,62.5771,0.217521
12.157,62.5512,0.227188
12.172,62.5272,0.234439
12.193,62.4937,0.239273
12.204,62.4768,0.235647
12.221,62.4511,0.241690
12.236,62.4268,0.247732
12.252,62.4016,0.252566
12.268,62.3765,0.263442
12.284,62.3517,0.268275
12.301,62.3248,0.268275
12.317,62.3001,0.273109
12.334,62.2738,0.288819
12.348,62.2513,0.292444
12.365,62.2253,0.298487
12.380,62.2012,0.297278
12.396,62.1751,0.304529
12.412,62.1510,0.303320
12.429,62.1254,0.310571
12.445,62.1004,0.311779
12.460,62.0760,0.311779
12.477,62.0498,0.326281
12.492,62.0255,0.337157
12.508,62.0006,0.339574
12.524,61.9758,0.350450
12.543,61.9450,0.350450
12.557,61.9249,0.348033
12.572,61.9000,0.348033
12.588,61.8753,0.341991
12.604,61.8491,0.333532
12.620,61.8248,0.298487
12.636,61.7988,0.256191
12.666,61.7530,0.217521
12.683,61.7275,0.158307
12.698,61.7025,0.158307
12.714,61.6777,0.055589
12.731,61.6521,0.055589
12.747,61.6260,0.010876
12.762,61.6013,0.001208
12.779,61.5768,-0.001208
12.795,61.5510,0.001208
12.811,61.5252,0.001208
12.826,61.5025,-0.003625
12.842,61.4769,-0.002417
12.858,61.4518,-0.002417
12.874,61.4272,-0.001208
12.891,61.4005,-0.001208
12.906,61.3770,-0.004834
12.923,61.3509,-0.001208
12.938,61.3269,-0.001208
12.955,61.3002,0.001208
12.972,61.2740,0.003625
12.988,61.2486,0.000000
13.002,61.2265,0.001208
13.019,61.2007,0.003625
13.037,61.1725,-0.002417
13.051,61.1507,0.000000
13.066,61.1262,0.001208
13.083,61.0994,0.006042
13.099,61.0748,0.001208
13.114,61.0505,-0.002417
13.130,61.0249,0.002417
13.147,60.9982,0.012084
13.162,60.9755,0.002417
13.178,60.9507,0.001208
13.194,60.9247,0.008459
13.219,60.8863,-0.001208
13.235,60.8603,0.001208
13.251,60.8362,-0.001208
13.267,60.8112,0.001208
13.287,60.7790,0.002417
13.299,60.7608,0.000000
13.315,60.7353,0.002417
13.331,60.7110,-0.001208
13.347,60.6854,-0.001208
13.363,60.6597,0.002417
13.379,60.6358,0.002417
13.395,60.6085,0.002417
13.411,60.5851,0.003625
13.429,60.5570,0.004834
13.443,60.5351,0.000000
13.459,60.5100,-0.004834
13.475,60.4851,-0.001208
13.491,60.4602,0.000000
13.509,60.4324,0.008459
13.522,60.4096,0.003625
13.539,60.3843,0.004834
13.555,60.3597,0.003625
13.571,60.3344,0.003625
13.588,60.3083,-0.001208
13.603,60.2847,0.007251
13.620,60.2572,0.007251
13.635,60.2329,0.002417
13.651,60.2090,0.001208
13.667,60.1844,0.002417
13.684,60.1569,0.000000
13.700,60.1324,0.000000
13.715,60.1077,0.003625
13.740,60.0698,-0.001208
13.757,60.0435,-0.003625
13.773,60.0182,0.001208
13.788,59.9947,0.004834
13.806,59.9635,-0.001208
13.820,59.9445,0.004834
13.836,59.9191,0.002417
13.852,59.8944,0.006042
13.869,59.8671,0.002417
13.884,59.8435,-0.003625
13.900,59.8185,-0.006042
13.916,59.7941,-0.001208
13.933,59.7674,0.004834
13.948,59.7438,0.004834
13.964,59.7189,0.009668
13.980,59.6917,0.009668
13.998,59.6641,-0.002417
14.013,59.6411,-0.003625
14.028,59.6186,-0.003625
14.044,59.5921,0.007251
14.060,59.5678,-0.001208
14.076,59.5420,-0.001208
14.092,59.5181,0.002417
14.110,59.4892,0.001208
14.124,59.4679,0.006042
14.140,59.4426,0.006042
14.156,59.4178,0.002417
14.172,59.3917,0.006042
14.189,59.3652,0.003625
14.204,59.3420,0.000000
14.220,59.3176,0.001208
14.237,59.2903,0.002417
14.252,59.2672,0.001208
14.270,59.2382,0.003625
14.294,59.2017,-0.004834
14.310,59.1752,0.000000
14.326,59.1511,-0.004834
14.342,59.1266,-0.003625
14.358,59.1008,0.001208
14.374,59.0763,0.000000
14.389,59.0514,-0.002417
14.406,59.0247,-0.001208
14.423,58.9989,0.001208
14.438,58.9754,0.001208
14.454,58.9501,-0.001208
14.470,58.9239,-0.001208
14.486,58.9003,0.004834
14.501,58.8753,0.006042
14.517,58.8509,0.001208
14.535,58.8226,0.002417
14.550,58.7994,0.001208
14.565,58.7756,-0.003625
14.583,58.7478,0.000000
14.598,58.7246,-0.001208
14.613,58.7000,-0.004834
14.629,58.6752,0.001208
14.646,58.6497,0.000000
14.662,58.6243,-0.002417
14.677,58.6002,0.004834
14.697,58.5678,0.000000
14.710,58.5477,0.000000
14.726,58.5233,0.008459
14.742,58.4988,0.007251
14.757,58.4744,0.003625
14.774,58.4477,-0.002417
14.789,58.4247,0.001208
14.817,58.3808,0.003625
14.833,58.3554,-0.001208
14.849,58.3302,-0.001208
14.865,58.3052,-0.003625
14.882,58.2789,0.003625
14.898,58.2548,0.000000
14.913,58.2297,0.003625
14.929,58.2049,0.008459
14.950,58.1728,-0.002417
14.962,58.1529,-0.002417
14.978,58.1297,-0.001208
14.995,58.1008,-0.001208
15.010,58.0773,-0.001208
15.025,58.0546,0.002417
15.041,58.0500,-0.009668
15.058,58.0500,-0.009668
15.074,58.0500,-0.001208
15.089,58.0500,0.002417
15.105,58.0500,0.004834
15.121,58.0500,0.004834
15.137,58.0500,0.000000
15.153,58.0500,-0.001208
15.169,58.0500,-0.002417
15.186,58.0500,0.000000
15.201,58.0500,0.001208
15.219,58.0500,0.001208
15.233,58.0500,0.004834
15.249,58.0500,0.003625
15.265,58.0500,0.002417
15.281,58.0500,0.001208
15.305,58.0500,0.004834
15.327,58.0500,0.002417
15.345,58.0500,0.001208
15.369,58.0500,0.001208
15.384,58.0500,0.000000
15.400,58.0500,0.000000
15.416,58.0500,-0.002417
15.433,58.0500,-0.002417
15.448,58.0500,-0.002417
15.464,58.0500,0.001208
15.484,58.0500,0.000000
15.498,58.0500,0.002417
15.513,58.0500,-0.002417
15.528,58.0500,-0.003625
15.545,58.0500,-0.001208
15.561,58.0500,0.001208
15.576,58.0500,0.000000
15.592,58.0550,0.003625
15.608,58.0812,-0.022961
15.625,58.1067,0.001208
15.641,58.1320,0.001208
15.656,58.1553,-0.001208
15.673,58.1819,-0.006042
15.688,58.2062,-0.006042
15.704,58.2305,0.007251
15.720,58.2570,0.007251
15.737,58.2831,-0.001208
15.753,58.3089,-0.006042
15.768,58.3322,-0.006042
15.784,58.3559,0.000000
15.800,58.3817,0.003625
15.816,58.4065,0.004834
15.832,58.4312,0.003625
15.848,58.4570,0.003625
15.864,58.4816,-0.002417
15.880,58.5076,0.002417
15.911,58.5562,0.002417
15.927,58.5805,0.001208
15.943,58.6057,0.003625
15.959,58.6302,0.002417
15.975,58.6563,0.003625
15.991,58.6811,0.001208
16.007,58.7061,-0.003625
16.023,58.7313,0.007251
16.040,58.7578,0.007251
16.055,58.7809,0.003625
16.071,58.8060,0.001208
16.087,58.8310,0.003625
16.106,58.8615,0.000000
16.119,58.8821,-0.009668
16.135,58.9060,0.000000
16.151,58.9310,0.000000
16.167,58.9568,-0.001208
16.183,58.9811,0.000000
16.199,59.0061,0.004834
16.215,59.0322,-0.001208
16.231,59.0571,-0.001208
16.247,59.0815,-0.008459
16.263,59.1076,-0.001208
16.279,59.1335,0.002417
16.295,59.1582,-0.004834
16.311,59.1818,-0.004834
16.327,59.2089,-0.004834
16.343,59.2322,-0.001208
16.358,59.2582,-0.003625
16.375,59.2822,-0.006042
16.396,59.3159,-0.006042
16.407,59.3326,0.000000
16.423,59.3576,-0.004834
16.438,59.3843,-0.001208
16.460,59.4164,-0.004834
16.476,59.4401,0.001208
16.491,59.4653,0.002417
16.507,59.4906,0.002417
16.524,59.5167,-0.001208
16.540,59.5414,-0.001208
16.556,59.5662,-0.003625
16.572,59.5920,0.003625
16.588,59.6184,0.003625
16.604,59.6423,-0.001208
16.620,59.6679,-0.001208
16.636,59.6915,-0.004834
16.651,59.7172,-0.002417
16.668,59.7420,-0.001208
16.683,59.7663,0.001208
16.701,59.7936,0.001208
16.715,59.8168,-0.001208
16.731,59.8419,0.003625
16.747,59.8666,-0.002417
16.764,59.8922,-0.002417
16.779,59.9168,-0.003625
16.796,59.9421,0.002417
16.813,59.9699,0.001208
16.828,59.9926,0.001208
16.843,60.0169,-0.003625
16.860,60.0432,-0.003625
16.877,60.0709,-0.003625
16.891,60.0922,-0.003625
16.907,60.1171,0.002417
16.923,60.1423,-0.003625
16.941,60.1697,-0.003625
16.955,60.1930,0.003625
16.971,60.2176,-0.003625
16.994,60.2538,0.002417
17.011,60.2792,-0.001208
17.026,60.3038,0.000000
17.042,60.3291,0.001208
17.059,60.3559,0.001208
17.075,60.3811,0.002417
17.091,60.4064,0.002417
17.106,60.4291,-0.003625
17.123,60.4568,-0.004834
17.139,60.4805,0.002417
17.155,60.5050,0.000000
17.171,60.5311,0.001208
17.187,60.5564,-0.006042
17.202,60.5797,-0.002417
17.220,60.6067,-0.002417
17.234,60.6300,0.000000
17.250,60.6549,0.000000
17.267,60.6808,0.007251
17.282,60.7050,-0.004834
17.305,60.7416,-0.004834
17.316,60.7585,0.002417
17.331,60.7815,0.001208
17.346,60.8053,-0.003625
17.371,60.8445,-0.001208
17.393,60.8803,0.002417
17.410,60.9062,0.002417
17.426,60.9314,0.002417
17.442,60.9562,-0.002417
17.458,60.9815,-0.001208
17.474,61.0059,-0.001208
17.491,61.0321,0.003625
17.507,61.0575,-0.002417
17.523,61.0829,0.001208
17.549,61.1233,-0.001208
17.565,61.1490,-0.002417
17.581,61.1741,-0.002417
17.597,61.1985,0.000000
17.613,61.2252,-0.004834
17.629,61.2491,-0.001208
17.645,61.2743,-0.002417
17.661,61.2991,0.008459
17.677,61.3252,-0.001208
17.693,61.3503,0.004834
17.709,61.3740,0.001208
17.725,61.4012,-0.007251
17.741,61.4250,-0.006042
17.758,61.4516,-0.001208
17.773,61.4744,-0.003625
17.789,61.4993,-0.003625
17.805,61.5259,-0.004834
17.821,61.5497,-0.001208
17.837,61.5765,-0.001208
17.855,61.6031,-0.001208
17.869,61.6255,-0.003625
17.885,61.6498,0.002417
17.901,61.6750,0.002417
17.917,61.7000,0.002417
17.933,61.7250,-0.006042
17.949,61.7511,-0.006042
17.965,61.7764,0.000000
17.981,61.8008,-0.004834
17.997,61.8258,0.000000
18.013,61.8511,-0.004834
18.029,61.8769,0.000000
18.045,61.9013,-0.001208
18.061,61.9265,-0.002417
18.077,61.9512,-0.006042
18.093,61.9760,-0.001208
18.109,62.0008,0.001208
18.125,62.0259,-0.006042
18.141,62.0518,-0.001208
18.157,62.0762,-0.004834
18.173,62.1011,-0.002417
18.190,62.1285,-0.002417
18.205,62.1517,0.000000
18.221,62.1764,-0.006042
18.237,62.2021,0.002417
18.253,62.2275,0.002417
18.269,62.2529,-0.002417
18.285,62.2765,-0.004834
18.301,62.3021,-0.004834
18.317,62.3272,-0.004834
18.333,62.3523,-0.008459
18.349,62.3771,-0.001208
18.365,62.4020,-0.003625
18.381,62.4282,-0.002417
18.397,62.4531,-0.006042
18.413,62.4772,-0.004834
18.429,62.5031,-0.004834
18.445,62.5286,-0.006042
18.461,62.5536,-0.003625
18.477,62.5775,-0.002417
18.493,62.6034,-0.003625
18.510,62.6294,-0.008459
18.525,62.6539,-0.008459
18.541,62.6780,-0.008459
18.558,62.7050,-0.008459
18.573,62.7288,-0.003625
18.590,62.7567,-0.006042
18.615,62.7939,-0.003625
18.631,62.8195,-0.009668
18.646,62.8443,0.000000
18.663,62.8690,-0.012084
18.679,62.8956,-0.012084
18.694,62.9193,-0.007251
18.712,62.9465,-0.007251
18.727,62.9693,-0.003625
18.743,62.9958,-0.006042
18.759,63.0203,-0.013293
18.775,63.0447,-0.002417
18.791,63.0705,-0.002417
18.807,63.0956,-0.007251
18.823,63.1216,-0.012084
18.840,63.1483,-0.012084
18.854,63.1702,-0.006042
18.871,63.1964,-0.006042
18.887,63.2208,-0.010876
18.903,63.2453,-0.014501
18.919,63.2708,-0.014501
18.934,63.2960,-0.015710
18.950,63.3215,-0.014501
18.967,63.3475,-0.012084
18.983,63.3720,-0.014501
18.999,63.3969,-0.013293
19.014,63.4207,-0.014501
19.034,63.4511,-0.021752
19.046,63.4712,-0.024169
19.063,63.4967,-0.021752
19.079,63.5216,-0.026586
19.095,63.5474,-0.020544
19.110,63.5716,-0.020544
19.127,63.5977,-0.021752
19.154,63.6400,-0.024169
19.171,63.6658,-0.030211
19.186,63.6905,-0.029003
19.202,63.7153,-0.027794
19.219,63.7426,-0.027794
19.235,63.7675,-0.037462
19.251,63.7924,-0.037462
19.266,63.8154,-0.038670
19.284,63.8449,-0.041087
19.299,63.8666,-0.047129
19.314,63.8908,-0.047129
19.330,63.9165,-0.049546
19.348,63.9436,-0.060422
19.363,63.9677,-0.056797
19.379,63.9929,-0.065256
19.394,64.0162,-0.059214
19.410,64.0414,-0.056797
19.426,64.0500,-0.045921
19.442,64.0500,-0.055589
19.459,64.0500,-0.068882
19.475,64.0500,-0.068882
19.491,64.0500,-0.066465
19.506,64.0500,-0.061631
19.528,64.0500,-0.060422
19.538,64.0500,-0.053172
19.554,64.0500,-0.053172
19.570,64.0500,-0.050755
19.587,64.0500,-0.050755
19.602,64.0500,-0.056797
19.620,64.0500,-0.053172
19.634,64.0500,-0.051963
19.654,64.0500,-0.051963
19.666,64.0500,-0.051963
19.683,64.0500,-0.050755
19.714,64.0500,-0.051963
19.729,64.0500,-0.051963
19.745,64.0500,-0.045921
19.761,64.0500,-0.045921
19.777,64.0500,-0.054380
19.794,64.0500,-0.048338
19.811,64.0500,-0.048338
19.825,64.0500,-0.044713
19.849,64.0500,-0.044713
19.872,64.0500,-0.047129
19.889,64.0500,-0.043504
19.905,64.0500,-0.041087
19.921,64.0500,-0.044713
19.937,64.0500,-0.041087
19.953,64.0500,-0.044713
19.972,64.0500,-0.047129
19.985,64.0500,-0.043504
20.001,64.0500,-0.047129
20.017,64.0500,-0.049546
20.034,64.0500,-0.044713
20.049,64.0500,-0.042296
20.067,64.0500,-0.042296
20.081,64.0500,-0.044713
20.097,64.0500,-0.042296
20.113,64.0500,-0.047129
20.129,64.0500,-0.047129
20.145,64.0500,-0.039879
20.165,64.0500,-0.039879
20.179,64.0500,-0.039879
20.193,64.0500,-0.038670
20.209,64.0500,-0.042296
20.225,64.0500,-0.042296
20.241,64.0500,-0.039879
20.273,64.0500,-0.043504
20.288,64.0500,-0.043504
20.304,64.0500,-0.037462
20.320,64.0500,-0.037462
20.337,64.0500,-0.037462
20.352,64.0500,-0.036253
20.368,64.0500,-0.048338
20.384,64.0500,-0.039879
20.405,64.0500,-0.043504
20.417,64.0500,-0.033837
20.432,64.0500,-0.033837
20.448,64.0500,-0.038670
20.465,64.0500,-0.035045
20.480,64.0500,-0.035045
20.497,64.0500,-0.045921
20.512,64.0500,-0.038670
20.530,64.0500,-0.038670
20.543,64.0500,-0.041087
20.560,64.0500,-0.038670
20.576,64.0500,-0.038670
20.592,64.0500,-0.041087
20.609,64.0500,-0.043504
20.624,64.0500,-0.041087
20.640,64.0500,-0.033837
20.656,64.0500,-0.032628
20.672,64.0500,-0.032628
20.688,64.0500,-0.032628
20.704,64.0500,-0.038670
20.720,64.0500,-0.037462
20.735,64.0500,-0.036253
20.751,64.0500,-0.036253
20.770,64.0500,-0.035045
20.784,64.0500,-0.032628
20.800,64.0500,-0.039879
20.816,64.0500,-0.037462
20.832,64.0500,-0.037462
20.848,64.0500,-0.036253
20.864,64.0500,-0.038670
20.879,64.0500,-0.036253
20.901,64.0500,-0.036253
20.912,64.0500,-0.037462
20.928,64.0500,-0.032628
20.944,64.0500,-0.033837
20.960,64.0500,-0.036253
20.975,64.0500,-0.035045
20.992,64.0500,-0.036253
21.008,64.0500,-0.037462
21.027,64.0500,-0.031420
21.039,64.0500,-0.025377
21.056,64.0500,-0.035045
21.071,64.0500,-0.037462
21.088,64.0500,-0.037462
21.104,64.0500,-0.036253
21.120,64.0500,-0.038670
21.135,64.0500,-0.038670
21.151,64.0500,-0.035045
21.167,64.0500,-0.035045
21.184,64.0500,-0.047129
21.200,64.0500,-0.036253
21.216,64.0500,-0.038670
21.231,64.0500,-0.043504
21.247,64.0500,-0.031420
21.264,64.0500,-0.033837
21.280,64.0500,-0.031420
21.296,64.0500,-0.027794
21.312,64.0500,-0.026586
21.328,64.0500,-0.039879
21.344,64.0500,-0.042296
21.361,64.0500,-0.033837
21.386,64.0500,-0.033837
21.402,64.0500,-0.035045
21.417,64.0500,-0.035045
21.434,64.0500,-0.029003
21.450,64.0500,-0.036253
21.466,64.0500,-0.036253
21.481,64.0500,-0.036253
21.497,64.0500,-0.037462
21.513,64.0500,-0.033837
21.529,64.0500,-0.033837
21.548,64.0500,-0.037462
21.562,64.0500,-0.038670
21.579,64.0500,-0.033837
21.594,64.0500,-0.035045
21.610,64.0500,-0.029003
21.627,64.0500,-0.032628
21.642,64.0500,-0.037462
21.658,64.0500,-0.035045
21.673,64.0500,-0.038670
21.689,64.0500,-0.041087
21.706,64.0500,-0.035045
21.721,64.0500,-0.032628
21.737,64.0500,-0.030211
21.753,64.0500,-0.030211
21.769,64.0500,-0.029003
21.786,64.0500,-0.033837
21.801,64.0500,-0.031420
21.826,64.0500,-0.031420
21.847,64.0500,-0.036253
21.866,64.0500,-0.032628
21.882,64.0500,-0.032628
21.898,64.0500,-0.026586
21.913,64.0500,-0.032628
21.940,64.0500,-0.030211
21.956,64.0500,-0.042296
21.972,64.0500,-0.039879
21.988,64.0500,-0.032628
22.005,64.0500,-0.030211
22.020,64.0500,-0.035045
22.037,64.0500,-0.033837
22.052,64.0500,-0.032628
22.072,64.0500,-0.036253
22.084,64.0500,-0.032628
22.100,64.0500,-0.029003
22.115,64.0500,-0.029003
22.133,64.0500,-0.029003
22.148,64.0500,-0.030211
22.164,64.0500,-0.032628
22.181,64.0500,-0.032628
22.197,64.0500,-0.027794
22.212,64.0500,-0.032628
22.228,64.0500,-0.032628
22.244,64.0500,-0.029003
22.260,64.0500,-0.031420
22.276,64.0500,-0.029003
22.292,64.0500,-0.031420
22.308,64.0500,-0.031420
22.324,64.0500,-0.037462
22.340,64.0500,-0.037462
22.356,64.0500,-0.027794
22.372,64.0500,-0.021752
22.388,64.0500,-0.025377
22.404,64.0500,-0.025377
22.420,64.0500,-0.027794
22.438,64.0500,-0.033837
22.452,64.0500,-0.036253
22.468,64.0500,-0.027794
22.498,64.0500,-0.026586
22.514,64.0500,-0.025377
22.530,64.0500,-0.032628
22.546,64.0500,-0.029003
22.567,64.0500,-0.030211
22.579,64.0500,-0.030211
22.595,64.0500,-0.031420
22.610,64.0500,-0.029003
22.627,64.0500,-0.035045
22.642,64.0500,-0.035045
22.660,64.0500,-0.032628
22.674,64.0500,-0.031420
22.691,64.0500,-0.026586
22.706,64.0500,-0.030211
22.722,64.0500,-0.029003
22.738,64.0500,-0.029003
22.754,64.0500,-0.025377
22.770,64.0500,-0.031420
22.786,64.0500,-0.024169
22.802,64.0500,-0.031420
22.821,64.0500,-0.031420
22.834,64.0500,-0.029003
22.850,64.0500,-0.026586
22.866,64.0500,-0.031420
22.882,64.0500,-0.029003
22.898,64.0500,-0.029003
22.914,64.0500,-0.026586
22.930,64.0500,-0.030211
22.946,64.0500,-0.029003
22.962,64.0500,-0.030211
22.978,64.0500,-0.029003
23.001,64.0500,-0.030211
23.025,64.0500,-0.029003
23.041,64.0500,-0.030211
23.057,64.0500,-0.030211
23.073,64.0500,-0.022961
23.089,64.0500,-0.024169
23.105,64.0500,-0.031420
23.121,64.0500,-0.030211
23.138,64.0500,-0.032628
23.153,64.0500,-0.029003
23.169,64.0500,-0.029003
23.185,64.0500,-0.031420
23.201,64.0500,-0.029003
23.216,64.0500,-0.030211
23.233,64.0500,-0.032628
23.249,64.0500,-0.032628
23.265,64.0500,-0.031420
23.280,64.0500,-0.031420
23.297,64.0500,-0.027794
23.313,64.0500,-0.030211
23.329,64.0500,-0.027794
23.344,64.0500,-0.031420
23.361,64.0500,-0.031420
23.376,64.0500,-0.027794
23.393,64.0500,-0.024169
23.408,64.0500,-0.027794
23.425,64.0500,-0.026586
23.441,64.0500,-0.025377
23.456,64.0500,-0.031420
23.475,64.0500,-0.026586
23.489,64.0500,-0.026586
23.504,64.0500,-0.026586
23.520,64.0500,-0.025377
23.536,64.0500,-0.027794
23.558,64.0500,-0.027794
23.575,64.0500,-0.025377
23.591,64.0500,-0.025377
23.608,64.0500,-0.020544
23.623,64.0500,-0.024169
23.640,64.0500,-0.024169
23.654,64.0500,-0.031420
23.670,64.0500,-0.030211
23.686,64.0500,-0.020544
23.703,64.0500,-0.026586
23.719,64.0500,-0.024169
23.735,64.0500,-0.032628
23.751,64.0500,-0.032628
23.766,64.0500,-0.022961
23.782,64.0500,-0.024169
23.799,64.0500,-0.019335
23.817,64.0500,-0.022961
23.830,64.0500,-0.025377
23.848,64.0500,-0.031420
23.863,64.0500,-0.025377
23.878,64.0500,-0.025377
23.894,64.0500,-0.029003
23.926,64.0500,-0.032628
23.942,64.0500,-0.030211
23.958,64.0500,-0.033837
23.975,64.0500,-0.030211
23.990,64.0500,-0.030211
24.006,64.0500,-0.022961
24.031,64.0500,-0.020544
24.054,64.0500,-0.031420
24.071,64.0500,-0.021752
24.097,64.0500,-0.030211
24.113,64.0500,-0.027794
24.130,64.0500,-0.029003
24.145,64.0500,-0.021752
24.168,64.0500,-0.022961
24.192,64.0500,-0.025377
24.209,64.0500,-0.030211
24.231,64.0500,-0.030211
24.242,64.0500,-0.032628
24.257,64.0500,-0.035045
24.273,64.0500,-0.029003
24.290,64.0500,-0.029003
24.305,64.0500,-0.031420
24.321,64.0500,-0.032628
24.337,64.0500,-0.032628
24.355,64.0500,-0.033837
24.369,64.0500,-0.019335
24.385,64.0500,-0.020544
24.401,64.0500,-0.020544
24.417,64.0500,-0.029003
24.434,64.0500,-0.020544
24.449,64.0500,-0.025377
24.465,64.0500,-0.026586
24.481,64.0500,-0.027794
24.497,64.0500,-0.030211
24.513,64.0500,-0.033837
24.529,64.0500,-0.033837
24.545,64.0500,-0.029003
24.561,64.0500,-0.027794
24.577,64.0500,-0.025377
24.593,64.0500,-0.025377
24.609,64.0500,-0.030211
24.625,64.0500,-0.021752
24.656,64.0500,-0.025377
24.672,64.0500,-0.029003
24.688,64.0500,-0.026586
24.704,64.0500,-0.027794
24.720,64.0500,-0.025377
24.736,64.0500,-0.022961
24.752,64.0500,-0.020544
24.768,64.0500,-0.031420
24.788,64.0500,-0.026586
24.800,64.0500,-0.032628
24.816,64.0500,-0.030211
24.832,64.0500,-0.029003
24.849,64.0500,-0.027794
24.864,64.0500,-0.030211
24.880,64.0500,-0.027794
24.896,64.0500,-0.026586
24.912,64.0500,-0.027794
24.928,64.0500,-0.027794
24.944,64.0500,-0.025377
24.961,64.0500,-0.027794
24.977,64.0500,-0.021752
24.992,64.0500,-0.022961
25.008,64.0500,-0.022961
25.024,64.0500,-0.027794
25.039,64.0500,-0.031420
25.056,64.0500,-0.024169
25.072,64.0500,-0.027794
25.088,64.0500,-0.027794
25.104,64.0500,-0.029003
25.120,64.0500,-0.027794
25.137,64.0500,-0.025377
25.152,64.0500,-0.022961
25.168,64.0500,-0.022961
25.184,64.0500,-0.031420
25.199,64.0500,-0.029003
25.216,64.0500,-0.026586
25.231,64.0500,-0.031420
25.248,64.0500,-0.032628
25.264,64.0500,-0.025377
25.280,64.0500,-0.025377
25.297,64.0500,-0.025377
25.311,64.0500,-0.030211
25.328,64.0500,-0.026586
25.344,64.0500,-0.029003
25.359,64.0500,-0.029003
25.376,64.0500,-0.026586
25.392,64.0500,-0.022961
25.408,64.0500,-0.027794
25.424,64.0500,-0.027794
25.440,64.0500,-0.030211
25.455,64.0500,-0.021752
25.473,64.0500,-0.024169
25.487,64.0500,-0.024169
25.503,64.0500,-0.026586
25.520,64.0500,-0.031420
25.536,64.0500,-0.029003
25.552,64.0500,-0.031420
25.568,64.0500,-0.026586
25.584,64.0500,-0.026586
25.599,64.0500,-0.025377
25.616,64.0500,-0.025377
25.632,64.0500,-0.024169
25.647,64.0500,-0.024169
25.664,64.0500,-0.020544
25.680,64.0500,-0.020544
25.696,64.0500,-0.021752
25.712,64.0500,-0.026586
25.735,64.0500,-0.025377
25.751,64.0500,-0.026586
25.767,64.0500,-0.026586
25.783,64.0500,-0.027794
25.800,64.0500,-0.022961
25.816,64.0500,-0.024169
25.831,64.0500,-0.026586
25.847,64.0500,-0.026586
25.867,64.0500,-0.024169
25.883,64.0500,-0.025377
25.896,64.0500,-0.027794
25.912,64.0500,-0.020544
25.928,64.0500,-0.026586
25.943,64.0500,-0.020544
25.961,64.0500,-0.025377
25.975,64.0500,-0.021752
25.992,64.0500,-0.030211
26.008,64.0500,-0.030211
26.023,64.0500,-0.026586
26.040,64.0500,-0.026586
26.057,64.0500,-0.020544
26.072,64.0500,-0.026586
26.087,64.0500,-0.026586
26.103,64.0500,-0.032628
26.127,64.0500,-0.032628
26.153,64.0500,-0.019335
26.168,64.0500,-0.022961
26.184,64.0500,-0.024169
26.200,64.0500,-0.025377
26.215,64.0500,-0.024169
26.238,64.0500,-0.025377
26.261,64.0500,-0.022961
26.278,64.0500,-0.022961
26.293,64.0500,-0.022961
26.309,64.0500,-0.024169
26.325,64.0500,-0.022961
26.343,64.0500,-0.029003
26.357,64.0500,-0.029003
26.373,64.0500,-0.031420
26.389,64.0500,-0.024169
26.405,64.0500,-0.027794
26.421,64.0500,-0.019335
26.437,64.0500,-0.020544
26.453,64.0500,-0.029003
26.470,64.0500,-0.025377
26.485,64.0500,-0.027794
26.502,64.0500,-0.019335
26.517,64.0500,-0.020544
26.534,64.0500,-0.022961
26.549,64.0500,-0.029003
26.565,64.0500,-0.025377
26.581,64.0500,-0.024169
26.597,64.0500,-0.024169
26.614,64.0500,-0.025377
26.630,64.0500,-0.022961
26.646,64.0500,-0.022961
26.661,64.0500,-0.025377
26.677,64.0500,-0.025377
26.693,64.0500,-0.030211
26.709,64.0500,-0.022961
26.725,64.0500,-0.025377
26.741,64.0500,-0.022961
26.757,64.0500,-0.022961
26.782,64.0500,-0.020544
26.798,64.0500,-0.022961
26.815,64.0500,-0.022961
26.830,64.0500,-0.025377
26.854,64.0500,-0.021752
26.864,64.0500,-0.025377
26.878,64.0500,-0.022961
26.894,64.0500,-0.025377
26.911,64.0500,-0.027794
26.926,64.0500,-0.027794
26.942,64.0500,-0.020544
26.958,64.0500,-0.025377
26.975,64.0500,-0.024169
26.990,64.0500,-0.020544
27.007,64.0500,-0.020544
27.022,64.0500,-0.025377
27.040,64.0500,-0.024169
27.054,64.0500,-0.022961
27.070,64.0500,-0.020544
27.087,64.0500,-0.021752
27.102,64.0500,-0.025377
27.118,64.0500,-0.025377
27.134,64.0500,-0.019335
27.150,64.0500,-0.019335
27.166,64.0500,-0.021752
27.182,64.0500,-0.022961
27.198,64.0500,-0.026586
27.219,64.0500,-0.020544
27.230,64.0500,-0.020544
27.246,64.0500,-0.021752
27.262,64.0500,-0.026586
27.278,64.0500,-0.026586
27.295,64.0500,-0.030211
27.310,64.0500,-0.025377
27.337,64.0500,-0.022961
27.353,64.0500,-0.018127
27.371,64.0500,-0.019335
27.386,64.0500,-0.024169
27.405,64.0500,-0.026586
27.417,64.0500,-0.027794
27.434,64.0500,-0.024169
27.450,64.0500,-0.026586
27.467,64.0500,-0.025377
27.482,64.0500,-0.025377
27.497,64.0500,-0.025377
27.514,64.0500,-0.022961
27.530,64.0500,-0.031420
27.545,64.0500,-0.025377
27.562,64.0500,-0.025377
27.579,64.0500,-0.025377
27.594,64.0500,-0.020544
27.609,64.0500,-0.024169
27.625,64.0500,-0.027794
27.642,64.0500,-0.021752
27.658,64.0500,-0.021752
27.673,64.0500,-0.021752
27.690,64.0500,-0.022961
27.706,64.0500,-0.024169
27.721,64.0500,-0.024169
27.737,64.0500,-0.021752
27.753,64.0500,-0.027794
27.769,64.0500,-0.024169
27.786,64.0500,-0.025377
27.801,64.0500,-0.022961
27.818,64.0500,-0.019335
27.834,64.0500,-0.016918
27.850,64.0500,-0.025377
27.881,64.0500,-0.025377
27.900,64.0500,-0.018127
27.912,64.0500,-0.015710
27.928,64.0500,-0.014501
27.945,64.0500,-0.027794
27.961,64.0500,-0.027794
27.977,64.0500,-0.019335
27.992,64.0500,-0.025377
28.008,64.0500,-0.021752
28.028,64.0500,-0.027794
28.040,64.0500,-0.026586
28.058,64.0500,-0.027794
28.072,64.0500,-0.024169
28.091,64.0500,-0.024169
28.104,64.0500,-0.027794
28.122,64.0500,-0.027794
28.136,64.0500,-0.026586
28.153,64.0500,-0.026586
28.168,64.0500,-0.019335
28.186,64.0500,-0.022961
28.201,64.0500,-0.022961
28.216,64.0500,-0.022961
28.232,64.0500,-0.022961
28.248,64.0500,-0.022961
28.264,64.0500,-0.027794
28.280,64.0500,-0.021752
28.296,64.0500,-0.016918
28.312,64.0500,-0.024169
28.329,64.0500,-0.027794
28.344,64.0500,-0.029003
28.361,64.0500,-0.029003
28.377,64.0500,-0.022961
28.392,64.0500,-0.022961
28.422,64.0500,-0.025377
28.438,64.0500,-0.024169
28.454,64.0500,-0.027794
28.470,64.0500,-0.026586
28.488,64.0500,-0.019335
28.503,64.0500,-0.014501
28.518,64.0500,-0.024169
28.534,64.0500,-0.022961
28.551,64.0500,-0.022961
28.566,64.0500,-0.026586
28.583,64.0500,-0.019335
28.598,64.0500,-0.024169
28.616,64.0500,-0.024169
28.630,64.0500,-0.029003
28.646,64.0500,-0.030211
28.662,64.0500,-0.030211
28.679,64.0500,-0.022961
28.694,64.0500,-0.024169
28.710,64.0500,-0.027794
28.726,64.0500,-0.026586
28.744,64.0500,-0.022961
28.759,64.0500,-0.022961
28.774,64.0500,-0.016918
28.793,64.0500,-0.021752
28.806,64.0500,-0.022961
28.823,64.0500,-0.026586
28.838,64.0500,-0.021752
28.854,64.0500,-0.022961
28.870,64.0500,-0.022961
28.886,64.0500,-0.020544
28.902,64.0500,-0.029003
28.922,64.0500,-0.025377
28.946,64.0500,-0.025377
28.962,64.0500,-0.024169
28.978,64.0500,-0.024169
28.994,64.0500,-0.019335
29.010,64.0500,-0.019335
29.026,64.0500,-0.022961
29.042,64.0500,-0.029003
29.059,64.0500,-0.029003
29.074,64.0500,-0.022961
29.090,64.0500,-0.026586
29.109,64.0500,-0.026586
29.122,64.0500,-0.021752
29.138,64.0500,-0.024169
29.154,64.0500,-0.021752
29.171,64.0500,-0.019335
29.186,64.0500,-0.025377
29.203,64.0500,-0.025377
29.218,64.0500,-0.021752
29.237,64.0500,-0.018127
29.250,64.0500,-0.018127
29.266,64.0500,-0.021752
29.282,64.0500,-0.022961
29.298,64.0500,-0.020544
29.314,64.0500,-0.021752
29.330,64.0500,-0.022961
29.346,64.0500,-0.019335
29.363,64.0500,-0.027794
29.378,64.0500,-0.027794
29.394,64.0500,-0.027794
29.410,64.0500,-0.020544
29.426,64.0500,-0.022961
29.443,64.0500,-0.021752
29.474,64.0500,-0.022961
29.489,64.0500,-0.022961
29.505,64.0500,-0.024169
29.521,64.0500,-0.027794
29.538,64.0500,-0.027794
29.553,64.0500,-0.022961
29.569,64.0500,-0.020544
29.585,64.0500,-0.020544
29.602,64.0500,-0.016918
29.618,64.0500,-0.019335
29.633,64.0500,-0.026586
29.650,64.0500,-0.027794
29.666,64.0500,-0.026586
29.682,64.0500,-0.025377
29.697,64.0500,-0.024169
29.714,64.0500,-0.015710
29.729,64.0500,-0.016918
29.745,64.0500,-0.022961
29.761,64.0500,-0.021752
29.777,64.0500,-0.022961
29.793,64.0500,-0.025377
29.808,64.0500,-0.025377
29.825,64.0500,-0.021752
29.850,64.0500,-0.020544
29.876,64.0500,-0.027794
29.888,64.0500,-0.022961
29.905,64.0500,-0.021752
29.922,64.0500,-0.026586
29.936,64.0500,-0.018127
29.963,64.0500,-0.020544
29.985,64.0500,-0.022961
30.000,64.0500,-0.020544
30.030,64.0500,-0.013293
30.052,64.0500,-0.029003
30.076,64.0500,-0.019335
30.095,64.0500,-0.018127
30.109,64.0500,-0.022961
30.126,64.0500,-0.024169
30.141,64.0500,-0.019335
30.158,64.0500,-0.020544
30.174,64.0500,-0.020544
30.190,64.0500,-0.022961
30.206,64.0500,-0.024169
30.222,64.0500,-0.024169
30.237,64.0500,-0.027794
30.253,64.0500,-0.020544
30.270,64.0500,-0.020544
30.287,64.0500,-0.024169
30.302,64.0500,-0.022961
30.318,64.0500,-0.022961
30.334,64.0500,-0.029003
30.349,64.0500,-0.026586
30.366,64.0500,-0.012084
30.381,64.0500,-0.020544
30.400,64.0500,-0.019335
30.414,64.0500,-0.016918
30.429,64.0500,-0.016918
30.446,64.0500,-0.019335
30.465,64.0500,-0.021752
30.478,64.0500,-0.029003
30.493,64.0500,-0.016918
30.509,64.0500,-0.018127
30.527,64.0500,-0.014501
30.542,64.0500,-0.019335
30.559,64.0500,-0.022961
30.582,64.0500,-0.022961
30.598,64.0500,-0.022961
30.616,64.0500,-0.022961
30.630,64.0500,-0.022961
30.654,64.0500,-0.016918
30.667,64.0500,-0.013293
30.679,64.0500,-0.013293
30.694,64.0500,-0.022961
30.712,64.0500,-0.024169
30.727,64.0500,-0.016918
30.743,64.0500,-0.016918
30.759,64.0500,-0.016918
30.775,64.0500,-0.022961
30.790,64.0500,-0.022961
30.806,64.0500,-0.020544
30.822,64.0500,-0.024169
30.839,64.0500,-0.024169
30.854,64.0500,-0.019335
30.870,64.0500,-0.019335
30.886,64.0500,-0.020544
30.902,64.0500,-0.025377
30.918,64.0500,-0.025377
30.934,64.0500,-0.024169
30.950,64.0500,-0.020544
30.966,64.0500,-0.018127
30.982,64.0500,-0.020544
30.998,64.0500,-0.024169
31.015,64.0500,-0.018127
31.030,64.0500,-0.018127
31.046,64.0500,-0.018127
31.062,64.0500,-0.025377
31.080,64.0500,-0.025377
31.094,64.0500,-0.020544
31.111,64.0500,-0.018127
31.141,64.0500,-0.019335
31.157,64.0500,-0.026586
31.173,64.0500,-0.020544
31.189,64.0471,-0.024169
31.205,64.0183,-0.002417
31.221,63.9913,-0.021752
31.237,63.9636,-0.009668
31.253,63.9363,-0.009668
31.269,63.9067,-0.001208
31.286,63.8789,-0.002417
31.301,63.8520,0.010876
31.317,63.8248,0.012084
31.333,63.7968,0.021752
31.350,63.7678,0.022961
31.365,63.7421,0.022961
31.381,63.7136,0.027794
31.397,63.6855,0.029003
31.413,63.6573,0.041087
31.429,63.6307,0.041087
31.445,63.6019,0.048338
31.461,63.5752,0.048338
31.477,63.5473,0.048338
31.494,63.5180,0.055589
31.509,63.4909,0.055589
31.525,63.4633,0.062839
31.541,63.4349,0.062839
31.558,63.4069,0.073715
31.574,63.3786,0.077341
31.589,63.3529,0.077341
31.605,63.3244,0.085800
31.621,63.2966,0.085800
31.637,63.2693,0.094259
31.653,63.2407,0.101510
31.680,63.1950,0.106343
31.696,63.1663,0.111177
31.713,63.1371,0.116011
31.728,63.1112,0.116011
31.744,63.0829,0.117219
31.760,63.0553,0.128095
31.779,63.0231,0.128095
31.792,63.0006,0.136555
31.809,62.9715,0.136555
31.824,62.9450,0.141388
31.841,62.9149,0.141388
31.856,62.8898,0.149848
31.874,62.8566,0.155890
31.891,62.8278,0.164349
31.904,62.8057,0.164349
31.923,62.7736,0.170391
31.936,62.7497,0.172808
31.952,62.7222,0.175225
31.968,62.6942,0.175225
31.984,62.6659,0.180059
32.000,62.6389,0.180059
32.017,62.6095,0.188518
32.032,62.5838,0.194560
32.048,62.5566,0.195769
32.064,62.5279,0.194560
32.080,62.5009,0.193352
32.096,62.4731,0.200602
32.113,62.4429,0.194560
32.127,62.4178,0.194560
32.144,62.3885,0.198185
32.160,62.3621,0.187309
32.176,62.3318,0.183684
32.192,62.3053,0.180059
32.208,62.2761,0.167974
32.232,62.2355,0.153473
32.249,62.2063,0.154681
32.266,62.1764,0.148639
32.280,62.1520,0.148639
32.302,62.1137,0.117219
32.326,62.0712,0.072507
32.345,62.0397,0.029003
32.361,62.0102,0.014501
32.376,61.9851,0.007251
32.394,61.9528,0.008459
32.409,61.9289,0.008459
32.425,61.9006,0.006042
32.441,61.8722,0.006042
32.457,61.8460,0.003625
32.472,61.8186,0.000000
32.489,61.7886,0.000000
32.504,61.7635,0.001208
32.520,61.7356,-0.003625
32.536,61.7080,-0.001208
32.553,61.6781,-0.001208
32.569,61.6513,-0.001208
32.585,61.6229,-0.002417
32.600,61.5966,0.004834
32.617,61.5680,0.003625
32.632,61.5404,-0.002417
32.648,61.5135,-0.003625
32.664,61.4855,0.006042
32.680,61.4576,0.006042
32.697,61.4284,0.006042
32.712,61.4021,-0.001208
32.729,61.3729,-0.001208
32.745,61.3455,-0.002417
32.760,61.3179,0.000000
32.790,61.2655,0.000000
32.806,61.2389,0.002417
32.823,61.2094,0.002417
32.838,61.1834,0.000000
32.856,61.1491,0.003625
32.871,61.1269,0.003625
32.886,61.1004,-0.002417
32.903,61.0708,0.000000
32.918,61.0448,0.004834
32.936,61.0132,-0.002417
32.950,60.9893,0.002417
32.967,60.9584,0.003625
32.983,60.9307,0.006042
32.998,60.9059,0.004834
33.014,60.8781,0.001208
33.031,60.8479,0.001208
33.047,60.8217,0.002417
33.062,60.7948,-0.004834
33.078,60.7662,-0.001208
33.098,60.7320,0.000000
33.110,60.7111,0.001208
33.127,60.6806,-0.001208
33.142,60.6560,-0.001208
33.158,60.6285,0.002417
33.174,60.6000,0.000000
33.190,60.5726,0.000000
33.206,60.5449,0.000000
33.222,60.5153,0.000000
33.238,60.4890,0.000000
33.254,60.4603,-0.002417
33.271,60.4320,0.003625
33.286,60.4052,-0.001208
33.302,60.3770,0.001208
33.329,60.3300,0.001208
33.345,60.3035,0.003625
33.361,60.2756,0.000000
33.377,60.2480,0.001208
33.402,60.2021,-0.001208
33.425,60.1641,0.002417
33.442,60.1344,-0.001208
33.458,60.1078,0.004834
33.477,60.0736,0.003625
33.491,60.0495,0.001208
33.505,60.0252,-0.004834
33.521,59.9971,0.002417
33.537,59.9703,0.000000
33.553,59.9429,0.006042
33.569,59.9150,0.000000
33.586,59.8843,-0.002417
33.601,59.8583,0.001208
33.617,59.8318,-0.007251
33.633,59.8039,0.000000
33.649,59.7750,0.000000
33.665,59.7475,-0.003625
33.681,59.7206,0.007251
33.698,59.6904,0.007251
33.714,59.6621,0.004834
33.729,59.6373,0.004834
33.745,59.6093,-0.002417
33.761,59.5812,0.001208
33.777,59.5536,-0.001208
33.793,59.5253,0.002417
33.810,59.4962,0.002417
33.825,59.4702,-0.002417
33.841,59.4423,0.000000
33.857,59.4142,0.001208
33.872,59.3860,0.009668
33.889,59.3584,0.004834
33.905,59.3305,-0.002417
33.921,59.3034,-0.001208
33.937,59.2749,-0.001208
33.953,59.2480,-0.007251
33.969,59.2207,-0.002417
33.985,59.1915,0.006042
34.001,59.1644,0.002417
34.018,59.1349,-0.002417
34.033,59.1094,0.002417
34.052,59.0766,0.002417
34.066,59.0524,-0.004834
34.081,59.0254,0.000000
34.097,58.9984,0.004834
34.113,58.9703,0.003625
34.129,58.9411,0.006042
34.145,58.9151,0.001208
34.161,58.8872,0.001208
34.178,58.8569,0.001208
34.193,58.8305,0.004834
34.209,58.8036,0.006042
34.225,58.7757,-0.001208
34.241,58.7479,0.002417
34.257,58.7208,0.004834
34.273,58.6929,0.001208
34.289,58.6648,0.001208
34.305,58.6368,0.001208
34.320,58.6099,0.004834
34.337,58.5812,0.001208
34.352,58.5528,-0.001208
34.369,58.5254,-0.004834
34.385,58.4980,0.001208
34.416,58.4447,-0.004834
34.432,58.4168,-0.001208
34.447,58.3886,0.002417
34.464,58.3612,-0.001208
34.480,58.3314,0.003625
34.496,58.3035,0.004834
34.512,58.2759,0.007251
34.527,58.2506,0.002417
34.546,58.2168,0.004834
34.559,58.1945,0.004834
34.576,58.1665,0.002417
34.591,58.1395,0.002417
34.609,58.1091,0.000000
34.623,58.0830,-0.003625
34.640,58.0550,-0.003625
34.655,58.0283,0.000000
34.672,58.0001,-0.001208
34.688,58.0001,-0.001208
34.703,58.0001,-0.003625
34.719,58.0001,-0.003625
34.735,58.0001,-0.002417
34.751,58.0001,-0.007251
34.767,58.0001,0.003625
34.784,58.0001,0.004834
34.799,58.0001,0.001208
34.816,58.0001,-0.003625
34.831,58.0001,-0.002417
34.848,58.0001,0.001208
34.864,58.0001,0.002417
34.880,58.0001,0.002417
34.895,58.0001,0.002417
34.912,58.0001,0.001208
34.927,58.0001,0.001208
34.943,58.0001,-0.001208
34.973,58.0001,0.001208
34.989,58.0001,0.001208
35.004,58.0001,0.002417
35.020,58.0001,-0.003625
35.037,58.0001,0.001208
35.053,58.0001,0.007251
35.068,58.0001,0.001208
35.091,58.0001,0.001208
35.102,58.0001,0.001208
35.117,58.0001,0.002417
35.132,58.0001,0.000000
35.150,58.0001,0.001208
35.165,58.0001,0.000000
35.180,58.0001,0.000000
35.196,58.0001,-0.001208
35.214,58.0001,0.003625
35.228,58.0001,0.003625
35.244,58.0007,-0.001208
35.260,58.0249,-0.001208
35.277,58.0530,-0.013293
35.292,58.0801,-0.007251
35.308,58.1073,-0.003625
35.324,58.1351,0.001208
35.340,58.1625,0.001208
35.356,58.1906,0.004834
35.372,58.2180,-0.006042
35.389,58.2464,-0.006042
35.405,58.2750,0.004834
35.420,58.3011,0.003625
35.446,58.3473,0.004834
35.456,58.3648,0.003625
35.469,58.3889,-0.003625
35.485,58.4138,-0.002417
35.513,58.4632,0.003625
35.529,58.4913,0.003625
35.545,58.5188,0.006042
35.561,58.5461,-0.001208
35.578,58.5756,0.003625
35.593,58.6018,-0.001208
35.609,58.6302,-0.002417
35.625,58.6571,-0.001208
35.641,58.6852,0.002417
35.657,58.7127,0.004834
35.673,58.7405,0.003625
35.689,58.7692,0.002417
35.704,58.7964,-0.003625
35.721,58.8252,0.001208
35.737,58.8516,-0.001208
35.753,58.8798,0.001208
35.769,58.9069,0.003625
35.785,58.9346,0.004834
35.801,58.9625,0.002417
35.817,58.9915,0.003625
35.833,59.0192,-0.003625
35.849,59.0458,-0.003625
35.869,59.0808,0.006042
35.881,59.1023,0.001208
35.897,59.1295,0.001208
35.913,59.1571,-0.003625
35.930,59.1867,-0.003625
35.945,59.2124,-0.001208
35.960,59.2409,-0.001208
35.985,59.2827,0.006042
36.007,59.3209,-0.003625
36.025,59.3512,-0.004834
36.049,59.3937,-0.004834
36.065,59.4215,-0.001208
36.080,59.4470,0.003625
36.096,59.4746,0.002417
36.111,59.5020,0.003625
36.129,59.5326,0.003625
36.144,59.5597,0.000000
36.160,59.5856,-0.002417
36.176,59.6150,0.002417
36.199,59.6549,0.001208
36.223,59.6958,-0.002417
36.240,59.7249,-0.004834
36.256,59.7533,0.001208
36.272,59.7808,-0.004834
36.288,59.8083,-0.004834
36.304,59.8372,0.000000
36.320,59.8646,0.000000
36.336,59.8912,0.002417
36.352,59.9194,-0.003625
36.369,59.9498,-0.003625
36.384,59.9759,-0.003625
36.400,60.0019,-0.003625
36.416,60.0299,-0.001208
36.432,60.0583,0.002417
36.448,60.0855,0.000000
36.463,60.1130,-0.004834
36.480,60.1424,-0.004834
36.495,60.1689,-0.002417
36.513,60.1987,-0.004834
36.528,60.2244,-0.002417
36.544,60.2527,-0.001208
36.560,60.2813,-0.001208
36.575,60.3075,0.001208
36.607,60.3616,-0.004834
36.622,60.3894,-0.001208
36.638,60.4180,0.001208
36.655,60.4465,0.000000
36.672,60.4762,0.001208
36.687,60.5009,-0.001208
36.702,60.5283,0.001208
36.718,60.5561,-0.002417
36.735,60.5848,-0.001208
36.751,60.6125,0.003625
36.766,60.6393,0.004834
36.783,60.6676,0.003625
36.799,60.6953,0.002417
36.814,60.7226,0.003625
36.830,60.7502,0.001208
36.848,60.7808,-0.003625
36.862,60.8063,0.002417
36.879,60.8335,-0.001208
36.894,60.8613,0.000000
36.910,60.8894,-0.002417
36.927,60.9185,-0.002417
36.942,60.9446,0.000000
36.958,60.9735,0.000000
36.975,61.0011,0.003625
36.990,61.0278,0.000000
37.007,61.0579,0.000000
37.023,61.0841,-0.004834
37.039,61.1119,-0.006042
37.055,61.1400,-0.006042
37.071,61.1681,-0.006042
37.086,61.1948,-0.001208
37.102,61.2223,0.001208
37.118,61.2529,0.000000
37.142,61.2909,-0.002417
37.157,61.3174,-0.002417
37.172,61.3439,-0.006042
37.188,61.3721,0.003625
37.205,61.4005,0.000000
37.220,61.4272,-0.001208
37.236,61.4550,-0.003625
37.252,61.4828,0.002417
37.269,61.5113,-0.007251
37.285,61.5397,-0.008459
37.300,61.5660,-0.007251
37.316,61.5938,0.001208
37.336,61.6286,-0.002417
37.349,61.6512,-0.001208
37.364,61.6775,-0.001208
37.384,61.7152,-0.007251
37.397,61.7340,-0.003625
37.413,61.7617,0.002417
37.428,61.7879,0.003625
37.447,61.8226,0.002417
37.461,61.8447,0.000000
37.476,61.8728,-0.006042
37.492,61.8995,0.000000
37.509,61.9287,0.000000
37.525,61.9554,-0.001208
37.540,61.9826,-0.001208
37.556,62.0104,-0.002417
37.572,62.0385,-0.002417
37.588,62.0657,-0.002417
37.604,62.0937,-0.004834
37.620,62.1215,-0.004834
37.636,62.1494,-0.003625
37.652,62.1768,-0.003625
37.668,62.2053,-0.003625
37.684,62.2327,-0.003625
37.700,62.2601,-0.004834
37.716,62.2879,-0.004834
37.732,62.3169,0.000000
37.748,62.3435,-0.003625
37.764,62.3724,-0.001208
37.780,62.4003,-0.001208
37.796,62.4278,-0.006042
37.818,62.4648,-0.006042
37.830,62.4862,-0.003625
37.844,62.5117,-0.006042
37.860,62.5391,-0.014501
37.877,62.5670,0.000000
37.892,62.5936,0.002417
37.908,62.6228,0.000000
37.924,62.6492,-0.004834
37.942,62.6814,-0.006042
37.956,62.7050,-0.009668
37.972,62.7332,-0.003625
37.988,62.7609,-0.003625
38.008,62.7942,-0.006042
38.020,62.8165,-0.002417
38.039,62.8486,-0.007251
38.053,62.8729,-0.003625
38.068,62.9001,-0.002417
38.084,62.9274,-0.004834
38.100,62.9549,-0.004834
38.116,62.9827,-0.002417
38.133,63.0117,-0.010876
38.149,63.0395,-0.012084
38.164,63.0654,-0.008459
38.180,63.0937,-0.008459
38.197,63.1228,-0.015710
38.212,63.1490,-0.012084
38.240,63.1983,-0.012084
38.256,63.2255,-0.010876
38.271,63.2533,-0.014501
38.288,63.2807,-0.014501
38.304,63.3094,-0.009668
38.320,63.3369,-0.010876
38.336,63.3651,-0.016918
38.352,63.3922,-0.021752
38.368,63.4209,-0.021752
38.384,63.4478,-0.019335
38.401,63.4782,-0.019335
38.416,63.5030,-0.026586
38.432,63.5314,-0.025377
38.448,63.5587,-0.025377
38.465,63.5878,-0.025377
38.480,63.6139,-0.025377
38.496,63.6428,-0.031420
38.512,63.6697,-0.033837
38.528,63.6973,-0.038670
38.544,63.7252,-0.038670
38.560,63.7546,-0.038670
38.576,63.7815,-0.039879
38.592,63.8086,-0.044713
38.609,63.8386,-0.044713
38.625,63.8662,-0.053172
38.640,63.8923,-0.053172
38.656,63.9196,-0.054380
38.671,63.9471,-0.050755
38.688,63.9765,-0.061631
38.705,64.0001,-0.060422
38.720,64.0001,-0.043504
38.737,64.0001,-0.062839
38.751,64.0001,-0.059214
38.767,64.0001,-0.055589
38.796,64.0001,-0.054380
38.812,64.0001,-0.050755
38.827,64.0001,-0.051963
38.844,64.0001,-0.053172
38.860,64.0001,-0.054380
38.876,64.0001,-0.053172
38.892,64.0001,-0.051963
38.908,64.0001,-0.055589
38.923,64.0001,-0.056797
38.940,64.0001,-0.045921
38.955,64.0001,-0.047129
38.971,64.0001,-0.050755
38.987,64.0001,-0.049546
39.004,64.0001,-0.042296
39.019,64.0001,-0.045921
39.036,64.0001,-0.047129
39.052,64.0001,-0.041087
39.067,64.0001,-0.041087
39.084,64.0001,-0.043504
39.100,64.0001,-0.043504
39.115,64.0001,-0.050755
39.132,64.0001,-0.037462
39.147,64.0001,-0.044713
39.163,64.0001,-0.043504
39.180,64.0001,-0.048338
39.195,64.0001,-0.047129
39.211,64.0001,-0.047129
39.227,64.0001,-0.043504
39.243,64.0001,-0.047129
39.259,64.0001,-0.042296
39.276,64.0001,-0.042296
39.292,64.0001,-0.038670
39.308,64.0001,-0.037462
39.325,64.0001,-0.035045
39.348,64.0001,-0.032628
39.365,64.0001,-0.041087
39.380,64.0001,-0.041087
39.396,64.0001,-0.041087
39.417,64.0001,-0.041087
39.428,64.0001,-0.039879
39.444,64.0001,-0.036253
39.460,64.0001,-0.037462
39.480,64.0001,-0.043504
39.493,64.0001,-0.035045
39.508,64.0001,-0.032628
39.524,64.0001,-0.036253
39.542,64.0001,-0.032628
39.557,64.0001,-0.032628
39.573,64.0001,-0.038670
39.588,64.0001,-0.039879
39.605,64.0001,-0.033837
39.620,64.0001,-0.033837
39.636,64.0001,-0.042296
39.652,64.0001,-0.042296
39.668,64.0001,-0.042296
39.685,64.0001,-0.041087
39.700,64.0001,-0.041087
39.716,64.0001,-0.033837
39.740,64.0001,-0.035045
39.751,64.0001,-0.043504
39.764,64.0001,-0.036253
39.780,64.0001,-0.038670
39.798,64.0001,-0.035045
39.813,64.0001,-0.032628
39.828,64.0001,-0.032628
39.849,64.0001,-0.036253
39.872,64.0001,-0.038670
39.888,64.0001,-0.036253
39.905,64.0001,-0.037462
39.920,64.0001,-0.038670
39.936,64.0001,-0.036253
39.952,64.0001,-0.035045
39.968,64.0001,-0.035045
39.984,64.0001,-0.037462
40.001,64.0001,-0.039879
40.016,64.0001,-0.035045
40.035,64.0001,-0.031420
40.048,64.0001,-0.030211
40.064,64.0001,-0.027794
40.080,64.0001,-0.031420
40.096,64.0001,-0.033837
40.112,64.0001,-0.035045
40.128,64.0001,-0.035045
40.145,64.0001,-0.031420
40.160,64.0001,-0.031420
40.177,64.0001,-0.031420
40.192,64.0001,-0.029003
40.208,64.0001,-0.032628
40.225,64.0001,-0.027794
40.240,64.0001,-0.036253
40.256,64.0001,-0.031420
40.272,64.0001,-0.029003
40.295,64.0001,-0.026586
40.319,64.0001,-0.030211
40.336,64.0001,-0.035045
40.352,64.0001,-0.032628
40.368,64.0001,-0.027794
40.394,64.0001,-0.031420
40.410,64.0001,-0.029003
40.426,64.0001,-0.031420
40.442,64.0001,-0.031420
40.459,64.0001,-0.031420
40.475,64.0001,-0.036253
40.490,64.0001,-0.036253
40.506,64.0001,-0.033837
40.522,64.0001,-0.029003
40.539,64.0001,-0.027794
40.555,64.0001,-0.027794
40.570,64.0001,-0.033837
40.588,64.0001,-0.035045
40.603,64.0001,-0.032628
40.618,64.0001,-0.031420
40.634,64.0001,-0.030211
40.651,64.0001,-0.030211
40.666,64.0001,-0.026586
40.682,64.0001,-0.031420
40.698,64.0001,-0.031420
40.714,64.0001,-0.031420
40.730,64.0001,-0.031420
40.746,64.0001,-0.036253
40.762,64.0001,-0.026586
40.779,64.0001,-0.026586
40.794,64.0001,-0.031420
40.812,64.0001,-0.031420
40.827,64.0001,-0.030211
40.842,64.0001,-0.031420
40.858,64.0001,-0.029003
40.874,64.0001,-0.031420
40.890,64.0001,-0.029003
40.906,64.0001,-0.025377
40.923,64.0001,-0.031420
40.947,64.0001,-0.035045
40.963,64.0001,-0.027794
40.979,64.0001,-0.027794
40.995,64.0001,-0.025377
41.011,64.0001,-0.027794
41.027,64.0001,-0.027794
41.044,64.0001,-0.027794
41.059,64.0001,-0.029003
41.075,64.0001,-0.036253
41.091,64.0001,-0.035045
41.106,64.0001,-0.031420
41.123,64.0001,-0.027794
41.138,64.0001,-0.025377
41.155,64.0001,-0.035045
41.171,64.0001,-0.031420
41.189,64.0001,-0.031420
41.202,64.0001,-0.024169
41.219,64.0001,-0.024169
41.235,64.0001,-0.032628
41.251,64.0001,-0.035045
41.267,64.0001,-0.025377
41.282,64.0001,-0.029003
41.299,64.0001,-0.029003
41.320,64.0001,-0.033837
41.331,64.0001,-0.030211
41.347,64.0001,-0.026586
41.363,64.0001,-0.027794
41.379,64.0001,-0.027794
41.394,64.0001,-0.030211
41.410,64.0001,-0.033837
41.427,64.0001,-0.032628
41.449,64.0001,-0.031420
41.459,64.0001,-0.024169
41.474,64.0001,-0.024169
41.503,64.0001,-0.025377
41.519,64.0001,-0.032628
41.535,64.0001,-0.033837
41.552,64.0001,-0.029003
41.567,64.0001,-0.031420
41.583,64.0001,-0.029003
41.599,64.0001,-0.029003
41.615,64.0001,-0.029003
41.632,64.0001,-0.024169
41.647,64.0001,-0.025377
41.665,64.0001,-0.027794
41.679,64.0001,-0.027794
41.697,64.0001,-0.027794
41.711,64.0001,-0.025377
41.727,64.0001,-0.025377
41.744,64.0001,-0.019335
41.759,64.0001,-0.021752
41.775,64.0001,-0.030211
41.791,64.0001,-0.031420
41.807,64.0001,-0.026586
41.823,64.0001,-0.026586
41.839,64.0001,-0.029003
41.855,64.0001,-0.026586
41.871,64.0001,-0.027794
41.887,64.0001,-0.030211
41.903,64.0001,-0.026586
41.919,64.0001,-0.025377
41.936,64.0001,-0.030211
41.953,64.0001,-0.022961
41.968,64.0001,-0.021752
41.985,64.0001,-0.025377
42.000,64.0001,-0.029003
42.016,64.0001,-0.026586
42.039,64.0001,-0.030211
42.055,64.0001,-0.029003
42.072,64.0001,-0.025377
42.087,64.0001,-0.025377
42.105,64.0001,-0.029003
42.119,64.0001,-0.029003
42.135,64.0001,-0.032628
42.151,64.0001,-0.027794
42.167,64.0001,-0.031420
42.183,64.0001,-0.022961
42.199,64.0001,-0.025377
42.218,64.0001,-0.027794
42.232,64.0001,-0.027794
42.248,64.0001,-0.033837
42.263,64.0001,-0.030211
42.279,64.0001,-0.030211
42.296,64.0001,-0.030211
42.311,64.0001,-0.025377
42.329,64.0001,-0.025377
42.343,64.0001,-0.024169
42.359,64.0001,-0.025377
42.375,64.0001,-0.032628
42.391,64.0001,-0.032628
42.407,64.0001,-0.031420
42.423,64.0001,-0.029003
42.439,64.0001,-0.030211
42.455,64.0001,-0.024169
42.471,64.0001,-0.025377
42.488,64.0001,-0.027794
42.508,64.0001,-0.032628
42.520,64.0001,-0.026586
42.535,64.0001,-0.025377
42.566,64.0001,-0.025377
42.584,64.0001,-0.027794
42.599,64.0001,-0.027794
42.614,64.0001,-0.026586
42.630,64.0001,-0.029003
42.646,64.0001,-0.029003
42.663,64.0001,-0.024169
42.678,64.0001,-0.024169
42.694,64.0001,-0.021752
42.710,64.0001,-0.025377
42.727,64.0001,-0.025377
42.742,64.0001,-0.021752
42.758,64.0001,-0.021752
42.774,64.0001,-0.021752
42.790,64.0001,-0.021752
42.806,64.0001,-0.025377
42.822,64.0001,-0.030211
42.838,64.0001,-0.030211
42.854,64.0001,-0.030211
42.870,64.0001,-0.030211
42.894,64.0001,-0.024169
42.908,64.0001,-0.022961
42.923,64.0001,-0.027794
42.934,64.0001,-0.026586
42.950,64.0001,-0.026586
42.966,64.0001,-0.024169
42.982,64.0001,-0.031420
42.998,64.0001,-0.026586
43.019,64.0001,-0.026586
43.030,64.0001,-0.030211
43.046,64.0001,-0.021752
43.062,64.0001,-0.025377
43.078,64.0001,-0.024169
43.095,64.0001,-0.029003
43.122,64.0001,-0.027794
43.138,64.0001,-0.025377
43.154,64.0001,-0.025377
43.170,64.0001,-0.022961
43.187,64.0001,-0.025377
43.201,64.0001,-0.025377
43.220,64.0001,-0.024169
43.234,64.0001,-0.029003
43.250,64.0001,-0.022961
43.266,64.0001,-0.026586
43.282,64.0001,-0.021752
43.297,64.0001,-0.024169
43.315,64.0001,-0.027794
43.330,64.0001,-0.031420
43.345,64.0001,-0.030211
43.362,64.0001,-0.022961
43.378,64.0001,-0.026586
43.394,64.0001,-0.027794
43.409,64.0001,-0.027794
43.426,64.0001,-0.025377
43.442,64.0001,-0.026586
43.457,64.0001,-0.027794
43.474,64.0001,-0.030211
43.490,64.0001,-0.030211
43.506,64.0001,-0.027794
43.522,64.0001,-0.027794
43.537,64.0001,-0.027794
43.554,64.0001,-0.029003
43.570,64.0001,-0.029003
43.585,64.0001,-0.027794
43.608,64.0001,-0.029003
43.620,64.0001,-0.021752
43.633,64.0001,-0.021752
43.651,64.0001,-0.024169
43.676,64.0001,-0.030211
43.692,64.0001,-0.022961
43.707,64.0001,-0.025377
43.723,64.0001,-0.026586
43.740,64.0001,-0.026586
43.756,64.0001,-0.019335
43.771,64.0001,-0.024169
43.792,64.0001,-0.024169
43.804,64.0001,-0.026586
43.819,64.0001,-0.029003
43.835,64.0001,-0.019335
43.852,64.0001,-0.019335
43.868,64.0001,-0.022961
43.883,64.0001,-0.025377
43.899,64.0001,-0.025377
43.920,64.0001,-0.022961
43.931,64.0001,-0.027794
43.948,64.0001,-0.027794
43.963,64.0001,-0.025377
43.981,64.0001,-0.025377
43.996,64.0001,-0.024169
44.011,64.0001,-0.029003
44.027,64.0001,-0.025377
44.044,64.0001,-0.024169
44.060,64.0001,-0.021752
44.075,64.0001,-0.025377
44.091,64.0001,-0.021752
44.107,64.0001,-0.021752
44.124,64.0001,-0.024169
44.139,64.0001,-0.024169
44.155,64.0001,-0.021752
44.172,64.0001,-0.025377
44.187,64.0001,-0.024169
44.214,64.0001,-0.024169
44.232,64.0001,-0.022961
44.247,64.0001,-0.031420
44.262,64.0001,-0.018127
44.278,64.0001,-0.020544
44.294,64.0001,-0.025377
44.310,64.0001,-0.027794
44.326,64.0001,-0.021752
44.345,64.0001,-0.020544
44.358,64.0001,-0.022961
44.380,64.0001,-0.032628
44.390,64.0001,-0.032628
44.411,64.0001,-0.024169
44.422,64.0001,-0.024169
44.439,64.0001,-0.022961
44.454,64.0001,-0.020544
44.472,64.0001,-0.021752
44.486,64.0001,-0.031420
44.502,64.0001,-0.024169
44.518,64.0001,-0.026586
44.534,64.0001,-0.021752
44.550,64.0001,-0.024169
44.566,64.0001,-0.020544
44.582,64.0001,-0.022961
44.598,64.0001,-0.022961
44.614,64.0001,-0.020544
44.630,64.0001,-0.027794
44.646,64.0001,-0.021752
44.665,64.0001,-0.029003
44.678,64.0001,-0.029003
44.694,64.0001,-0.026586
44.710,64.0001,-0.022961
44.726,64.0001,-0.030211
44.742,64.0001,-0.026586
44.771,64.0001,-0.026586
44.787,64.0001,-0.022961
44.803,64.0001,-0.022961
44.819,64.0001,-0.024169
44.835,64.0001,-0.022961
44.851,64.0001,-0.026586
44.868,64.0001,-0.026586
44.883,64.0001,-0.022961
44.899,64.0001,-0.026586
44.915,64.0001,-0.016918
44.932,64.0001,-0.016918
44.947,64.0001,-0.018127
44.968,64.0001,-0.026586
44.983,64.0001,-0.021752
44.995,64.0001,-0.031420
45.011,64.0001,-0.031420
45.028,64.0001,-0.022961
45.043,64.0001,-0.019335
45.059,64.0001,-0.025377
45.075,64.0001,-0.025377
45.091,64.0001,-0.025377
45.107,64.0001,-0.026586
45.123,64.0001,-0.025377
45.139,64.0001,-0.024169
45.159,64.0001,-0.026586
45.171,64.0001,-0.022961
45.187,64.0001,-0.025377
45.203,64.0001,-0.016918
45.218,64.0001,-0.021752
45.236,64.0001,-0.027794
45.251,64.0001,-0.025377
45.267,64.0001,-0.022961
45.285,64.0001,-0.020544
45.298,64.0001,-0.024169
45.331,64.0001,-0.020544
45.345,64.0001,-0.027794
45.362,64.0001,-0.024169
45.378,64.0001,-0.024169
45.395,64.0001,-0.024169
45.409,64.0001,-0.024169
45.425,64.0001,-0.020544
45.442,64.0001,-0.019335
45.458,64.0001,-0.029003
45.474,64.0001,-0.024169
45.492,64.0001,-0.021752
45.506,64.0001,-0.024169
45.523,64.0001,-0.021752
45.537,64.0001,-0.022961
45.554,64.0001,-0.019335
45.570,64.0001,-0.029003
45.592,64.0001,-0.025377
45.609,64.0001,-0.025377
45.624,64.0001,-0.026586
45.639,64.0001,-0.021752
45.650,64.0001,-0.018127
45.665,64.0001,-0.020544
45.681,64.0001,-0.025377
45.698,64.0001,-0.025377
45.718,64.0001,-0.029003
45.730,64.0001,-0.027794
45.746,64.0001,-0.029003
45.761,64.0001,-0.018127
45.778,64.0001,-0.019335
45.793,64.0001,-0.026586
45.810,64.0001,-0.024169
45.834,64.0001,-0.022961
45.856,64.0001,-0.026586
45.874,64.0001,-0.020544
45.889,64.0001,-0.021752
45.905,64.0001,-0.020544
45.922,64.0001,-0.022961
45.937,64.0001,-0.024169
45.955,64.0001,-0.025377
45.969,64.0001,-0.026586
45.986,64.0001,-0.022961
46.001,64.0001,-0.024169
46.018,64.0001,-0.022961
46.033,64.0001,-0.025377
46.049,64.0001,-0.025377
46.065,64.0001,-0.020544
46.083,64.0001,-0.020544
46.098,64.0001,-0.021752
46.113,64.0001,-0.019335
46.129,64.0001,-0.020544
46.146,64.0001,-0.024169
46.161,64.0001,-0.025377
46.177,64.0001,-0.025377
46.193,64.0001,-0.021752
46.209,64.0001,-0.021752
46.226,64.0001,-0.024169
46.241,64.0001,-0.024169
46.258,64.0001,-0.022961
46.273,64.0001,-0.027794
46.289,64.0001,-0.026586
46.305,64.0001,-0.026586
46.322,64.0001,-0.026586
46.337,64.0001,-0.022961
46.353,64.0001,-0.024169
46.380,64.0001,-0.026586
46.401,64.0001,-0.022961
46.412,64.0001,-0.021752
46.427,64.0001,-0.022961
46.443,64.0001,-0.029003
46.459,64.0001,-0.024169
46.476,64.0001,-0.026586
46.491,64.0001,-0.025377
46.511,64.0001,-0.024169
46.524,64.0001,-0.025377
46.540,64.0001,-0.021752
46.555,64.0001,-0.019335
46.574,64.0001,-0.022961
46.587,64.0001,-0.021752
46.603,64.0001,-0.020544
46.619,64.0001,-0.020544
46.636,64.0001,-0.019335
46.652,64.0001,-0.016918
46.667,64.0001,-0.018127
46.683,64.0001,-0.025377
46.699,64.0001,-0.026586
46.715,64.0001,-0.022961
46.730,64.0001,-0.021752
46.748,64.0001,-0.021752
46.763,64.0001,-0.014501
46.779,64.0001,-0.014501
46.795,64.0001,-0.019335
46.812,64.0001,-0.019335
46.827,64.0001,-0.024169
46.844,64.0001,-0.025377
46.859,64.0001,-0.025377
46.877,64.0001,-0.030211
46.891,64.0001,-0.029003
46.907,64.0001,-0.018127
46.938,64.0001,-0.021752
46.954,64.0001,-0.019335
46.969,64.0001,-0.025377
46.985,64.0001,-0.022961
47.001,64.0001,-0.022961
47.017,64.0001,-0.022961
47.036,64.0001,-0.021752
47.049,64.0001,-0.022961
47.065,64.0001,-0.026586
47.082,64.0001,-0.025377
47.097,64.0001,-0.021752
47.113,64.0001,-0.026586
47.130,64.0001,-0.020544
47.145,64.0001,-0.022961
47.161,64.0001,-0.019335
47.177,64.0001,-0.021752
47.194,64.0001,-0.021752
47.209,64.0001,-0.025377
47.225,64.0001,-0.029003
47.241,64.0001,-0.026586
47.257,64.0001,-0.024169
47.273,64.0001,-0.027794
47.289,64.0001,-0.015710
47.305,64.0001,-0.020544
47.320,64.0001,-0.021752
47.337,64.0001,-0.020544
47.352,64.0001,-0.027794
47.374,64.0001,-0.020544
47.385,64.0001,-0.021752
47.401,64.0001,-0.019335
47.416,64.0001,-0.022961
47.433,64.0001,-0.024169
47.448,64.0001,-0.024169
47.466,64.0001,-0.024169
47.489,64.0001,-0.024169
47.505,64.0001,-0.024169
47.521,64.0001,-0.020544
47.537,64.0001,-0.019335
47.557,64.0001,-0.024169
47.570,64.0001,-0.022961
47.586,64.0001,-0.021752
47.602,64.0001,-0.020544
47.618,64.0001,-0.020544
47.633,64.0001,-0.021752
47.651,64.0001,-0.025377
47.665,64.0001,-0.024169
47.684,64.0001,-0.021752
47.697,64.0001,-0.021752
47.714,64.0001,-0.024169
47.729,64.0001,-0.024169
47.747,64.0001,-0.019335
47.762,64.0001,-0.016918
47.778,64.0001,-0.016918
47.794,64.0001,-0.024169
47.811,64.0001,-0.024169
47.825,64.0001,-0.024169
47.841,64.0001,-0.021752
47.858,64.0001,-0.018127
47.877,64.0001,-0.020544
47.890,64.0001,-0.020544
47.907,64.0001,-0.018127
47.921,64.0001,-0.020544
47.937,64.0001,-0.018127
47.954,64.0001,-0.022961
47.969,64.0001,-0.022961
47.985,64.0001,-0.020544
48.002,64.0001,-0.020544
48.018,64.0001,-0.026586
48.048,64.0001,-0.021752
48.064,64.0001,-0.018127
48.080,64.0001,-0.019335
48.095,64.0001,-0.026586
48.112,64.0001,-0.016918
48.128,64.0001,-0.019335
48.143,64.0001,-0.021752
48.159,64.0001,-0.024169
48.176,64.0001,-0.021752
48.191,64.0001,-0.022961
48.209,64.0001,-0.022961
48.223,64.0001,-0.019335
48.240,64.0001,-0.021752
48.256,64.0001,-0.019335
48.271,64.0001,-0.025377
48.287,64.0001,-0.025377
48.304,64.0001,-0.020544
48.319,64.0001,-0.022961
48.335,64.0001,-0.020544
48.351,64.0001,-0.022961
48.367,64.0001,-0.021752
48.383,64.0001,-0.018127
48.399,64.0001,-0.020544
48.415,64.0001,-0.019335
48.433,64.0001,-0.020544
48.447,64.0001,-0.021752
48.463,64.0001,-0.022961
48.481,64.0001,-0.022961
48.495,64.0001,-0.024169
48.511,64.0001,-0.024169
48.527,64.0001,-0.024169
48.543,64.0001,-0.019335
48.559,64.0001,-0.022961
48.575,64.0001,-0.014501
48.598,64.0001,-0.018127
48.614,64.0001,-0.025377
48.629,64.0001,-0.025377
48.645,64.0001,-0.019335
48.668,64.0001,-0.025377
48.680,64.0001,-0.021752
48.693,64.0001,-0.020544
48.709,64.0001,-0.020544
48.726,64.0001,-0.024169
48.742,64.0001,-0.026586
48.757,64.0001,-0.016918
48.782,64.0001,-0.016918
48.804,64.0001,-0.021752
48.823,64.0001,-0.022961
48.837,64.0001,-0.022961
48.853,64.0001,-0.026586
48.869,64.0001,-0.026586
48.885,64.0001,-0.022961
48.906,64.0001,-0.024169
48.917,64.0001,-0.016918
48.933,64.0001,-0.019335
48.949,64.0001,-0.019335
48.966,64.0001,-0.020544
48.981,64.0001,-0.021752
48.997,64.0001,-0.021752
49.013,64.0001,-0.020544
49.031,64.0001,-0.020544
49.045,64.0001,-0.018127
49.061,64.0001,-0.018127
49.077,64.0001,-0.021752
49.093,64.0001,-0.018127
49.109,64.0001,-0.021752
49.125,64.0001,-0.021752
49.140,64.0001,-0.020544
49.156,64.0001,-0.021752
49.175,64.0001,-0.021752
49.189,64.0001,-0.021752
49.205,64.0001,-0.025377
49.221,64.0001,-0.020544
49.237,64.0001,-0.022961
49.253,64.0001,-0.019335
49.274,64.0001,-0.019335
49.286,64.0001,-0.019335
49.301,64.0001,-0.025377
49.317,64.0001,-0.020544
49.333,64.0001,-0.025377
49.349,64.0001,-0.024169
49.365,64.0001,-0.024169
49.381,64.0001,-0.016918
49.397,64.0001,-0.020544
49.413,64.0001,-0.030211
49.429,64.0001,-0.031420
49.444,64.0001,-0.026586
49.460,64.0001,-0.019335
49.477,64.0001,-0.020544
49.493,64.0001,-0.019335
49.510,64.0001,-0.019335
49.524,64.0001,-0.018127
49.541,64.0001,-0.018127
49.557,64.0001,-0.022961
49.572,64.0001,-0.022961
49.589,64.0001,-0.022961
49.605,64.0001,-0.025377
49.620,64.0001,-0.019335
49.637,64.0001,-0.019335
49.654,64.0001,-0.022961
49.684,64.0001,-0.021752
49.700,64.0001,-0.021752
49.715,64.0001,-0.019335
49.731,64.0001,-0.013293
49.756,64.0001,-0.016918
49.778,64.0001,-0.018127
49.797,64.0001,-0.026586
49.812,64.0001,-0.021752
49.829,64.0001,-0.022961
49.844,64.0001,-0.016918
49.859,64.0001,-0.020544
49.876,64.0001,-0.020544
49.892,64.0001,-0.025377
49.907,64.0001,-0.021752
49.923,64.0001,-0.021752
49.939,64.0001,-0.021752
49.955,64.0001,-0.013293
49.971,64.0001,-0.015710
49.987,64.0001,-0.015710
50.003,64.0001,-0.019335
50.019,64.0001,-0.019335
50.036,64.0001,-0.019335
50.052,64.0001,-0.025377
50.068,64.0001,-0.025377
50.083,64.0001,-0.020544
50.100,64.0001,-0.026586
50.116,64.0001,-0.019335
50.132,64.0001,-0.020544
50.147,64.0001,-0.020544
50.166,64.0001,-0.021752
50.180,64.0001,-0.022961
50.196,64.0001,-0.015710
50.226,64.0001,-0.018127
50.242,64.0001,-0.021752
50.258,64.0001,-0.021752
50.273,64.0001,-0.020544
50.291,64.0001,-0.020544
50.305,64.0001,-0.020544
50.321,64.0001,-0.021752
50.338,64.0001,-0.021752
50.354,64.0001,-0.022961
50.369,64.0001,-0.024169
50.387,64.0001,-0.024169
50.401,64.0001,-0.021752
50.418,64.0001,-0.024169
50.434,64.0001,-0.024169
50.449,64.0001,-0.024169
50.465,64.0001,-0.016918
50.482,64.0001,-0.019335
50.498,64.0001,-0.019335
50.513,63.9975,-0.019335
50.530,63.9684,-0.019335
50.545,63.9413,-0.013293
50.561,63.9140,-0.007251
50.578,63.8846,-0.007251
50.593,63.8568,0.002417
50.610,63.8289,0.002417
50.625,63.8029,0.010876
50.644,63.7699,0.012084
50.657,63.7471,0.024169
50.673,63.7184,0.025377
50.689,63.6919,0.026586
50.706,63.6622,0.031420
50.721,63.6363,0.035045
50.739,63.6043,0.042296
50.764,63.5608,0.045921
50.780,63.5344,0.045921
50.795,63.5071,0.049546
50.811,63.4800,0.049546
50.835,63.4367,0.059214
50.857,63.4007,0.071298
50.875,63.3693,0.071298
50.896,63.3297,0.074924
50.908,63.3109,0.080966
50.923,63.2847,0.084591
50.941,63.2543,0.088217
50.955,63.2291,0.095467
50.971,63.2018,0.097884
50.987,63.1746,0.101510
51.003,63.1459,0.101510
51.019,63.1186,0.109969
51.035,63.0912,0.113594
51.051,63.0634,0.116011
51.068,63.0331,0.116011
51.084,63.0058,0.126887
51.099,62.9792,0.126887
51.115,62.9526,0.132929
51.131,62.9239,0.137763
51.147,62.8967,0.142597
51.163,62.8680,0.141388
51.180,62.8386,0.147431
51.195,62.8134,0.153473
51.211,62.7857,0.167974
51.228,62.7565,0.167974
51.243,62.7292,0.169183
51.259,62.7019,0.170391
51.289,62.6503,0.182476
51.305,62.6225,0.182476
51.321,62.5951,0.182476
51.337,62.5673,0.186101
51.353,62.5382,0.189726
51.370,62.5099,0.189726
51.385,62.4840,0.194560
51.401,62.4552,0.192143
51.419,62.4237,0.189726
51.434,62.3989,0.192143
51.450,62.3710,0.192143
51.465,62.3451,0.192143
51.482,62.3140,0.192143
51.497,62.2874,0.176433
51.513,62.2601,0.176433
51.529,62.2324,0.169183
51.547,62.2022,0.159515
51.561,62.1780,0.155890
51.577,62.1506,0.140180
51.593,62.1223,0.126887
51.609,62.0947,0.112386
51.625,62.0669,0.088217
51.641,62.0388,0.067673
51.657,62.0113,0.031420
51.673,61.9834,0.007251
51.689,61.9558,0.007251
51.705,61.9268,0.008459
51.723,61.8964,0.004834
51.737,61.8716,0.002417
51.753,61.8443,0.003625
51.769,61.8159,0.003625
51.786,61.7864,0.004834
51.800,61.7617,0.002417
51.816,61.7335,0.002417
51.845,61.6827,0.002417
51.861,61.6558,0.003625
51.877,61.6281,0.000000
51.894,61.5998,0.001208
51.910,61.5695,0.000000
51.926,61.5443,0.004834
51.944,61.5122,0.001208
51.957,61.4893,0.000000
51.973,61.4611,-0.001208
51.989,61.4338,-0.002417
52.008,61.4019,-0.003625
52.021,61.3785,0.002417
52.037,61.3503,0.002417
52.053,61.3229,-0.003625
52.069,61.2951,-0.007251
52.085,61.2675,-0.002417
52.102,61.2379,0.003625
52.118,61.2107,0.003625
52.134,61.1822,0.000000
52.149,61.1562,0.002417
52.166,61.1276,0.003625
52.181,61.1008,0.000000
52.197,61.0730,0.000000
52.213,61.0438,0.003625
52.233,61.0105,0.007251
52.247,60.9858,0.001208
52.262,60.9594,0.000000
52.277,60.9342,0.003625
52.294,60.9032,-0.001208
52.310,60.8775,0.003625
52.325,60.8506,0.002417
52.342,60.8222,0.007251
52.358,60.7941,0.004834
52.389,60.7392,0.000000
52.404,60.7139,0.000000
52.421,60.6842,-0.003625
52.436,60.6581,0.001208
52.453,60.6277,0.000000
52.468,60.6011,0.001208
52.484,60.5747,0.002417
52.501,60.5460,-0.004834
52.516,60.5186,0.000000
52.534,60.4871,-0.002417
52.548,60.4635,0.001208
52.566,60.4329,0.000000
52.581,60.4065,0.000000
52.596,60.3804,0.004834
52.612,60.3525,0.000000
52.628,60.3246,-0.002417
52.644,60.2962,-0.004834
52.660,60.2691,0.000000
52.676,60.2414,0.000000
52.692,60.2135,0.003625
52.708,60.1855,0.000000
52.724,60.1581,0.001208
52.740,60.1302,-0.001208
52.756,60.1024,-0.003625
52.772,60.0746,-0.004834
52.788,60.0457,-0.004834
52.810,60.0087,0.001208
52.834,59.9666,-0.001208
52.852,59.9359,0.002417
52.868,59.9078,-0.002417
52.885,59.8778,-0.001208
52.900,59.8530,0.001208
52.923,59.8129,-0.004834
52.939,59.7836,0.004834
52.955,59.7570,0.000000
52.971,59.7292,0.003625
52.987,59.7018,0.007251
53.003,59.6728,0.001208
53.019,59.6442,0.001208
53.035,59.6184,0.001208
53.051,59.5905,0.003625
53.068,59.5609,0.004834
53.083,59.5341,0.006042
53.100,59.5055,0.004834
53.116,59.4777,0.000000
53.131,59.4516,0.003625
53.147,59.4237,0.006042
53.165,59.3915,0.000000
53.180,59.3665,-0.002417
53.195,59.3405,0.001208
53.211,59.3127,0.002417
53.228,59.2827,0.001208
53.243,59.2563,0.006042
53.259,59.2296,0.003625
53.275,59.2018,-0.001208
53.291,59.1733,-0.006042
53.307,59.1450,0.001208
53.324,59.1168,0.002417
53.338,59.0910,0.002417
53.355,59.0613,0.000000
53.371,59.0335,0.002417
53.387,59.0074,0.001208
53.405,58.9735,0.004834
53.420,58.9501,0.001208
53.435,58.9240,-0.001208
53.451,58.8964,0.000000
53.472,58.8599,0.003625
53.488,58.8314,0.000000
53.504,58.8034,-0.001208
53.520,58.7766,0.003625
53.538,58.7448,0.001208
53.552,58.7190,-0.003625
53.568,58.6925,-0.001208
53.584,58.6646,0.001208
53.600,58.6380,0.001208
53.617,58.6076,0.000000
53.632,58.5822,-0.002417
53.650,58.5500,-0.003625
53.665,58.5239,-0.001208
53.680,58.4968,-0.001208
53.696,58.4713,0.000000
53.715,58.4360,0.001208
53.728,58.4132,0.000000
53.744,58.3865,-0.001208
53.760,58.3600,-0.002417
53.776,58.3312,0.001208
53.791,58.3044,-0.001208
53.809,58.2735,-0.001208
53.824,58.2472,0.000000
53.840,58.2195,-0.007251
53.856,58.1928,0.001208
53.871,58.1659,-0.001208
53.887,58.1382,0.000000
53.905,58.1068,0.000000
53.919,58.0813,0.000000
53.935,58.0549,-0.003625
53.952,58.0250,0.006042
53.968,57.9970,0.006042
53.983,57.9715,0.004834
54.007,57.9501,0.002417
54.023,57.9501,0.006042
54.039,57.9501,-0.001208
54.055,57.9501,-0.003625
54.073,57.9501,0.002417
54.086,57.9501,-0.001208
54.103,57.9501,-0.002417
54.118,57.9501,0.000000
54.135,57.9501,0.006042
54.150,57.9501,0.006042
54.166,57.9501,-0.002417
54.184,57.9501,0.000000
54.199,57.9501,0.000000
54.214,57.9501,-0.001208
54.234,57.9501,-0.001208
54.247,57.9501,0.001208
54.262,57.9501,-0.003625
54.278,57.9501,-0.001208
54.297,57.9501,-0.004834
54.311,57.9501,-0.002417
54.327,57.9501,0.004834
54.342,57.9501,0.002417
54.363,57.9501,0.002417
54.374,57.9501,0.006042
54.391,57.9501,0.001208
54.406,57.9501,-0.001208
54.423,57.9501,0.000000
54.438,57.9501,0.003625
54.454,57.9501,0.006042
54.470,57.9501,0.006042
54.487,57.9501,0.002417
54.503,57.9501,0.002417
54.518,57.9501,0.001208
54.541,57.9501,0.002417
54.558,57.9705,-0.003625
54.574,57.9978,-0.012084
54.589,58.0251,-0.004834
54.606,58.0543,-0.007251
54.622,58.0824,-0.002417
54.637,58.1082,-0.002417
54.658,58.1447,-0.001208
54.669,58.1643,0.002417
54.685,58.1924,0.003625
54.701,58.2196,0.006042
54.718,58.2501,0.002417
54.733,58.2758,0.000000
54.749,58.3027,0.004834
54.765,58.3305,0.001208
54.781,58.3595,-0.001208
54.797,58.3864,0.004834
54.813,58.4137,0.003625
54.829,58.4432,-0.001208
54.845,58.4700,-0.003625
54.862,58.4996,0.000000
54.877,58.5248,0.007251
54.896,58.5583,0.000000
54.910,58.5828,0.003625
54.925,58.6086,0.001208
54.941,58.6363,0.003625
54.958,58.6653,0.002417
54.973,58.6922,0.003625
54.989,58.7193,0.002417
55.007,58.7521,0.003625
55.021,58.7757,-0.001208
55.039,58.8066,-0.003625
55.064,58.8499,-0.003625
55.079,58.8767,0.003625
55.095,58.9044,0.000000
55.111,58.9318,0.002417
55.128,58.9617,0.000000
55.143,58.9863,0.004834
55.160,59.0167,0.000000
55.175,59.0421,0.003625
55.191,59.0703,0.003625
55.207,59.0980,0.003625
55.223,59.1264,0.002417
55.240,59.1548,-0.002417
55.256,59.1836,0.000000
55.271,59.2087,0.003625
55.287,59.2366,-0.002417
55.305,59.2683,-0.006042
55.319,59.2918,-0.006042
55.335,59.3209,-0.004834
55.351,59.3473,0.000000
55.369,59.3788,0.000000
55.383,59.4034,-0.004834
55.399,59.4309,0.000000
55.422,59.4717,0.002417
55.435,59.4943,-0.007251
55.447,59.5143,-0.003625
55.463,59.5420,0.000000
55.482,59.5776,0.000000
55.495,59.5976,-0.001208
55.511,59.6260,-0.001208
55.526,59.6528,0.003625
55.543,59.6828,-0.003625
55.559,59.7097,0.001208
55.575,59.7363,0.003625
55.599,59.7786,-0.002417
55.614,59.8047,-0.001208
55.630,59.8326,-0.002417
55.645,59.8593,-0.004834
55.662,59.8889,-0.003625
55.678,59.9155,-0.001208
55.694,59.9439,0.001208
55.709,59.9704,0.003625
55.726,59.9996,-0.001208
55.743,60.0278,-0.001208
55.757,60.0538,0.002417
55.773,60.0815,0.003625
55.790,60.1106,0.000000
55.806,60.1381,-0.004834
55.822,60.1650,-0.004834
55.838,60.1940,-0.008459
55.853,60.2202,0.002417
55.869,60.2482,0.004834
55.886,60.2784,-0.002417
55.901,60.3035,-0.003625
55.919,60.3349,-0.003625
55.934,60.3607,-0.001208
55.950,60.3901,-0.001208
55.966,60.4168,0.001208
55.982,60.4432,0.001208
55.998,60.4718,0.006042
56.014,60.4993,0.002417
56.029,60.5265,0.002417
56.045,60.5537,-0.003625
56.062,60.5832,-0.007251
56.077,60.6099,-0.007251
56.093,60.6368,-0.002417
56.119,60.6824,-0.002417
56.136,60.7113,-0.001208
56.152,60.7405,0.000000
56.167,60.7653,0.002417
56.187,60.8024,0.004834
56.199,60.8212,-0.001208
56.216,60.8506,0.001208
56.231,60.8763,-0.003625
56.249,60.9068,-0.003625
56.263,60.9320,-0.006042
56.279,60.9598,-0.009668
56.295,60.9874,0.000000
56.312,61.0174,0.004834
56.327,61.0435,0.000000
56.343,61.0711,0.000000
56.362,61.1041,0.000000
56.376,61.1272,-0.001208
56.391,61.1552,-0.007251
56.407,61.1818,-0.004834
56.424,61.2109,-0.003625
56.439,61.2374,0.000000
56.455,61.2652,-0.004834
56.472,61.2951,-0.004834
56.487,61.3220,-0.006042
56.503,61.3486,-0.002417
56.519,61.3772,0.000000
56.537,61.4080,0.002417
56.552,61.4331,0.000000
56.569,61.4639,0.000000
56.583,61.4891,-0.002417
56.600,61.5170,-0.003625
56.616,61.5438,-0.001208
56.631,61.5711,-0.007251
56.647,61.5988,-0.007251
56.664,61.6281,0.002417
56.681,61.6570,-0.003625
56.695,61.6817,-0.004834
56.711,61.7100,-0.004834
56.728,61.7399,0.001208
56.743,61.7652,-0.001208
56.760,61.7952,-0.002417
56.776,61.8223,0.000000
56.792,61.8501,0.000000
56.807,61.8776,0.001208
56.824,61.9067,-0.002417
56.838,61.9317,-0.002417
56.855,61.9596,-0.003625
56.876,61.9982,-0.002417
56.889,62.0178,-0.004834
56.903,62.0451,-0.004834
56.919,62.0706,-0.004834
56.935,62.1003,-0.004834
56.952,62.1281,-0.004834
56.967,62.1540,-0.004834
56.984,62.1836,-0.007251
57.003,62.2183,0.000000
57.015,62.2379,-0.002417
57.032,62.2678,-0.004834
57.047,62.2929,-0.002417
57.064,62.3255,-0.008459
57.079,62.3481,-0.008459
57.095,62.3761,-0.004834
57.111,62.4049,-0.003625
57.131,62.4392,-0.003625
57.144,62.4623,-0.002417
57.159,62.4887,-0.007251
57.187,62.5360,-0.001208
57.204,62.5660,0.002417
57.219,62.5928,0.000000
57.234,62.6189,-0.004834
57.251,62.6476,-0.004834
57.267,62.6750,-0.008459
57.283,62.7025,-0.006042
57.299,62.7318,-0.004834
57.315,62.7591,-0.006042
57.331,62.7864,-0.004834
57.347,62.8134,-0.002417
57.363,62.8412,-0.003625
57.379,62.8690,-0.008459
57.395,62.8979,-0.004834
57.411,62.9244,-0.004834
57.435,62.9682,-0.009668
57.449,62.9913,-0.008459
57.460,63.0095,-0.003625
57.475,63.0357,-0.001208
57.492,63.0668,-0.006042
57.508,63.0942,-0.007251
57.524,63.1211,-0.006042
57.539,63.1468,-0.006042
57.556,63.1765,-0.009668
57.571,63.2026,-0.015710
57.587,63.2300,-0.009668
57.603,63.2580,-0.018127
57.619,63.2877,-0.018127
57.635,63.3137,-0.014501
57.651,63.3410,-0.019335
57.667,63.3698,-0.016918
57.683,63.3988,-0.016918
57.699,63.4250,-0.016918
57.715,63.4523,-0.020544
57.738,63.4947,-0.022961
57.755,63.5216,-0.025377
57.770,63.5490,-0.029003
57.786,63.5754,-0.026586
57.803,63.6062,-0.029003
57.818,63.6326,-0.029003
57.834,63.6601,-0.037462
57.850,63.6864,-0.038670
57.866,63.7156,-0.038670
57.882,63.7430,-0.033837
57.897,63.7699,-0.038670
57.914,63.7998,-0.044713
57.934,63.8331,-0.043504
57.946,63.8550,-0.050755
57.963,63.8831,-0.059214
57.977,63.9084,-0.058005
57.993,63.9376,-0.059214
58.011,63.9501,-0.059214
58.025,63.9501,-0.058005
58.043,63.9501,-0.055589
58.058,63.9501,-0.049546
58.073,63.9501,-0.054380
58.089,63.9501,-0.051963
58.107,63.9501,-0.048338
58.123,63.9501,-0.056797
58.137,63.9501,-0.056797
58.154,63.9501,-0.048338
58.171,63.9501,-0.048338
58.186,63.9501,-0.043504
58.201,63.9501,-0.048338
58.218,63.9501,-0.054380
58.238,63.9501,-0.049546
58.250,63.9501,-0.048338
58.265,63.9501,-0.048338
58.291,63.9501,-0.047129
58.307,63.9501,-0.045921
58.323,63.9501,-0.041087
58.339,63.9501,-0.048338
58.357,63.9501,-0.050755
58.372,63.9501,-0.042296
58.388,63.9501,-0.039879
58.403,63.9501,-0.037462
58.420,63.9501,-0.043504
58.435,63.9501,-0.037462
58.451,63.9501,-0.045921
58.468,63.9501,-0.042296
58.484,63.9501,-0.045921
58.500,63.9501,-0.045921
58.515,63.9501,-0.045921
58.531,63.9501,-0.041087
58.548,63.9501,-0.039879
58.564,63.9501,-0.049546
58.579,63.9501,-0.039879
58.596,63.9501,-0.039879
58.611,63.9501,-0.035045
58.630,63.9501,-0.042296
