Elapsed Time (s),Position (mm),Force (N)
-0.020,59.0999,-0.026586
0.000,59.0999,-0.035045
0.012,59.0999,-0.025377
0.029,59.0999,-0.027794
0.044,59.0999,-0.022961
0.060,59.0999,-0.029003
0.076,59.0999,-0.026586
0.092,59.0999,-0.025377
0.108,59.0999,-0.026586
0.125,59.0999,-0.026586
0.141,59.0999,-0.022961
0.156,59.0999,-0.026586
0.172,59.0999,-0.021752
0.188,59.0999,-0.022961
0.205,59.0999,-0.016918
0.223,59.0999,-0.016918
0.246,59.0999,-0.025377
0.262,59.0999,-0.024169
0.278,59.0999,-0.018127
0.294,59.0999,-0.020544
0.310,59.0999,-0.024169
0.327,59.0999,-0.019335
0.346,59.0999,-0.019335
0.358,59.0999,-0.021752
0.374,59.0999,-0.021752
0.390,59.0999,-0.018127
0.406,59.0999,-0.022961
0.422,59.0999,-0.022961
0.438,59.0999,-0.018127
0.454,59.0999,-0.018127
0.470,59.0999,-0.024169
0.486,59.0999,-0.020544
0.502,59.0999,-0.020544
0.518,59.0999,-0.019335
0.535,59.0999,-0.019335
0.549,59.0999,-0.020544
0.566,59.0999,-0.020544
0.581,59.0999,-0.018127
0.605,59.0999,-0.020544
0.616,59.0999,-0.024169
0.631,59.0999,-0.018127
0.647,59.0999,-0.018127
0.662,59.0999,-0.016918
0.678,59.0999,-0.016918
0.695,59.0999,-0.019335
0.710,59.0999,-0.019335
0.729,59.0999,-0.018127
0.742,59.0999,-0.013293
0.758,59.0999,-0.018127
0.774,59.0999,-0.015710
0.796,59.0999,-0.015710
0.812,59.0999,-0.015710
0.828,59.0999,-0.012084
0.844,59.0999,-0.016918
0.860,59.0999,-0.014501
0.876,59.0999,-0.019335
0.892,59.0999,-0.016918
0.908,59.0999,-0.024169
0.928,59.0999,-0.024169
0.941,59.0999,-0.014501
0.956,59.0999,-0.019335
0.972,59.0999,-0.020544
0.989,59.0999,-0.014501
1.004,59.0999,-0.014501
1.019,59.0999,-0.019335
1.036,59.0999,-0.016918
1.053,59.0999,-0.015710
1.068,59.0999,-0.012084
1.086,59.0999,-0.012084
1.100,59.0999,-0.013293
1.116,59.0999,-0.013293
1.132,59.0999,-0.016918
1.148,59.0999,-0.019335
1.163,59.0999,-0.018127
1.180,59.0999,-0.013293
1.196,59.0999,-0.013293
1.211,59.0999,-0.015710
1.234,59.0999,-0.015710
1.245,59.0999,-0.021752
1.260,59.0999,-0.020544
1.275,59.0999,-0.020544
1.293,59.0999,-0.018127
1.308,59.0999,-0.013293
1.325,59.0999,-0.015710
1.353,59.0999,-0.016918
1.369,59.0999,-0.014501
1.385,59.0999,-0.014501
1.401,59.0999,-0.014501
1.418,59.0999,-0.010876
1.434,59.0999,-0.014501
1.450,59.0999,-0.014501
1.465,59.0999,-0.019335
1.483,59.0999,-0.019335
1.497,59.0999,-0.022961
1.514,59.0999,-0.025377
1.529,59.0999,-0.013293
1.545,59.0999,-0.015710
1.561,59.0999,-0.012084
1.577,59.0999,-0.015710
1.593,59.0999,-0.015710
1.609,59.0999,-0.021752
1.626,59.0999,-0.021752
1.641,59.0999,-0.013293
1.666,59.0999,-0.015710
1.677,59.0999,-0.015710
1.689,59.0999,-0.010876
1.706,59.0999,-0.021752
1.721,59.0999,-0.014501
1.738,59.0999,-0.016918
1.754,59.0999,-0.012084
1.769,59.0999,-0.015710
1.787,59.0999,-0.015710
1.801,59.0999,-0.014501
1.819,59.0999,-0.015710
1.833,59.0999,-0.018127
1.850,59.0999,-0.010876
1.867,59.0999,-0.010876
1.882,59.0999,-0.008459
1.909,59.0999,-0.016918
1.925,59.0999,-0.015710
1.941,59.0999,-0.020544
1.957,59.0999,-0.015710
1.973,59.0999,-0.015710
1.989,59.0999,-0.012084
2.007,59.0999,-0.012084
2.020,59.0999,-0.018127
2.037,59.0999,-0.012084
2.052,59.0999,-0.012084
2.068,59.0999,-0.010876
2.088,59.0999,-0.014501
2.100,59.0999,-0.014501
2.116,59.0999,-0.015710
2.132,59.0999,-0.012084
2.149,59.0999,-0.013293
2.164,59.0999,-0.010876
2.182,59.0999,-0.018127
2.197,59.0999,-0.018127
2.212,59.0999,-0.012084
2.228,59.0999,-0.009668
2.244,59.0999,-0.010876
2.261,59.0999,-0.012084
2.277,59.0999,-0.010876
2.292,59.0999,-0.013293
2.308,59.0999,-0.014501
2.325,59.0999,-0.012084
2.340,59.0999,-0.010876
2.357,59.0999,-0.010876
2.372,59.0999,-0.012084
2.389,59.0999,-0.020544
2.405,59.0999,-0.013293
2.420,59.0999,-0.014501
2.436,59.0999,-0.013293
2.453,59.0999,-0.013293
2.468,59.0999,-0.012084
2.484,59.0999,-0.012084
2.500,59.0999,-0.014501
2.516,59.0999,-0.018127
2.533,59.0999,-0.018127
2.548,59.0999,-0.012084
2.566,59.0999,-0.007251
2.581,59.0999,-0.012084
2.596,59.0999,-0.013293
2.612,59.0999,-0.020544
2.634,59.0999,-0.019335
2.657,59.0999,-0.010876
2.676,59.0999,-0.009668
2.692,59.0999,-0.009668
2.708,59.0999,-0.015710
2.725,59.0999,-0.016918
2.740,59.0999,-0.013293
2.757,59.0999,-0.018127
2.772,59.0999,-0.018127
2.789,59.0999,-0.012084
2.804,59.0999,-0.014501
2.820,59.0999,-0.015710
2.836,59.0999,-0.018127
2.852,59.0999,-0.018127
2.868,59.0999,-0.013293
2.884,59.0999,-0.014501
2.900,59.0999,-0.013293
2.916,59.0999,-0.013293
2.932,59.0999,-0.013293
2.948,59.0999,-0.015710
2.964,59.0999,-0.012084
2.980,59.0999,-0.008459
2.996,59.0999,-0.010876
3.012,59.0999,-0.013293
3.028,59.0999,-0.012084
3.044,59.0999,-0.009668
3.060,59.0999,-0.014501
3.077,59.0999,-0.014501
3.092,59.0999,-0.015710
3.108,59.0999,-0.016918
3.124,59.0999,-0.010876
3.141,59.0999,-0.013293
3.156,59.0999,-0.018127
3.172,59.0999,-0.018127
3.188,59.0999,-0.015710
3.205,59.0999,-0.015710
3.220,59.0999,-0.014501
3.235,59.0999,-0.003625
3.252,59.0999,-0.003625
3.268,59.0999,-0.007251
3.285,59.0999,-0.016918
3.299,59.0999,-0.012084
3.316,59.0999,-0.014501
3.332,59.0999,-0.013293
3.348,59.0999,-0.006042
3.365,59.0999,-0.006042
3.380,59.0999,-0.010876
3.396,59.0999,-0.012084
3.412,59.0999,-0.016918
3.430,59.0999,-0.013293
3.444,59.0999,-0.014501
3.460,59.0999,-0.013293
3.476,59.0999,-0.008459
3.492,59.0999,-0.006042
3.508,59.0999,-0.009668
3.523,59.0999,-0.012084
3.555,59.0999,-0.007251
3.572,59.0999,-0.016918
3.588,59.0999,-0.019335
3.603,59.0999,-0.020544
3.621,59.0999,-0.019335
3.635,59.0999,-0.019335
3.652,59.0999,-0.019335
3.668,59.0999,-0.020544
3.684,59.0999,-0.020544
3.700,59.0999,-0.013293
3.716,59.0999,-0.013293
3.731,59.0999,-0.010876
3.748,59.0999,-0.008459
3.763,59.0999,-0.014501
3.779,59.0999,-0.008459
3.796,59.0999,-0.010876
3.812,59.0999,-0.014501
3.828,59.0999,-0.012084
3.843,59.0999,-0.015710
3.862,59.0999,-0.015710
3.875,59.0999,-0.020544
3.891,59.0999,-0.014501
3.907,59.0999,-0.007251
3.925,59.0999,-0.007251
3.940,59.0999,-0.010876
3.956,59.0999,-0.013293
3.971,59.0999,-0.013293
3.988,59.0999,-0.012084
4.003,59.0999,-0.012084
4.020,59.0999,-0.015710
4.035,59.0999,-0.014501
4.053,59.0999,-0.010876
4.068,59.0999,-0.009668
4.086,59.0999,-0.009668
4.111,59.0999,-0.015710
4.127,59.0999,-0.009668
4.143,59.0999,-0.009668
4.159,59.0999,-0.006042
4.175,59.0999,-0.006042
4.191,59.0999,-0.012084
4.209,59.0999,-0.020544
4.222,59.0999,-0.020544
4.239,59.0999,-0.012084
4.254,59.0999,-0.012084
4.270,59.0999,-0.010876
4.287,59.0999,-0.010876
4.302,59.0999,-0.016918
4.318,59.0999,-0.014501
4.334,59.0999,-0.018127
4.353,59.0999,-0.013293
4.367,59.0999,-0.009668
4.382,59.0999,-0.010876
4.398,59.0999,-0.013293
4.415,59.0999,-0.012084
4.430,59.0999,-0.016918
4.446,59.0999,-0.014501
4.462,59.0999,-0.007251
4.479,59.0999,-0.012084
4.494,59.0999,-0.009668
4.511,59.0999,-0.009668
4.526,59.0999,-0.016918
4.542,59.0999,-0.012084
4.559,59.0999,-0.014501
4.574,59.0999,-0.014501
4.591,59.0999,-0.009668
4.606,59.0999,-0.015710
4.623,59.0999,-0.015710
4.647,59.0999,-0.015710
4.663,59.0999,-0.015710
4.679,59.0999,-0.009668
4.695,59.0999,-0.014501
4.713,59.0999,-0.014501
4.727,59.0999,-0.012084
4.743,59.0999,-0.010876
4.759,59.0999,-0.014501
4.775,59.0999,-0.010876
4.791,59.0999,-0.009668
4.807,59.0999,-0.013293
4.823,59.0999,-0.021752
4.839,59.0999,-0.013293
4.855,59.0999,-0.013293
4.871,59.0999,-0.006042
4.887,59.0999,-0.014501
4.903,59.0999,-0.018127
4.919,59.0999,-0.014501
4.935,59.0999,-0.014501
4.959,59.0999,-0.010876
4.983,59.0999,-0.014501
4.999,59.0999,-0.015710
5.016,59.0999,-0.013293
5.032,59.0999,-0.013293
5.047,59.0999,-0.008459
5.063,59.0999,-0.006042
5.082,59.0999,-0.008459
5.095,59.0999,-0.012084
5.111,59.0999,-0.019335
5.127,59.0999,-0.013293
5.145,59.0999,-0.013293
5.159,59.0999,-0.013293
5.175,59.0999,-0.004834
5.191,59.0999,-0.010876
5.215,59.0999,-0.015710
5.230,59.0999,-0.016918
5.246,59.0999,-0.015710
5.262,59.0999,-0.007251
5.278,59.0999,-0.003625
5.294,59.0999,-0.012084
5.310,59.0999,-0.013293
5.326,59.0999,-0.012084
5.342,59.0999,-0.012084
5.358,59.0999,-0.010876
5.374,59.0999,-0.008459
5.390,59.0999,-0.012084
5.407,59.0999,-0.018127
5.422,59.0999,-0.013293
5.438,59.0999,-0.006042
5.455,59.0999,-0.016918
5.470,59.0999,-0.012084
5.487,59.0999,-0.009668
5.502,59.0999,-0.012084
5.518,59.0999,-0.013293
5.535,59.0999,-0.014501
5.550,59.0999,-0.009668
5.567,59.0999,-0.009668
5.581,59.0999,-0.020544
5.599,59.0999,-0.016918
5.614,59.0999,-0.014501
5.630,59.0999,-0.004834
5.645,59.0999,-0.004834
5.661,59.0999,-0.010876
5.677,59.0999,-0.015710
5.693,59.0999,-0.012084
5.710,59.0999,-0.012084
5.726,59.0999,-0.014501
5.748,59.0999,-0.012084
5.764,59.0999,-0.012084
5.780,59.0999,-0.008459
5.796,59.0999,-0.010876
5.813,59.0999,-0.010876
5.829,59.0999,-0.004834
5.847,59.0999,-0.012084
5.860,59.0999,-0.012084
5.876,59.0999,-0.007251
5.893,59.0999,-0.007251
5.908,59.0999,-0.014501
5.927,59.0999,-0.014501
5.940,59.0999,-0.008459
5.956,59.0999,-0.010876
5.972,59.0999,-0.012084
5.989,59.0999,-0.012084
6.005,59.0999,-0.012084
6.021,59.0999,-0.018127
6.036,59.0999,-0.016918
6.053,59.0999,-0.009668
6.069,59.0999,-0.012084
6.084,59.0999,-0.012084
6.100,59.0999,-0.008459
6.117,59.0999,-0.008459
6.132,59.0999,-0.019335
6.149,59.0999,-0.018127
6.164,59.0999,-0.012084
6.182,59.0999,-0.008459
6.197,59.0999,-0.008459
6.212,59.0999,-0.014501
6.228,59.0999,-0.008459
6.245,59.0999,-0.013293
6.261,59.0999,-0.014501
6.277,59.0999,-0.013293
6.305,59.0999,-0.012084
6.321,59.0999,-0.006042
6.336,59.0999,-0.009668
6.353,59.0999,-0.009668
6.370,59.0999,-0.012084
6.385,59.0999,-0.016918
6.403,59.0999,-0.016918
6.416,59.0999,-0.014501
6.435,59.0999,-0.010876
6.448,59.0999,-0.013293
6.464,59.0999,-0.013293
6.480,59.0999,-0.013293
6.496,59.0999,-0.013293
6.513,59.0999,-0.007251
6.528,59.0999,-0.008459
6.545,59.0999,-0.008459
6.561,59.0999,-0.012084
6.577,59.0999,-0.015710
6.592,59.0999,-0.012084
6.609,59.0999,-0.007251
6.624,59.0999,-0.009668
6.640,59.0999,-0.012084
6.656,59.0999,-0.014501
6.673,59.0999,-0.014501
6.689,59.0999,-0.016918
6.705,59.0999,-0.010876
6.720,59.0999,-0.012084
6.737,59.0999,-0.010876
6.753,59.0999,-0.015710
6.768,59.0999,-0.013293
6.784,59.0999,-0.013293
6.801,59.0999,-0.015710
6.816,59.0999,-0.012084
6.832,59.0999,-0.008459
6.857,59.0999,-0.012084
6.872,59.0999,-0.006042
6.888,59.0999,-0.014501
6.904,59.0999,-0.008459
6.920,59.0999,-0.012084
6.936,59.0999,-0.009668
6.952,59.0999,-0.009668
6.968,59.0999,-0.018127
6.985,59.0999,-0.018127
7.000,59.0999,-0.014501
7.019,59.0999,-0.007251
7.032,59.0999,-0.007251
7.049,59.0999,-0.015710
7.064,59.0999,-0.015710
7.080,59.0999,-0.014501
7.096,59.0999,-0.008459
7.112,59.0999,-0.008459
7.128,59.0999,-0.004834
7.144,59.0999,-0.009668
7.161,59.0999,-0.015710
7.176,59.0999,-0.014501
7.192,59.0999,-0.006042
7.208,59.0999,-0.004834
7.228,59.0999,-0.010876
7.240,59.0999,-0.015710
7.256,59.0999,-0.014501
7.272,59.0999,-0.014501
7.290,59.0999,-0.012084
7.304,59.0999,-0.007251
7.320,59.0999,-0.004834
7.336,59.0999,-0.012084
7.352,59.0999,-0.012084
7.368,59.0999,-0.010876
7.384,59.0999,-0.008459
7.414,59.0999,-0.009668
7.430,59.0999,-0.015710
7.446,59.0999,-0.012084
7.462,59.0999,-0.012084
7.479,59.0999,-0.010876
7.494,59.0999,-0.010876
7.510,59.0999,-0.013293
7.526,59.0999,-0.013293
7.543,59.0999,-0.012084
7.558,59.0999,-0.010876
7.574,59.0999,-0.008459
7.593,59.0999,-0.002417
7.606,59.0999,-0.015710
7.622,59.0999,-0.010876
7.638,59.0999,-0.006042
7.654,59.0999,-0.010876
7.670,59.0999,-0.009668
7.686,59.0999,-0.013293
7.701,59.0999,-0.014501
7.719,59.0999,-0.012084
7.734,59.0999,-0.010876
7.750,59.0999,-0.006042
7.766,59.0999,-0.008459
7.782,59.0999,-0.006042
7.798,59.0999,-0.007251
7.813,59.0999,-0.013293
7.833,59.0999,-0.013293
7.846,59.0999,-0.012084
7.861,59.0999,-0.012084
7.878,59.0999,-0.009668
7.894,59.0999,-0.009668
7.910,59.0999,-0.010876
7.929,59.0999,-0.020544
7.953,59.0999,-0.021752
7.968,59.0999,-0.012084
7.984,59.0999,-0.012084
8.000,59.0999,-0.010876
8.017,59.0999,-0.012084
8.033,59.0999,-0.012084
8.050,59.0999,-0.014501
8.064,59.0999,-0.012084
8.080,59.0999,-0.012084
8.096,59.0999,-0.008459
8.112,59.0999,-0.006042
8.128,59.0999,-0.015710
8.145,59.0999,-0.015710
8.160,59.0999,-0.009668
8.176,59.0999,-0.015710
8.192,59.0999,-0.003625
8.208,59.0999,-0.008459
8.224,59.0999,-0.004834
8.240,59.0999,-0.012084
8.258,59.0999,-0.010876
8.273,59.0999,-0.012084
8.288,59.0999,-0.009668
8.304,59.0999,-0.016918
8.322,59.0999,-0.009668
8.337,59.0999,-0.010876
8.352,59.0999,-0.012084
8.368,59.0999,-0.008459
8.385,59.0999,-0.014501
8.401,59.0999,-0.012084
8.417,59.0999,-0.013293
8.432,59.0999,-0.008459
8.449,59.0999,-0.012084
8.464,59.0999,-0.009668
8.482,59.0999,-0.013293
8.505,59.0999,-0.013293
8.521,59.0999,-0.016918
8.537,59.0999,-0.010876
8.553,59.0999,-0.009668
8.570,59.0999,-0.019335
8.586,59.0999,-0.019335
8.601,59.0999,-0.016918
8.617,59.0999,-0.006042
8.635,59.0999,-0.006042
8.650,59.0999,-0.015710
8.666,59.0999,-0.012084
8.682,59.0999,-0.014501
8.698,59.0999,-0.006042
8.713,59.0999,-0.008459
8.730,59.0999,-0.014501
8.748,59.0999,-0.014501
8.761,59.0999,-0.010876
8.777,59.0999,-0.007251
8.793,59.0999,-0.012084
8.810,59.0999,-0.010876
8.825,59.0999,-0.010876
8.841,59.0999,-0.013293
8.857,59.0999,-0.015710
8.874,59.0999,-0.015710
8.890,59.0999,-0.008459
8.905,59.0999,-0.009668
8.921,59.0999,-0.009668
8.938,59.0999,-0.009668
8.954,59.0999,-0.001208
8.969,59.0999,-0.012084
8.985,59.0999,-0.014501
9.001,59.0999,-0.013293
9.017,59.0999,-0.009668
9.033,59.0999,-0.015710
9.057,59.0999,-0.010876
9.073,59.0999,-0.009668
9.089,59.0999,-0.013293
9.105,59.0999,-0.018127
9.121,59.0999,-0.015710
9.137,59.0999,-0.009668
9.153,59.0999,-0.004834
9.169,59.0999,-0.014501
9.185,59.0999,-0.010876
9.201,59.0999,-0.016918
9.217,59.0999,-0.010876
9.237,59.0999,-0.010876
9.250,59.0999,-0.012084
9.264,59.0999,-0.012084
9.281,59.0999,-0.007251
9.298,59.0999,-0.014501
9.313,59.0999,-0.014501
9.329,59.0999,-0.014501
9.345,59.0999,-0.010876
9.362,59.0999,-0.010876
9.377,59.0999,-0.010876
9.393,59.0999,-0.010876
9.410,59.0999,-0.013293
9.425,59.0999,-0.008459
9.441,59.0999,-0.009668
9.457,59.0999,-0.009668
9.473,59.0999,-0.012084
9.490,59.0999,-0.004834
9.506,59.0999,-0.010876
9.521,59.0999,-0.015710
9.537,59.0999,-0.008459
9.553,59.0999,-0.006042
9.571,59.0999,-0.009668
9.594,59.0999,-0.001208
9.610,59.0999,-0.012084
9.626,59.0999,-0.013293
9.642,59.0999,-0.013293
9.659,59.0999,-0.013293
9.674,59.0999,-0.013293
9.691,59.0999,-0.010876
9.705,59.0999,-0.006042
9.723,59.0999,-0.006042
9.739,59.0999,-0.013293
9.754,59.0999,-0.013293
9.770,59.0999,-0.007251
9.785,59.0999,-0.010876
9.802,59.0999,-0.014501
9.818,59.0999,-0.009668
9.834,59.0999,-0.009668
9.850,59.0999,-0.012084
9.865,59.0999,-0.013293
9.881,59.0999,-0.009668
9.898,59.0999,-0.010876
9.915,59.0999,-0.008459
9.930,59.0999,-0.010876
9.946,59.0999,-0.012084
9.963,59.0999,-0.009668
9.978,59.0999,-0.009668
9.993,59.0999,-0.009668
10.009,59.0999,-0.009668
10.028,59.0999,-0.009668
10.043,59.0999,-0.009668
10.057,59.0999,-0.010876
10.074,59.0999,-0.007251
10.090,59.0999,-0.008459
10.105,59.0999,-0.007251
10.122,59.0999,-0.015710
10.152,59.0999,-0.013293
10.167,59.0999,-0.010876
10.183,59.0999,-0.013293
10.199,59.0999,-0.009668
10.216,59.0999,-0.010876
10.231,59.0999,-0.010876
10.247,59.0999,-0.003625
10.263,59.0999,-0.008459
10.280,59.0999,-0.012084
10.296,59.0999,-0.012084
10.311,59.0999,-0.009668
10.327,59.0999,-0.010876
10.344,59.0999,-0.016918
10.360,59.0999,-0.010876
10.375,59.0999,-0.010876
10.392,59.0999,-0.010876
10.407,59.0999,-0.016918
10.424,59.0999,-0.018127
10.439,59.0999,-0.014501
10.456,59.0999,-0.014501
10.471,59.0999,-0.013293
10.487,59.0999,-0.014501
10.503,59.0999,-0.008459
10.520,59.0999,-0.007251
10.536,59.0999,-0.015710
10.551,59.0999,-0.018127
10.567,59.0999,-0.013293
10.584,59.0999,-0.010876
10.599,59.0999,-0.012084
10.616,59.0999,-0.012084
10.631,59.0999,-0.012084
10.648,59.0999,-0.015710
10.663,59.0999,-0.012084
10.679,59.0999,-0.012084
10.706,59.0999,-0.009668
10.723,59.0999,-0.003625
10.739,59.0999,-0.008459
10.754,59.0999,-0.008459
10.771,59.0999,-0.009668
10.787,59.0999,-0.012084
10.803,59.0999,-0.012084
10.819,59.0999,-0.010876
10.835,59.0999,-0.010876
10.851,59.0999,-0.010876
10.868,59.0999,-0.010876
10.882,59.0999,-0.010876
10.898,59.0999,-0.013293
10.914,59.0999,-0.013293
10.930,59.0999,-0.012084
10.947,59.0999,-0.013293
10.962,59.0999,-0.010876
10.978,59.0999,-0.008459
10.994,59.0999,-0.008459
11.011,59.0999,-0.013293
11.028,59.0999,-0.010876
11.042,59.0999,-0.013293
11.058,59.0999,-0.013293
11.074,59.0999,-0.013293
11.090,59.0999,-0.014501
11.107,59.0999,-0.015710
11.123,59.0598,-0.009668
11.139,58.8342,0.136555
11.154,58.6094,0.012084
11.170,58.3646,0.038670
11.186,58.1013,0.076132
11.202,57.8656,0.083383
11.218,57.6238,0.137763
11.245,57.2111,0.176433
11.261,56.9631,0.194560
11.277,56.7106,0.201811
11.293,56.4718,0.192143
11.309,56.2131,0.143805
11.325,55.9760,0.015710
11.341,55.7281,-0.002417
11.359,55.4555,0.009668
11.374,55.2260,0.008459
11.389,54.9904,0.002417
11.405,54.7363,-0.007251
11.422,54.4699,0.004834
11.437,54.2497,0.004834
11.453,54.0079,0.002417
11.469,53.7568,0.001208
11.485,53.5151,0.001208
11.501,53.2656,-0.001208
11.517,53.0645,-0.013293
11.537,53.0499,-0.106343
11.549,53.0499,-0.004834
11.565,53.0499,-0.004834
11.581,53.0499,0.010876
11.598,53.0499,-0.004834
11.613,53.0499,0.004834
11.629,53.0499,-0.002417
11.645,53.0499,0.002417
11.661,53.0499,0.002417
11.678,53.0499,-0.003625
11.696,53.0499,-0.001208
11.709,53.0499,-0.002417
11.725,53.0499,-0.002417
11.742,53.0499,-0.001208
11.772,53.0499,0.001208
11.787,53.0936,0.001208
11.803,53.3140,-0.079758
11.822,53.5959,-0.003625
11.836,53.8114,-0.003625
11.852,54.0547,-0.018127
11.868,54.3073,-0.007251
11.883,54.5337,0.002417
11.898,54.7831,-0.012084
11.915,55.0296,-0.012084
11.931,55.2713,-0.009668
11.950,55.5732,-0.008459
11.963,55.7673,0.000000
11.979,56.0136,0.015710
11.995,56.2569,-0.006042
12.013,56.5480,-0.008459
12.027,56.7482,-0.006042
12.043,56.9962,-0.008459
12.059,57.2410,-0.009668
12.076,57.5120,-0.016918
12.091,57.7369,-0.009668
12.107,57.9817,-0.013293
12.123,58.2297,-0.014501
12.139,58.4777,-0.026586
12.154,58.7194,-0.029003
12.170,58.9660,-0.039879
12.187,59.0499,0.080966
12.203,59.0499,0.080966
12.219,59.0499,-0.051963
12.236,59.0499,-0.045921
12.251,59.0499,-0.037462
12.271,59.0499,-0.042296
12.282,59.0499,-0.042296
12.299,59.0499,-0.037462
12.315,59.0499,-0.031420
12.335,59.0499,-0.036253
12.351,59.0499,-0.029003
12.367,59.0499,-0.031420
12.383,59.0499,-0.027794
12.404,59.0499,-0.035045
12.416,59.0499,-0.027794
12.431,59.0499,-0.031420
12.448,59.0499,-0.029003
12.464,59.0499,-0.027794
12.480,59.0499,-0.029003
12.498,59.0499,-0.025377
12.511,59.0499,-0.029003
12.528,59.0499,-0.032628
12.544,59.0499,-0.032628
12.561,59.0499,-0.027794
12.575,59.0499,-0.022961
12.592,59.0499,-0.027794
12.608,59.0499,-0.019335
12.623,59.0499,-0.031420
12.639,59.0499,-0.019335
12.655,59.0499,-0.024169
12.672,59.0499,-0.019335
12.687,59.0499,-0.025377
12.707,59.0499,-0.024169
12.720,59.0499,-0.015710
12.736,59.0499,-0.015710
12.751,59.0499,-0.020544
12.770,59.0499,-0.020544
12.783,59.0499,-0.020544
12.799,59.0499,-0.022961
12.815,59.0499,-0.022961
12.833,59.0499,-0.018127
12.847,59.0499,-0.016918
12.863,59.0499,-0.016918
12.879,59.0499,-0.022961
12.902,59.0499,-0.019335
12.919,59.0499,-0.018127
12.934,59.0499,-0.013293
12.950,59.0499,-0.010876
12.966,59.0499,-0.018127
12.981,59.0499,-0.020544
12.998,59.0499,-0.020544
13.013,59.0499,-0.016918
13.030,59.0499,-0.016918
13.046,59.0499,-0.020544
13.062,59.0499,-0.014501
13.077,59.0499,-0.019335
13.097,59.0499,-0.019335
13.110,59.0499,-0.020544
13.125,59.0499,-0.020544
13.141,59.0499,-0.018127
13.158,59.0499,-0.014501
13.173,59.0499,-0.013293
13.190,59.0499,-0.019335
13.205,59.0499,-0.015710
13.223,59.0499,-0.020544
13.237,59.0499,-0.020544
13.255,59.0499,-0.015710
13.269,59.0499,-0.021752
13.285,59.0499,-0.021752
13.301,59.0499,-0.016918
13.317,59.0499,-0.020544
13.337,59.0499,-0.019335
13.349,59.0499,-0.014501
13.366,59.0499,-0.013293
13.381,59.0499,-0.016918
13.401,59.0499,-0.015710
13.413,59.0499,-0.015710
13.429,59.0499,-0.015710
13.445,59.0499,-0.022961
13.469,59.0499,-0.020544
13.485,59.0499,-0.019335
13.500,59.0499,-0.013293
13.517,59.0499,-0.016918
13.533,59.0499,-0.016918
13.550,59.0499,-0.019335
13.566,59.0499,-0.020544
13.581,59.0499,-0.018127
13.597,59.0499,-0.013293
13.613,59.0499,-0.015710
13.629,59.0499,-0.014501
13.646,59.0499,-0.014501
13.662,59.0499,-0.015710
13.677,59.0499,-0.020544
13.693,59.0499,-0.015710
13.711,59.0499,-0.015710
13.725,59.0499,-0.013293
13.741,59.0499,-0.014501
13.757,59.0499,-0.014501
13.775,59.0499,-0.015710
13.790,59.0499,-0.019335
13.805,59.0499,-0.018127
13.821,59.0499,-0.014501
13.839,59.0499,-0.015710
13.854,59.0499,-0.012084
13.870,59.0499,-0.012084
13.885,59.0499,-0.018127
13.902,59.0499,-0.020544
13.918,59.0499,-0.024169
13.933,59.0499,-0.012084
13.949,59.0499,-0.013293
13.965,59.0499,-0.013293
13.981,59.0499,-0.012084
14.004,59.0499,-0.015710
14.020,59.0499,-0.020544
14.036,59.0499,-0.014501
14.054,59.0499,-0.014501
14.067,59.0499,-0.014501
14.084,59.0499,-0.018127
14.099,59.0499,-0.016918
14.119,59.0499,-0.018127
14.132,59.0499,-0.013293
14.148,59.0499,-0.016918
14.163,59.0499,-0.018127
14.181,59.0499,-0.018127
14.196,59.0499,-0.012084
14.212,59.0499,-0.009668
14.228,59.0499,-0.015710
14.243,59.0499,-0.015710
14.260,59.0499,-0.018127
14.275,59.0499,-0.009668
14.292,59.0499,-0.013293
14.307,59.0499,-0.014501
14.331,59.0499,-0.018127
14.344,59.0499,-0.013293
14.355,59.0499,-0.013293
14.372,59.0499,-0.014501
14.387,59.0499,-0.014501
14.403,59.0499,-0.014501
14.419,59.0499,-0.015710
14.435,59.0499,-0.015710
14.457,59.0499,-0.015710
14.468,59.0499,-0.012084
14.483,59.0499,-0.018127
14.499,59.0499,-0.013293
14.528,59.0499,-0.010876
14.542,59.0499,-0.014501
14.559,59.0499,-0.019335
14.574,59.0499,-0.019335
14.591,59.0499,-0.016918
14.607,59.0499,-0.020544
14.622,59.0499,-0.019335
14.638,59.0499,-0.018127
14.659,59.0499,-0.018127
14.672,59.0499,-0.018127
14.686,59.0499,-0.014501
14.702,59.0499,-0.014501
14.719,59.0499,-0.013293
14.735,59.0499,-0.013293
14.750,59.0499,-0.014501
14.767,59.0499,-0.008459
14.783,59.0499,-0.008459
14.802,59.0499,-0.007251
14.814,59.0499,-0.010876
14.832,59.0499,-0.019335
14.846,59.0499,-0.009668
14.863,59.0499,-0.009668
14.879,59.0499,-0.013293
14.896,59.0499,-0.013293
14.911,59.0499,-0.009668
14.926,59.0499,-0.014501
14.942,59.0499,-0.015710
14.959,59.0499,-0.012084
14.975,59.0499,-0.013293
14.993,59.0499,-0.014501
15.007,59.0499,-0.013293
15.023,59.0499,-0.015710
15.038,59.0499,-0.015710
15.065,59.0499,-0.013293
15.081,59.0499,-0.018127
15.097,59.0499,-0.018127
15.113,59.0499,-0.016918
15.135,59.0499,-0.013293
15.147,59.0499,-0.016918
15.162,59.0499,-0.015710
15.177,59.0499,-0.015710
15.193,59.0499,-0.014501
15.209,59.0499,-0.012084
15.225,59.0499,-0.012084
15.242,59.0499,-0.008459
15.259,59.0499,-0.018127
15.273,59.0499,-0.013293
15.289,59.0499,-0.019335
15.305,59.0499,-0.013293
15.322,59.0499,-0.013293
15.338,59.0499,-0.015710
15.353,59.0499,-0.015710
15.369,59.0499,-0.014501
15.386,59.0499,-0.014501
15.401,59.0499,-0.015710
15.419,59.0499,-0.014501
15.433,59.0499,-0.016918
15.449,59.0499,-0.010876
15.465,59.0499,-0.015710
15.481,59.0499,-0.015710
15.497,59.0499,-0.016918
15.513,59.0499,-0.016918
15.529,59.0499,-0.020544
15.545,59.0499,-0.020544
15.562,59.0499,-0.012084
15.577,59.0499,-0.014501
15.593,59.0499,-0.014501
15.609,59.0499,-0.004834
15.636,59.0499,-0.004834
15.647,59.0499,-0.015710
15.663,59.0499,-0.013293
15.679,59.0499,-0.012084
15.696,59.0499,-0.013293
15.711,59.0499,-0.015710
15.727,59.0499,-0.014501
15.743,59.0499,-0.014501
15.759,59.0499,-0.012084
15.775,59.0499,-0.012084
15.791,59.0499,-0.014501
15.815,59.0499,-0.015710
15.837,59.0499,-0.010876
15.855,59.0499,-0.014501
15.872,59.0499,-0.016918
15.887,59.0499,-0.014501
15.903,59.0499,-0.015710
15.919,59.0499,-0.009668
15.938,59.0499,-0.009668
15.951,59.0499,-0.015710
15.967,59.0499,-0.013293
15.983,59.0499,-0.007251
15.999,59.0499,-0.008459
16.015,59.0499,-0.008459
16.032,59.0499,-0.007251
16.047,59.0499,-0.009668
16.063,59.0499,-0.013293
16.079,59.0499,-0.013293
16.095,59.0499,-0.013293
16.111,59.0499,-0.013293
16.135,59.0499,-0.013293
16.149,59.0499,-0.012084
16.160,59.0499,-0.015710
16.175,59.0499,-0.014501
16.199,59.0499,-0.016918
16.216,59.0499,-0.010876
16.232,59.0499,-0.010876
16.248,59.0499,-0.014501
16.264,59.0499,-0.009668
16.279,59.0499,-0.012084
16.296,59.0499,-0.015710
16.312,59.0499,-0.015710
16.329,59.0499,-0.018127
16.344,59.0499,-0.013293
16.361,59.0499,-0.014501
16.376,59.0499,-0.007251
16.401,59.0499,-0.007251
16.411,59.0499,-0.018127
16.423,59.0499,-0.018127
16.441,59.0499,-0.013293
16.456,59.0499,-0.015710
16.472,59.0499,-0.015710
16.488,59.0499,-0.003625
16.504,59.0499,-0.003625
16.519,59.0499,-0.010876
16.535,59.0499,-0.012084
16.551,59.0499,-0.009668
16.570,59.0499,-0.008459
16.583,59.0499,-0.010876
16.599,59.0499,-0.012084
16.615,59.0499,-0.013293
16.632,59.0499,-0.016918
16.648,59.0499,-0.016918
16.663,59.0499,-0.013293
16.679,59.0499,-0.016918
16.697,59.0499,-0.010876
16.712,59.0499,-0.013293
16.728,59.0499,-0.016918
16.743,59.0499,-0.021752
16.766,59.0499,-0.016918
16.781,59.0499,-0.010876
16.797,59.0499,-0.014501
16.813,59.0499,-0.014501
16.831,59.0499,-0.014501
16.845,59.0499,-0.015710
16.861,59.0499,-0.010876
16.877,59.0499,-0.010876
16.900,59.0499,-0.009668
16.911,59.0499,-0.013293
16.925,59.0499,-0.008459
16.941,59.0499,-0.009668
16.957,59.0499,-0.012084
16.974,59.0499,-0.015710
16.990,59.0499,-0.013293
17.005,59.0499,-0.015710
17.022,59.0499,-0.014501
17.037,59.0499,-0.012084
17.054,59.0499,-0.010876
17.069,59.0499,-0.013293
17.087,59.0499,-0.014501
17.102,59.0499,-0.014501
17.117,59.0499,-0.013293
17.134,59.0499,-0.016918
17.150,59.0499,-0.014501
17.166,59.0499,-0.013293
17.183,59.0499,-0.013293
17.197,59.0499,-0.015710
17.213,59.0499,-0.014501
17.229,59.0499,-0.018127
17.245,59.0499,-0.019335
17.263,59.0499,-0.012084
17.277,59.0499,-0.010876
17.293,59.0499,-0.007251
17.309,59.0499,-0.016918
17.333,59.0499,-0.010876
17.349,59.0499,-0.006042
17.365,59.0499,-0.015710
17.383,59.0499,-0.015710
17.397,59.0499,-0.016918
17.412,59.0499,-0.018127
17.429,59.0499,-0.015710
17.444,59.0499,-0.020544
17.460,59.0499,-0.014501
17.476,59.0499,-0.016918
17.492,59.0499,-0.012084
17.514,59.0499,-0.012084
17.524,59.0499,-0.014501
17.540,59.0499,-0.018127
17.558,59.0499,-0.015710
17.573,59.0499,-0.008459
17.589,59.0499,-0.013293
17.605,59.0499,-0.009668
17.620,59.0499,-0.009668
17.637,59.0499,-0.008459
17.652,59.0499,-0.010876
17.668,59.0499,-0.015710
17.684,59.0499,-0.010876
17.701,59.0499,-0.010876
17.717,59.0499,-0.009668
17.733,59.0499,-0.009668
17.748,59.0499,-0.015710
17.768,59.0499,-0.014501
17.782,59.0499,-0.014501
17.797,59.0499,-0.007251
17.813,59.0499,-0.007251
17.829,59.0499,-0.015710
17.844,59.0499,-0.010876
17.860,59.0499,-0.009668
17.881,59.0499,-0.009668
17.897,59.0499,-0.010876
17.913,59.0499,-0.015710
17.929,59.0499,-0.012084
17.946,59.0499,-0.010876
17.961,59.0499,-0.008459
17.977,59.0499,-0.012084
17.993,59.0499,-0.014501
18.009,59.0499,-0.014501
18.025,59.0499,-0.015710
18.042,59.0499,-0.013293
18.057,59.0499,-0.010876
18.074,59.0499,-0.015710
18.090,59.0499,-0.012084
18.105,59.0499,-0.008459
18.121,59.0499,-0.018127
18.138,59.0499,-0.010876
18.153,59.0499,-0.009668
18.171,59.0499,-0.008459
18.185,59.0499,-0.014501
18.202,59.0499,-0.014501
18.217,59.0499,-0.014501
18.234,59.0499,-0.015710
18.249,59.0499,-0.013293
18.265,59.0499,-0.013293
18.281,59.0499,-0.019335
18.297,59.0499,-0.012084
18.320,59.0499,-0.012084
18.344,59.0499,-0.009668
18.361,59.0499,-0.013293
18.377,59.0499,-0.007251
18.393,59.0499,-0.002417
18.410,59.0499,-0.004834
18.425,59.0499,-0.006042
18.447,59.0499,-0.008459
18.462,59.0499,-0.004834
18.479,59.0499,-0.004834
18.495,59.0499,-0.004834
18.511,59.0499,-0.015710
18.526,59.0499,-0.008459
18.543,59.0499,-0.013293
18.558,59.0499,-0.015710
18.575,59.0499,-0.007251
18.590,59.0499,-0.012084
18.606,59.0499,-0.012084
18.622,59.0499,-0.012084
18.638,59.0499,-0.015710
18.654,59.0499,-0.015710
18.670,59.0499,-0.015710
18.686,59.0499,-0.013293
18.708,59.0499,-0.013293
18.719,59.0499,-0.012084
18.735,59.0499,-0.012084
18.751,59.0499,-0.015710
18.768,59.0499,-0.010876
18.783,59.0499,-0.014501
18.799,59.0499,-0.014501
18.815,59.0499,-0.010876
18.832,59.0499,-0.015710
18.846,59.0499,-0.009668
18.862,59.0499,-0.004834
18.879,59.0499,-0.012084
18.895,59.0499,-0.012084
18.912,59.0499,-0.016918
18.926,59.0499,-0.010876
18.943,59.0499,-0.008459
18.970,59.0499,-0.009668
18.987,59.0499,-0.012084
19.003,59.0499,-0.012084
19.018,59.0499,-0.014501
19.035,59.0499,-0.015710
19.051,59.0499,-0.012084
19.066,59.0499,-0.013293
19.082,59.0499,-0.010876
19.098,59.0499,-0.006042
19.114,59.0499,-0.010876
19.133,59.0499,-0.010876
19.150,59.0499,-0.013293
19.162,59.0499,-0.014501
19.178,59.0499,-0.009668
19.195,59.0499,-0.007251
19.210,59.0499,-0.016918
19.227,59.0499,-0.012084
19.242,59.0499,-0.012084
19.258,59.0499,-0.016918
19.274,59.0499,-0.015710
19.290,59.0499,-0.012084
19.306,59.0499,-0.013293
19.324,59.0499,-0.009668
19.338,59.0499,-0.009668
19.354,59.0499,-0.010876
19.370,59.0499,-0.007251
19.387,59.0499,-0.006042
19.403,59.0499,-0.003625
19.418,59.0499,-0.016918
19.434,59.0499,-0.012084
19.451,59.0499,-0.014501
19.466,59.0499,-0.013293
19.483,59.0499,-0.013293
19.507,59.0499,-0.010876
19.523,59.0499,-0.013293
19.539,59.0499,-0.010876
19.555,59.0499,-0.010876
19.572,59.0499,-0.014501
19.587,59.0499,-0.016918
19.606,59.0499,-0.018127
19.619,59.0499,-0.007251
19.635,59.0499,-0.016918
19.651,59.0499,-0.015710
19.668,59.0499,-0.012084
19.683,59.0499,-0.013293
19.699,59.0499,-0.008459
19.716,59.0499,-0.012084
19.731,59.0499,-0.013293
19.751,59.0499,-0.013293
19.763,59.0499,-0.007251
19.779,59.0499,-0.015710
19.795,59.0499,-0.015710
19.811,59.0499,-0.018127
19.827,59.0499,-0.016918
19.843,59.0499,-0.014501
19.859,59.0499,-0.014501
19.875,59.0499,-0.014501
19.891,59.0499,-0.009668
19.907,59.0499,-0.013293
19.923,59.0499,-0.008459
19.940,59.0499,-0.012084
19.955,59.0499,-0.012084
19.971,59.0499,-0.013293
19.987,59.0499,-0.010876
20.004,59.0499,-0.010876
20.019,59.0499,-0.012084
20.035,59.0499,-0.013293
20.063,59.0499,-0.021752
20.079,59.0499,-0.010876
20.095,59.0499,-0.003625
20.111,59.0499,-0.014501
20.127,59.0499,-0.016918
20.144,59.0499,-0.016918
20.159,59.0499,-0.013293
20.175,59.0499,-0.015710
20.191,59.0499,-0.014501
20.207,59.0499,-0.009668
20.223,59.0499,-0.014501
20.240,59.0499,-0.013293
20.256,59.0499,-0.015710
20.271,59.0499,-0.018127
20.286,59.0499,-0.009668
20.303,59.0499,-0.009668
20.319,59.0499,-0.010876
20.335,59.0499,-0.010876
20.358,59.0499,-0.014501
20.380,59.0499,-0.018127
20.400,59.0499,-0.014501
20.416,59.0499,-0.010876
20.431,59.0499,-0.006042
20.447,59.0499,-0.008459
20.463,59.0499,-0.008459
20.480,59.0499,-0.007251
20.494,59.0499,-0.008459
20.511,59.0499,-0.010876
20.526,59.0499,-0.018127
20.544,59.0499,-0.012084
20.559,59.0499,-0.010876
20.575,59.0499,-0.012084
20.603,59.0499,-0.013293
20.619,59.0499,-0.012084
20.634,59.0499,-0.007251
20.651,59.0499,-0.008459
20.667,59.0499,-0.008459
20.683,59.0499,-0.013293
20.702,59.0499,-0.009668
20.715,59.0499,-0.008459
20.734,59.0499,-0.008459
20.747,59.0499,-0.012084
20.762,59.0499,-0.015710
20.779,59.0499,-0.013293
20.796,59.0499,-0.008459
20.811,59.0499,-0.009668
20.826,59.0499,-0.010876
20.844,59.0499,-0.014501
20.858,59.0499,-0.006042
20.874,59.0499,-0.007251
20.890,59.0499,-0.012084
20.909,59.0499,-0.009668
20.922,59.0499,-0.010876
20.938,59.0499,-0.013293
20.954,59.0499,-0.013293
20.972,59.0499,-0.014501
20.987,59.0499,-0.009668
21.002,59.0499,-0.009668
21.018,59.0499,-0.010876
21.035,59.0499,-0.010876
21.050,59.0499,-0.013293
21.067,59.0499,-0.016918
21.082,59.0499,-0.014501
21.100,59.0499,-0.008459
21.114,59.0499,-0.012084
21.132,59.0499,-0.013293
21.160,59.0499,-0.014501
21.176,59.0499,-0.013293
21.193,59.0499,-0.012084
21.208,59.0499,-0.012084
21.225,59.0499,-0.012084
21.241,59.0499,-0.009668
21.256,59.0499,-0.015710
21.272,59.0499,-0.006042
21.290,59.0499,-0.015710
21.305,59.0499,-0.013293
21.321,59.0499,-0.010876
21.337,59.0499,-0.008459
21.354,59.0499,-0.007251
21.369,59.0499,-0.008459
21.385,59.0499,-0.009668
21.400,59.0499,-0.012084
21.417,59.0499,-0.012084
21.434,59.0499,-0.012084
21.448,59.0499,-0.009668
21.468,59.0499,-0.008459
21.481,59.0499,-0.010876
21.496,59.0499,-0.015710
21.512,59.0499,-0.013293
21.532,59.0499,-0.010876
21.544,59.0499,-0.010876
21.560,59.0499,-0.012084
21.576,59.0499,-0.012084
21.597,59.0499,-0.012084
21.609,59.0499,-0.010876
21.624,59.0499,-0.007251
21.640,59.0499,-0.006042
21.658,59.0499,-0.009668
21.672,59.0499,-0.007251
21.688,59.0499,-0.012084
21.704,59.0499,-0.010876
21.720,59.0499,-0.015710
21.736,59.0499,-0.012084
21.752,59.0499,-0.012084
21.768,59.0499,-0.009668
21.784,59.0499,-0.009668
21.800,59.0499,-0.008459
21.816,59.0499,-0.004834
21.833,59.0499,-0.010876
21.849,59.0499,-0.009668
21.865,59.0499,-0.014501
21.880,59.0499,-0.010876
21.898,59.0499,-0.008459
21.912,59.0499,-0.003625
21.928,59.0499,-0.006042
21.944,59.0499,-0.012084
21.961,59.0499,-0.015710
21.976,59.0499,-0.010876
21.993,59.0499,-0.010876
22.008,59.0499,-0.012084
22.026,59.0499,-0.012084
22.040,59.0499,-0.013293
22.056,59.0499,-0.012084
22.072,59.0499,-0.010876
22.089,59.0499,-0.012084
22.104,59.0499,-0.008459
22.122,59.0499,-0.008459
22.136,59.0499,-0.009668
22.153,59.0499,-0.013293
22.168,59.0499,-0.013293
22.184,59.0499,-0.013293
22.201,59.0499,-0.008459
22.226,59.0499,-0.012084
22.248,59.0499,-0.014501
22.267,59.0499,-0.008459
22.290,59.0499,-0.012084
22.306,59.0499,-0.010876
22.322,59.0499,-0.010876
22.338,59.0499,-0.009668
22.354,59.0499,-0.009668
22.371,59.0499,-0.009668
22.386,59.0499,-0.008459
22.402,59.0499,-0.008459
22.418,59.0499,-0.014501
22.436,59.0499,-0.009668
22.450,59.0499,-0.014501
22.467,59.0499,-0.009668
22.482,59.0499,-0.010876
22.498,59.0499,-0.010876
22.514,59.0499,-0.002417
22.532,59.0499,-0.007251
22.546,59.0499,-0.008459
22.562,59.0499,-0.009668
22.578,59.0499,-0.016918
22.595,59.0499,-0.015710
22.611,59.0499,-0.010876
22.627,59.0499,-0.015710
22.642,59.0499,-0.015710
22.657,59.0499,-0.013293
22.674,59.0499,-0.010876
22.690,59.0499,-0.008459
22.707,59.0499,-0.010876
22.722,59.0499,-0.010876
22.738,59.0499,-0.013293
22.754,59.0499,-0.014501
22.777,59.0499,-0.014501
22.788,59.0499,-0.006042
22.802,59.0499,-0.012084
22.818,59.0499,-0.012084
22.842,59.0499,-0.008459
22.857,59.0499,-0.014501
22.873,59.0499,-0.016918
22.889,59.0499,-0.020544
22.905,59.0499,-0.013293
22.921,59.0499,-0.014501
22.938,59.0499,-0.008459
22.953,59.0499,-0.006042
22.969,59.0499,-0.015710
22.985,59.0499,-0.006042
23.003,59.0499,-0.006042
23.016,59.0499,-0.014501
23.033,59.0499,-0.014501
23.049,59.0499,-0.009668
23.065,59.0499,-0.009668
23.081,59.0499,-0.015710
23.097,59.0499,-0.008459
23.113,59.0499,-0.010876
23.128,59.0499,-0.004834
23.147,59.0499,-0.006042
23.160,59.0499,-0.008459
23.176,59.0499,-0.010876
23.192,59.0499,-0.012084
23.210,59.0499,-0.010876
23.224,59.0499,-0.014501
23.241,59.0499,-0.008459
23.256,59.0499,-0.010876
23.273,59.0499,-0.010876
23.289,59.0499,-0.012084
23.305,59.0499,-0.014501
23.320,59.0499,-0.012084
23.337,59.0499,-0.008459
23.352,59.0499,-0.008459
23.370,59.0499,-0.002417
23.395,59.0499,-0.008459
23.410,59.0499,-0.007251
23.427,59.0499,-0.009668
23.442,59.0499,-0.008459
23.462,59.0499,-0.014501
23.474,59.0499,-0.014501
23.490,59.0499,-0.007251
23.506,59.0499,-0.010876
23.522,59.0499,-0.009668
23.538,59.0499,-0.015710
23.554,59.0499,-0.015710
23.571,59.0499,-0.012084
23.587,59.0499,-0.013293
23.604,59.0499,-0.013293
23.618,59.0159,0.035045
23.635,58.7996,0.035045
23.650,58.5579,0.016918
23.666,58.3146,0.031420
23.683,58.0528,0.031420
23.698,57.8187,0.113594
23.715,57.5569,0.113594
23.731,57.3120,0.152264
23.746,57.0765,0.178850
23.762,56.8315,0.206645
23.778,56.5898,0.195769
23.796,56.3157,0.174016
23.810,56.0954,0.027794
23.826,55.8490,0.007251
23.842,55.6042,0.003625
23.859,55.3347,0.002417
23.875,55.0975,0.000000
23.890,54.8619,0.004834
23.919,54.4184,-0.001208
23.935,54.1705,0.001208
23.951,53.9178,-0.001208
23.967,53.6807,0.000000
23.986,53.3788,0.000000
24.003,53.1325,-0.006042
24.015,53.0058,-0.032628
24.031,52.9999,-0.141388
24.047,52.9999,-0.001208
24.063,52.9999,-0.001208
24.079,52.9999,0.001208
24.095,52.9999,-0.006042
24.111,52.9999,0.001208
24.127,52.9999,0.001208
24.143,52.9999,0.001208
24.162,52.9999,-0.007251
24.175,52.9999,-0.003625
24.191,52.9999,0.000000
24.208,52.9999,0.001208
24.223,52.9999,0.006042
24.239,52.9999,-0.003625
24.255,52.9999,-0.002417
24.271,52.9999,-0.006042
24.287,53.0877,-0.141388
24.303,53.3194,-0.114803
24.320,53.5843,-0.010876
24.335,53.8092,-0.002417
24.356,54.1495,0.013293
24.367,54.3050,-0.012084
24.383,54.5577,0.006042
24.399,54.7933,-0.007251
24.415,55.0458,0.003625
24.431,55.2937,-0.006042
24.447,55.5340,0.006042
24.471,55.9160,0.004834
24.486,56.1438,0.004834
24.502,56.3809,-0.002417
24.518,56.6274,0.003625
24.534,56.8815,0.003625
24.550,57.1325,0.000000
24.567,57.3866,-0.004834
24.582,57.6161,-0.006042
24.598,57.8578,-0.024169
24.614,58.1135,-0.024169
24.630,58.3615,-0.024169
24.647,58.6140,-0.035045
24.662,58.8496,-0.035045
24.678,58.9982,0.089425
24.696,58.9999,0.089425
24.710,58.9999,-0.051963
24.726,58.9999,-0.038670
24.744,58.9999,-0.038670
24.758,58.9999,-0.038670
24.775,58.9999,-0.039879
24.792,58.9999,-0.030211
24.806,58.9999,-0.036253
24.822,58.9999,-0.041087
24.838,58.9999,-0.036253
24.854,58.9999,-0.031420
24.870,58.9999,-0.022961
24.886,58.9999,-0.027794
24.901,58.9999,-0.027794
24.920,58.9999,-0.030211
24.933,58.9999,-0.020544
24.949,58.9999,-0.030211
24.965,58.9999,-0.025377
24.995,58.9999,-0.020544
25.010,58.9999,-0.024169
25.027,58.9999,-0.027794
25.043,58.9999,-0.027794
25.059,58.9999,-0.021752
25.074,58.9999,-0.025377
25.089,58.9999,-0.022961
25.105,58.9999,-0.022961
25.121,58.9999,-0.019335
25.138,58.9999,-0.019335
25.153,58.9999,-0.026586
25.169,58.9999,-0.025377
25.187,58.9999,-0.022961
25.202,58.9999,-0.027794
25.218,58.9999,-0.022961
25.233,58.9999,-0.024169
25.251,58.9999,-0.020544
25.266,58.9999,-0.019335
25.284,58.9999,-0.022961
25.297,58.9999,-0.020544
25.313,58.9999,-0.020544
25.330,58.9999,-0.025377
25.345,58.9999,-0.025377
25.361,58.9999,-0.021752
25.377,58.9999,-0.019335
25.393,58.9999,-0.019335
25.409,58.9999,-0.026586
25.426,58.9999,-0.026586
25.442,58.9999,-0.020544
25.457,58.9999,-0.022961
25.473,58.9999,-0.018127
25.491,58.9999,-0.014501
25.506,58.9999,-0.014501
25.521,58.9999,-0.014501
25.537,58.9999,-0.016918
25.553,58.9999,-0.018127
25.569,58.9999,-0.019335
25.586,58.9999,-0.019335
25.601,58.9999,-0.019335
25.618,58.9999,-0.021752
25.634,58.9999,-0.018127
25.651,58.9999,-0.021752
25.665,58.9999,-0.021752
25.682,58.9999,-0.019335
25.698,58.9999,-0.020544
25.714,58.9999,-0.020544
25.729,58.9999,-0.014501
25.746,58.9999,-0.019335
25.761,58.9999,-0.015710
25.778,58.9999,-0.018127
25.794,58.9999,-0.022961
25.809,58.9999,-0.015710
25.825,58.9999,-0.015710
25.841,58.9999,-0.013293
25.858,58.9999,-0.022961
25.873,58.9999,-0.022961
25.890,58.9999,-0.021752
25.905,58.9999,-0.015710
25.928,58.9999,-0.015710
25.951,58.9999,-0.014501
25.969,58.9999,-0.015710
25.985,58.9999,-0.015710
26.001,58.9999,-0.015710
26.017,58.9999,-0.022961
26.033,58.9999,-0.020544
26.052,58.9999,-0.018127
26.065,58.9999,-0.016918
26.081,58.9999,-0.018127
26.097,58.9999,-0.014501
26.120,58.9999,-0.020544
26.136,58.9999,-0.015710
26.152,58.9999,-0.010876
26.168,58.9999,-0.012084
26.185,58.9999,-0.013293
26.200,58.9999,-0.018127
26.216,58.9999,-0.018127
26.232,58.9999,-0.019335
26.250,58.9999,-0.018127
26.264,58.9999,-0.014501
26.280,58.9999,-0.013293
26.296,58.9999,-0.016918
26.315,58.9999,-0.016918
26.328,58.9999,-0.016918
26.344,58.9999,-0.016918
26.360,58.9999,-0.014501
26.377,58.9999,-0.014501
26.393,58.9999,-0.014501
26.408,58.9999,-0.015710
26.424,58.9999,-0.015710
26.440,58.9999,-0.016918
26.456,58.9999,-0.019335
26.473,58.9999,-0.019335
26.488,58.9999,-0.016918
26.504,58.9999,-0.016918
26.520,58.9999,-0.013293
26.536,58.9999,-0.016918
26.552,58.9999,-0.019335
26.568,58.9999,-0.018127
26.592,58.9999,-0.019335
26.613,58.9999,-0.016918
26.632,58.9999,-0.012084
26.660,58.9999,-0.016918
26.676,58.9999,-0.020544
26.692,58.9999,-0.020544
26.708,58.9999,-0.015710
26.724,58.9999,-0.014501
26.740,58.9999,-0.009668
26.756,58.9999,-0.010876
26.772,58.9999,-0.018127
26.788,58.9999,-0.020544
26.805,58.9999,-0.020544
26.820,58.9999,-0.019335
26.836,58.9999,-0.015710
26.852,58.9999,-0.015710
26.868,58.9999,-0.019335
26.885,58.9999,-0.016918
26.900,58.9999,-0.020544
26.918,58.9999,-0.016918
26.932,58.9999,-0.015710
26.948,58.9999,-0.012084
26.963,58.9999,-0.010876
26.982,58.9999,-0.014501
26.996,58.9999,-0.015710
27.012,58.9999,-0.012084
27.027,58.9999,-0.012084
27.044,58.9999,-0.014501
27.060,58.9999,-0.013293
27.076,58.9999,-0.013293
27.091,58.9999,-0.013293
27.108,58.9999,-0.013293
27.124,58.9999,-0.010876
27.139,58.9999,-0.016918
27.157,58.9999,-0.014501
27.171,58.9999,-0.012084
27.187,58.9999,-0.012084
27.204,58.9999,-0.012084
27.226,58.9999,-0.009668
27.242,58.9999,-0.019335
27.257,58.9999,-0.016918
27.273,58.9999,-0.016918
27.289,58.9999,-0.014501
27.306,58.9999,-0.013293
27.322,58.9999,-0.014501
27.337,58.9999,-0.014501
27.353,58.9999,-0.014501
27.370,58.9999,-0.015710
27.385,58.9999,-0.012084
27.401,58.9999,-0.010876
27.418,58.9999,-0.013293
27.433,58.9999,-0.014501
27.449,58.9999,-0.015710
27.466,58.9999,-0.015710
27.481,58.9999,-0.013293
27.498,58.9999,-0.016918
27.513,58.9999,-0.014501
27.530,58.9999,-0.012084
27.546,58.9999,-0.010876
27.562,58.9999,-0.015710
27.577,58.9999,-0.019335
27.596,58.9999,-0.016918
27.612,58.9999,-0.010876
27.626,58.9999,-0.010876
27.642,58.9999,-0.009668
27.658,58.9999,-0.013293
27.674,58.9999,-0.015710
27.690,58.9999,-0.010876
27.705,58.9999,-0.015710
27.722,58.9999,-0.015710
27.737,58.9999,-0.014501
27.753,58.9999,-0.015710
27.777,58.9999,-0.012084
27.793,58.9999,-0.016918
27.808,58.9999,-0.010876
27.824,58.9999,-0.018127
27.842,58.9999,-0.020544
27.856,58.9999,-0.010876
27.873,58.9999,-0.010876
27.888,58.9999,-0.018127
27.906,58.9999,-0.013293
27.921,58.9999,-0.018127
27.939,58.9999,-0.013293
27.952,58.9999,-0.013293
27.969,58.9999,-0.016918
27.985,58.9999,-0.016918
28.002,58.9999,-0.013293
28.016,58.9999,-0.019335
28.033,58.9999,-0.019335
28.048,58.9999,-0.015710
28.064,58.9999,-0.016918
28.083,58.9999,-0.015710
28.096,58.9999,-0.015710
28.112,58.9999,-0.016918
28.128,58.9999,-0.010876
28.144,58.9999,-0.010876
28.160,58.9999,-0.018127
28.176,58.9999,-0.018127
28.192,58.9999,-0.016918
28.208,58.9999,-0.007251
28.224,58.9999,-0.004834
28.240,58.9999,-0.012084
28.256,58.9999,-0.015710
28.272,58.9999,-0.015710
28.288,58.9999,-0.014501
28.304,58.9999,-0.013293
28.320,58.9999,-0.008459
28.336,58.9999,-0.008459
28.352,58.9999,-0.008459
28.368,58.9999,-0.009668
28.384,58.9999,-0.014501
28.401,58.9999,-0.012084
28.416,58.9999,-0.012084
28.434,58.9999,-0.013293
28.448,58.9999,-0.015710
28.464,58.9999,-0.015710
28.480,58.9999,-0.013293
28.496,58.9999,-0.019335
28.514,58.9999,-0.016918
28.527,58.9999,-0.015710
28.544,58.9999,-0.015710
28.560,58.9999,-0.014501
28.577,58.9999,-0.012084
28.592,58.9999,-0.019335
28.608,58.9999,-0.020544
28.624,58.9999,-0.019335
28.641,58.9999,-0.020544
28.656,58.9999,-0.013293
28.672,58.9999,-0.008459
28.688,58.9999,-0.010876
28.707,58.9999,-0.010876
28.720,58.9999,-0.012084
28.736,58.9999,-0.014501
28.752,58.9999,-0.014501
28.768,58.9999,-0.018127
28.784,58.9999,-0.012084
28.801,58.9999,-0.013293
28.816,58.9999,-0.015710
28.833,58.9999,-0.015710
28.848,58.9999,-0.014501
28.864,58.9999,-0.012084
28.892,58.9999,-0.009668
28.908,58.9999,-0.009668
28.923,58.9999,-0.012084
28.941,58.9999,-0.012084
28.955,58.9999,-0.014501
28.972,58.9999,-0.016918
28.989,58.9999,-0.008459
29.003,58.9999,-0.010876
29.019,58.9999,-0.010876
29.036,58.9999,-0.014501
29.051,58.9999,-0.013293
29.069,58.9999,-0.013293
29.083,58.9999,-0.010876
29.099,58.9999,-0.012084
29.115,58.9999,-0.012084
29.131,58.9999,-0.010876
29.147,58.9999,-0.010876
29.163,58.9999,-0.010876
29.179,58.9999,-0.014501
29.195,58.9999,-0.012084
29.216,58.9999,-0.014501
29.227,58.9999,-0.010876
29.243,58.9999,-0.009668
29.261,58.9999,-0.012084
29.276,58.9999,-0.012084
29.291,58.9999,-0.012084
29.307,58.9999,-0.015710
29.323,58.9999,-0.014501
29.340,58.9999,-0.016918
29.355,58.9999,-0.012084
29.371,58.9999,-0.006042
29.387,58.9999,-0.015710
29.413,58.9999,-0.009668
29.429,58.9999,-0.010876
29.446,58.9999,-0.012084
29.461,58.9999,-0.015710
29.479,58.9999,-0.015710
29.493,58.9999,-0.013293
29.510,58.9999,-0.014501
29.525,58.9999,-0.015710
29.541,58.9999,-0.019335
29.557,58.9999,-0.009668
29.574,58.9999,-0.007251
29.591,58.9999,-0.012084
29.606,58.9999,-0.010876
29.622,58.9999,-0.010876
29.637,58.9999,-0.014501
29.655,58.9999,-0.012084
29.670,58.9999,-0.008459
29.685,58.9999,-0.012084
29.701,58.9999,-0.009668
29.717,58.9999,-0.014501
29.734,58.9999,-0.004834
29.749,58.9999,-0.013293
29.768,58.9999,-0.010876
29.781,58.9999,-0.012084
29.797,58.9999,-0.007251
29.813,58.9999,-0.007251
29.832,58.9999,-0.016918
29.845,58.9999,-0.016918
29.861,58.9999,-0.014501
29.877,58.9999,-0.016918
29.894,58.9999,-0.016918
29.910,58.9999,-0.008459
29.925,58.9999,-0.014501
29.957,58.9999,-0.015710
29.973,58.9999,-0.013293
29.988,58.9999,-0.015710
30.004,58.9999,-0.008459
30.021,58.9999,-0.009668
30.037,58.9999,-0.010876
30.053,58.9999,-0.009668
30.068,58.9999,-0.010876
30.085,58.9999,-0.010876
30.100,58.9999,-0.010876
30.116,58.9999,-0.010876
30.133,58.9999,-0.008459
30.149,58.9999,-0.010876
30.164,58.9999,-0.002417
30.180,58.9999,-0.016918
30.197,58.9999,-0.013293
30.213,58.9999,-0.013293
30.228,58.9999,-0.013293
30.244,58.9999,-0.010876
30.262,58.9999,-0.013293
30.276,58.9999,-0.010876
30.292,58.9999,-0.014501
30.309,58.9999,-0.012084
30.325,58.9999,-0.013293
30.340,58.9999,-0.012084
30.356,58.9999,-0.014501
30.375,58.9999,-0.009668
30.388,58.9999,-0.014501
30.404,58.9999,-0.009668
30.420,58.9999,-0.009668
30.437,58.9999,-0.010876
30.453,58.9999,-0.010876
30.469,58.9999,-0.008459
30.496,58.9999,-0.012084
30.512,58.9999,-0.013293
30.528,58.9999,-0.015710
30.544,58.9999,-0.012084
30.561,58.9999,-0.009668
30.576,58.9999,-0.012084
30.592,58.9999,-0.015710
30.608,58.9999,-0.012084
30.624,58.9999,-0.012084
30.640,58.9999,-0.013293
30.658,58.9999,-0.015710
30.672,58.9999,-0.015710
30.688,58.9999,-0.012084
30.704,58.9999,-0.012084
30.720,58.9999,-0.008459
30.736,58.9999,-0.010876
30.752,58.9999,-0.012084
30.768,58.9999,-0.015710
30.784,58.9999,-0.015710
30.803,58.9999,-0.012084
30.816,58.9999,-0.013293
30.832,58.9999,-0.008459
30.848,58.9999,-0.012084
30.865,58.9999,-0.010876
30.881,58.9999,-0.009668
30.896,58.9999,-0.009668
30.912,58.9999,-0.018127
30.928,58.9999,-0.009668
30.944,58.9999,-0.014501
30.960,58.9999,-0.014501
30.976,58.9999,-0.013293
30.994,58.9999,-0.007251
31.009,58.9999,-0.009668
31.024,58.9999,-0.013293
31.041,58.9999,-0.012084
31.065,58.9999,-0.007251
31.081,58.9999,-0.009668
31.097,58.9999,-0.009668
31.113,58.9999,-0.009668
31.129,58.9999,-0.015710
31.145,58.9999,-0.012084
31.161,58.9999,-0.012084
31.177,58.9999,-0.010876
31.193,58.9999,-0.010876
31.209,58.9999,-0.007251
31.227,58.9999,-0.007251
31.241,58.9999,-0.013293
31.257,58.9999,-0.007251
31.273,58.9999,-0.006042
31.289,58.9999,-0.007251
31.305,58.9999,-0.009668
31.321,58.9999,-0.012084
31.338,58.9999,-0.015710
31.353,58.9999,-0.013293
31.370,58.9999,-0.010876
31.386,58.9999,-0.010876
31.401,58.9999,-0.016918
31.419,58.9999,-0.014501
31.433,58.9999,-0.008459
31.450,58.9999,-0.010876
31.465,58.9999,-0.010876
31.482,58.9999,-0.007251
31.497,58.9999,-0.013293
31.513,58.9999,-0.012084
31.528,58.9999,-0.008459
31.551,58.9999,-0.012084
31.561,58.9999,-0.015710
31.576,58.9999,-0.012084
31.593,58.9999,-0.014501
31.617,58.9999,-0.012084
31.633,58.9999,-0.014501
31.649,58.9999,-0.013293
31.665,58.9999,-0.015710
31.683,58.9999,-0.016918
31.697,58.9999,-0.003625
31.713,58.9999,-0.008459
31.728,58.9999,-0.013293
31.745,58.9999,-0.007251
31.761,58.9999,-0.009668
31.779,58.9999,-0.014501
31.793,58.9999,-0.009668
31.809,58.9999,-0.012084
31.825,58.9999,-0.009668
31.840,58.9999,-0.007251
31.858,58.9999,-0.003625
31.873,58.9999,-0.012084
31.889,58.9999,-0.010876
31.904,58.9999,-0.013293
31.925,58.9999,-0.013293
31.936,58.9999,-0.015710
31.952,58.9999,-0.013293
31.969,58.9999,-0.006042
31.985,58.9999,-0.003625
32.000,58.9999,-0.013293
32.016,58.9999,-0.012084
32.032,58.9999,-0.012084
32.049,58.9999,-0.009668
32.065,58.9999,-0.008459
32.080,58.9999,-0.009668
32.097,58.9999,-0.014501
32.112,58.9999,-0.014501
32.129,58.9999,-0.013293
32.153,58.9999,-0.012084
32.169,58.9999,-0.010876
32.185,58.9999,-0.013293
32.200,58.9999,-0.007251
32.217,58.9999,-0.013293
32.232,58.9999,-0.013293
32.249,58.9999,-0.015710
32.264,58.9999,-0.015710
32.281,58.9999,-0.014501
32.297,58.9999,-0.010876
32.312,58.9999,-0.010876
32.328,58.9999,-0.014501
32.345,58.9999,-0.014501
32.361,58.9999,-0.012084
32.376,58.9999,-0.013293
32.400,58.9999,-0.013293
32.411,58.9999,-0.014501
32.425,58.9999,-0.010876
32.440,58.9999,-0.010876
32.457,58.9999,-0.015710
32.473,58.9999,-0.015710
32.489,58.9999,-0.013293
32.504,58.9999,-0.009668
32.522,58.9999,-0.012084
32.537,58.9999,-0.015710
32.552,58.9999,-0.009668
32.568,58.9999,-0.012084
32.585,58.9999,-0.012084
32.601,58.9999,-0.014501
32.617,58.9999,-0.009668
32.632,58.9999,-0.006042
32.649,58.9999,-0.013293
32.664,58.9999,-0.012084
32.682,58.9999,-0.016918
32.706,58.9999,-0.018127
32.722,58.9999,-0.016918
32.739,58.9999,-0.012084
32.754,58.9999,-0.010876
32.771,58.9999,-0.013293
32.787,58.9999,-0.014501
32.803,58.9999,-0.014501
32.818,58.9999,-0.015710
32.835,58.9999,-0.009668
32.851,58.9999,-0.014501
32.866,58.9999,-0.006042
32.882,58.9999,-0.010876
32.898,58.9999,-0.013293
32.914,58.9999,-0.006042
32.930,58.9999,-0.008459
32.946,58.9999,-0.016918
32.962,58.9999,-0.013293
32.979,58.9999,-0.008459
32.995,58.9999,-0.013293
33.011,58.9999,-0.007251
33.026,58.9999,-0.015710
33.042,58.9999,-0.014501
33.058,58.9999,-0.015710
33.081,58.9999,-0.013293
33.091,58.9999,-0.012084
33.107,58.9999,-0.013293
33.122,58.9999,-0.015710
33.139,58.9999,-0.015710
33.154,58.9999,-0.012084
33.170,58.9999,-0.014501
33.186,58.9999,-0.007251
33.210,58.9999,-0.007251
33.230,58.9999,-0.010876
33.251,58.9999,-0.012084
33.274,58.9999,-0.015710
33.290,58.9999,-0.010876
33.306,58.9999,-0.008459
33.322,58.9999,-0.014501
33.338,58.9999,-0.010876
33.354,58.9999,-0.010876
33.371,58.9999,-0.008459
33.387,58.9999,-0.012084
33.402,58.9999,-0.008459
33.418,58.9999,-0.013293
33.434,58.9999,-0.013293
33.456,58.9999,-0.014501
33.469,58.9999,-0.014501
33.483,58.9999,-0.014501
33.498,58.9999,-0.009668
33.515,58.9999,-0.013293
33.530,58.9999,-0.010876
33.546,58.9999,-0.007251
33.562,58.9999,-0.004834
33.580,58.9999,-0.010876
33.594,58.9999,-0.014501
33.610,58.9999,-0.018127
33.626,58.9999,-0.009668
33.643,58.9999,-0.009668
33.658,58.9999,-0.013293
33.674,58.9999,-0.013293
33.690,58.9999,-0.003625
33.707,58.9999,-0.014501
33.723,58.9999,-0.014501
33.739,58.9999,-0.015710
33.755,58.9999,-0.015710
33.770,58.9999,-0.014501
33.786,58.9999,-0.010876
33.802,58.9999,-0.009668
33.825,58.9999,-0.012084
33.844,58.9999,-0.012084
33.857,58.9999,-0.008459
33.873,58.9999,-0.012084
33.888,58.9999,-0.013293
33.905,58.9999,-0.016918
33.921,58.9999,-0.007251
33.936,58.9999,-0.013293
33.953,58.9999,-0.013293
33.968,58.9999,-0.010876
33.986,58.9999,-0.006042
34.000,58.9999,-0.014501
34.017,58.9999,-0.012084
34.033,58.9999,-0.012084
34.049,58.9999,-0.008459
34.065,58.9999,-0.008459
34.082,58.9999,-0.009668
34.097,58.9999,-0.007251
34.114,58.9999,-0.007251
34.128,58.9999,-0.010876
34.145,58.9999,-0.010876
34.161,58.9999,-0.013293
34.176,58.9999,-0.012084
34.203,58.9999,-0.010876
34.222,58.9999,-0.010876
34.241,58.9999,-0.008459
34.258,58.9999,-0.008459
34.273,58.9999,-0.010876
34.288,58.9999,-0.013293
34.304,58.9999,-0.013293
34.322,58.9999,-0.013293
34.337,58.9999,-0.009668
34.355,58.9999,-0.015710
34.378,58.9999,-0.013293
34.394,58.9999,-0.013293
34.410,58.9999,-0.015710
34.426,58.9999,-0.012084
34.448,58.9999,-0.012084
34.458,58.9999,-0.007251
34.475,58.9999,-0.013293
34.490,58.9999,-0.010876
34.507,58.9999,-0.006042
34.523,58.9999,-0.007251
34.539,58.9999,-0.008459
34.554,58.9999,-0.008459
34.571,58.9999,-0.010876
34.586,58.9999,-0.016918
34.603,58.9999,-0.016918
34.618,58.9999,-0.016918
34.635,58.9999,-0.015710
34.651,58.9999,-0.012084
34.669,58.9999,-0.012084
34.682,58.9999,-0.004834
34.698,58.9999,-0.006042
34.714,58.9999,-0.013293
34.730,58.9999,-0.014501
34.746,58.9999,-0.012084
34.762,58.9999,-0.010876
34.778,58.9999,-0.009668
34.794,58.9999,-0.013293
34.812,58.9999,-0.013293
34.826,58.9999,-0.016918
34.842,58.9999,-0.009668
34.858,58.9999,-0.014501
34.875,58.9999,-0.014501
34.890,58.9999,-0.010876
34.906,58.9999,-0.007251
34.922,58.9999,-0.007251
34.938,58.9999,-0.008459
34.954,58.9999,-0.012084
34.970,58.9999,-0.013293
34.986,58.9999,-0.013293
35.003,58.9999,-0.008459
35.018,58.9999,-0.003625
35.035,58.9999,-0.007251
35.050,58.9999,-0.014501
35.068,58.9999,-0.014501
35.082,58.9999,-0.010876
35.101,58.9999,-0.004834
35.114,58.9999,-0.009668
35.132,58.9999,-0.012084
35.147,58.9999,-0.012084
35.162,58.9999,-0.013293
35.178,58.9999,-0.015710
35.194,58.9999,-0.009668
35.210,58.9999,-0.009668
35.226,58.9999,-0.004834
35.243,58.9999,-0.012084
35.258,58.9999,-0.008459
35.274,58.9999,-0.008459
35.290,58.9999,-0.010876
35.308,58.9999,-0.013293
35.322,58.9999,-0.010876
35.338,58.9999,-0.006042
35.354,58.9999,-0.004834
35.372,58.9999,-0.014501
35.386,58.9999,-0.014501
35.402,58.9999,-0.009668
35.419,58.9999,-0.010876
35.434,58.9999,-0.008459
35.450,58.9999,-0.008459
35.467,58.9999,-0.015710
35.494,58.9999,-0.013293
35.510,58.9999,-0.013293
35.526,58.9999,-0.014501
35.542,58.9999,-0.013293
35.558,58.9999,-0.009668
35.574,58.9999,-0.010876
35.591,58.9999,-0.010876
35.606,58.9999,-0.007251
35.622,58.9999,-0.009668
35.639,58.9999,-0.014501
35.654,58.9999,-0.014501
35.670,58.9999,-0.010876
35.687,58.9999,-0.010876
35.702,58.9999,-0.013293
35.720,58.9999,-0.010876
35.734,58.9999,-0.013293
35.750,58.9999,-0.010876
35.766,58.9999,-0.008459
35.782,58.9999,-0.008459
35.798,58.9999,-0.003625
35.814,58.9999,-0.009668
35.830,58.9999,-0.007251
35.846,58.9999,-0.010876
35.862,58.9999,-0.008459
35.878,58.9999,-0.009668
35.894,58.9999,-0.008459
35.910,58.9999,-0.008459
35.932,58.9999,-0.009668
35.955,58.9999,-0.008459
35.974,58.9999,-0.007251
35.990,58.9999,-0.012084
36.006,58.9999,-0.014501
36.022,58.9999,-0.013293
36.051,58.9999,-0.012084
36.068,58.9999,-0.008459
36.084,58.9999,-0.010876
36.100,58.9999,-0.015710
36.120,58.9999,-0.013293
36.132,58.9999,-0.013293
36.148,58.9999,-0.013293
36.164,58.9999,-0.012084
36.180,58.9999,-0.012084
36.196,58.9999,-0.013293
36.212,58.9999,-0.013293
36.229,58.9811,-0.009668
36.244,58.7882,0.159515
36.260,58.5418,0.083383
36.276,58.2939,0.038670
36.293,58.0352,0.064048
36.307,57.8026,0.117219
36.326,57.5208,0.126887
36.340,57.3114,0.170391
36.355,57.0680,0.178850
36.371,56.8293,0.206645
36.389,56.5490,0.200602
36.403,56.3349,0.189726
36.419,56.0793,0.039879
36.435,55.8422,0.039879
36.455,55.5419,-0.004834
36.467,55.3463,0.008459
36.484,55.1030,-0.001208
36.499,54.8566,0.009668
36.516,54.6009,0.006042
36.531,54.3622,0.002417
36.548,54.1128,0.003625
36.575,53.6861,0.003625
36.591,53.4382,-0.001208
36.607,53.1918,0.001208
36.623,52.9788,-0.014501
36.642,52.9499,-0.122053
36.655,52.9499,-0.002417
36.672,52.9499,-0.001208
36.687,52.9499,0.000000
36.704,52.9499,0.000000
36.719,52.9499,0.000000
36.735,52.9499,0.006042
36.751,52.9499,0.006042
36.768,52.9499,0.000000
36.784,52.9499,0.000000
36.800,52.9499,-0.003625
36.815,52.9499,-0.004834
36.831,52.9499,0.001208
36.848,52.9499,0.004834
36.863,52.9499,0.001208
36.881,53.0529,-0.108760
36.895,53.2679,-0.148639
36.912,53.5190,-0.010876
36.927,53.7577,-0.018127
36.944,54.0272,0.001208
36.960,54.2581,0.009668
36.975,54.5000,0.001208
36.991,54.7463,-0.003625
37.009,55.0128,0.001208
37.024,55.2407,-0.003625
37.040,55.4948,0.001208
37.055,55.7304,0.003625
37.072,55.9815,0.000000
37.088,56.2279,0.000000
37.103,56.4681,0.000000
37.127,56.8438,-0.004834
37.151,57.2011,-0.007251
37.173,57.5399,-0.004834
37.190,57.8171,-0.019335
37.206,58.0665,-0.025377
37.222,58.3130,-0.024169
37.238,58.5656,-0.035045
37.254,58.7980,-0.035045
37.270,58.9486,-0.041087
37.286,58.9500,0.071298
37.302,58.9500,-0.043504
37.318,58.9500,-0.037462
37.334,58.9500,-0.041087
37.352,58.9500,-0.042296
37.367,58.9500,-0.045921
37.382,58.9500,-0.032628
37.398,58.9500,-0.036253
37.414,58.9500,-0.027794
37.430,58.9500,-0.036253
37.447,58.9500,-0.031420
37.464,58.9500,-0.029003
37.479,58.9500,-0.025377
37.494,58.9500,-0.025377
37.510,58.9500,-0.026586
37.526,58.9500,-0.029003
37.543,58.9500,-0.029003
37.558,58.9500,-0.026586
