Elapsed Time (s),Position (mm),Force (N)
-0.017,66.6000,-0.022961
0.000,66.6000,-0.021752
0.013,66.6000,-0.021752
0.030,66.6000,-0.021752
0.045,66.6000,-0.019335
0.061,66.6000,-0.025377
0.077,66.6000,-0.016918
0.093,66.6000,-0.029003
0.109,66.6000,-0.022961
0.125,66.6000,-0.022961
0.141,66.6000,-0.021752
0.158,66.6000,-0.025377
0.174,66.6000,-0.022961
0.189,66.6000,-0.026586
0.204,66.6000,-0.027794
0.221,66.6000,-0.026586
0.237,66.6000,-0.026586
0.255,66.6000,-0.021752
0.269,66.6000,-0.016918
0.284,66.6000,-0.022961
0.301,66.6000,-0.019335
0.316,66.6000,-0.027794
0.334,66.6000,-0.024169
0.348,66.6000,-0.014501
0.365,66.6000,-0.015710
0.380,66.6000,-0.020544
0.396,66.6000,-0.020544
0.412,66.6000,-0.019335
0.428,66.6000,-0.024169
0.450,66.6000,-0.020544
0.466,66.6000,-0.022961
0.482,66.6000,-0.025377
0.498,66.6000,-0.021752
0.515,66.6000,-0.021752
0.530,66.6000,-0.024169
0.547,66.6000,-0.018127
0.562,66.6000,-0.029003
0.580,66.6000,-0.024169
0.595,66.6000,-0.020544
0.610,66.6000,-0.018127
0.626,66.6000,-0.020544
0.643,66.6000,-0.020544
0.660,66.6000,-0.019335
0.674,66.6000,-0.020544
0.690,66.6000,-0.020544
0.707,66.6000,-0.025377
0.722,66.6000,-0.024169
0.738,66.6000,-0.024169
0.758,66.6000,-0.024169
0.770,66.6000,-0.024169
0.786,66.6000,-0.025377
0.802,66.6000,-0.020544
0.819,66.6000,-0.019335
0.834,66.6000,-0.019335
0.850,66.6000,-0.016918
0.866,66.6000,-0.021752
0.882,66.6000,-0.019335
0.898,66.6000,-0.021752
0.914,66.6000,-0.016918
0.931,66.6000,-0.021752
0.946,66.6000,-0.021752
0.964,66.6000,-0.024169
0.994,66.6000,-0.024169
1.009,66.6000,-0.015710
1.025,66.6000,-0.019335
1.042,66.6000,-0.019335
1.057,66.6000,-0.020544
1.074,66.6000,-0.020544
1.089,66.6000,-0.019335
1.105,66.6000,-0.014501
1.122,66.6000,-0.014501
1.137,66.6000,-0.021752
1.153,66.6000,-0.021752
1.169,66.6000,-0.020544
1.185,66.6000,-0.014501
1.201,66.6000,-0.020544
1.217,66.6000,-0.026586
1.233,66.6000,-0.029003
1.249,66.6000,-0.021752
1.265,66.6000,-0.018127
1.289,66.6000,-0.022961
1.300,66.6000,-0.016918
1.313,66.6000,-0.014501
1.329,66.6000,-0.019335
1.345,66.6000,-0.020544
1.362,66.6000,-0.024169
1.377,66.6000,-0.021752
1.393,66.6000,-0.020544
1.410,66.6000,-0.021752
1.425,66.6000,-0.021752
1.441,66.6000,-0.019335
1.457,66.6000,-0.025377
1.473,66.6000,-0.022961
1.489,66.6000,-0.021752
1.505,66.6000,-0.021752
1.534,66.6000,-0.018127
1.550,66.6000,-0.018127
1.566,66.6000,-0.020544
1.582,66.6000,-0.009668
1.598,66.6000,-0.015710
1.615,66.6000,-0.018127
1.633,66.6000,-0.022961
1.645,66.6000,-0.021752
1.663,66.6000,-0.021752
1.679,66.6000,-0.022961
1.695,66.6000,-0.022961
1.710,66.6000,-0.024169
1.726,66.6000,-0.021752
1.742,66.6000,-0.030211
1.758,66.6000,-0.019335
1.774,66.6000,-0.014501
1.790,66.6000,-0.015710
1.806,66.6000,-0.014501
1.821,66.6000,-0.019335
1.838,66.6000,-0.021752
1.854,66.6000,-0.022961
1.869,66.6000,-0.021752
1.885,66.6000,-0.019335
1.902,66.6000,-0.019335
1.917,66.6000,-0.022961
1.933,66.6000,-0.020544
1.950,66.6000,-0.024169
1.966,66.6000,-0.014501
1.981,66.6000,-0.014501
1.997,66.6000,-0.018127
2.014,66.6000,-0.016918
2.030,66.6000,-0.018127
2.046,66.6000,-0.022961
2.061,66.6000,-0.019335
2.090,66.6000,-0.012084
2.106,66.6000,-0.015710
2.121,66.6000,-0.015710
2.137,66.6000,-0.016918
2.154,66.6000,-0.016918
2.169,66.6000,-0.021752
2.187,66.6000,-0.022961
2.201,66.6000,-0.022961
2.218,66.6000,-0.022961
2.233,66.6000,-0.018127
2.249,66.6000,-0.020544
2.266,66.6000,-0.024169
2.281,66.6000,-0.024169
2.298,66.6000,-0.020544
2.313,66.6000,-0.022961
2.331,66.6000,-0.018127
2.347,66.6000,-0.018127
2.363,66.6000,-0.021752
2.377,66.6000,-0.015710
2.395,66.6000,-0.018127
2.409,66.6000,-0.020544
2.425,66.6000,-0.015710
2.441,66.6000,-0.016918
2.458,66.6000,-0.018127
2.473,66.6000,-0.021752
2.490,66.6000,-0.024169
2.505,66.6000,-0.022961
2.523,66.6000,-0.024169
2.539,66.6000,-0.022961
2.554,66.6000,-0.019335
2.569,66.6000,-0.014501
2.586,66.6000,-0.020544
2.603,66.6000,-0.020544
2.621,66.6000,-0.022961
2.645,66.6000,-0.019335
2.661,66.6000,-0.018127
2.676,66.6000,-0.015710
2.692,66.6000,-0.018127
2.709,66.6000,-0.019335
2.724,66.6000,-0.021752
2.742,66.6000,-0.022961
2.756,66.6000,-0.020544
2.773,66.6000,-0.020544
2.789,66.6000,-0.022961
2.805,66.6000,-0.024169
2.820,66.6000,-0.024169
2.836,66.6000,-0.016918
2.852,66.6000,-0.020544
2.868,66.6000,-0.021752
2.884,66.6000,-0.016918
2.900,66.6000,-0.025377
2.916,66.6000,-0.025377
2.932,66.6000,-0.016918
2.949,66.6000,-0.013293
2.964,66.6000,-0.020544
2.980,66.6000,-0.025377
2.997,66.6000,-0.018127
3.012,66.6000,-0.015710
3.028,66.6000,-0.013293
3.044,66.6000,-0.019335
3.060,66.6000,-0.021752
3.076,66.6000,-0.022961
3.093,66.6000,-0.020544
3.109,66.6000,-0.020544
3.124,66.6000,-0.024169
3.140,66.6000,-0.016918
3.157,66.6000,-0.015710
3.174,66.6000,-0.019335
3.198,66.6000,-0.015710
3.214,66.6000,-0.015710
3.230,66.6000,-0.024169
3.246,66.6000,-0.024169
3.265,66.6000,-0.024169
3.278,66.6000,-0.018127
3.294,66.6000,-0.014501
3.310,66.6000,-0.022961
3.326,66.6000,-0.019335
3.343,66.6000,-0.019335
3.360,66.6000,-0.020544
3.375,66.6000,-0.019335
3.391,66.6000,-0.021752
3.406,66.6000,-0.022961
3.422,66.6000,-0.013293
3.437,66.6000,-0.016918
3.454,66.6000,-0.016918
3.470,66.6000,-0.022961
3.486,66.6000,-0.015710
3.502,66.6000,-0.018127
3.518,66.6000,-0.027794
3.534,66.6000,-0.020544
3.550,66.6000,-0.015710
3.566,66.6000,-0.019335
3.582,66.6000,-0.016918
3.598,66.6000,-0.019335
3.614,66.6000,-0.014501
3.630,66.6000,-0.013293
3.647,66.6000,-0.015710
3.662,66.6000,-0.021752
3.678,66.6000,-0.021752
3.694,66.6000,-0.025377
3.710,66.6000,-0.026586
3.725,66.6000,-0.019335
3.742,66.6000,-0.016918
3.758,66.6000,-0.020544
3.774,66.6000,-0.016918
3.790,66.6000,-0.018127
3.806,66.6000,-0.015710
3.822,66.6000,-0.016918
3.838,66.6000,-0.024169
3.858,66.6000,-0.018127
3.870,66.6000,-0.012084
3.886,66.6000,-0.024169
3.902,66.6000,-0.024169
3.919,66.6000,-0.016918
3.934,66.6000,-0.016918
3.950,66.6000,-0.015710
3.966,66.6000,-0.016918
3.982,66.6000,-0.016918
3.998,66.6000,-0.020544
4.014,66.6000,-0.029003
4.029,66.6000,-0.020544
4.046,66.6000,-0.019335
4.062,66.6000,-0.019335
4.077,66.6000,-0.020544
4.094,66.6000,-0.018127
4.110,66.6000,-0.019335
4.126,66.6000,-0.021752
4.141,66.6000,-0.016918
4.158,66.6000,-0.015710
4.174,66.6000,-0.014501
4.193,66.6000,-0.016918
4.205,66.6000,-0.018127
4.221,66.6000,-0.020544
4.237,66.6000,-0.018127
4.254,66.6000,-0.022961
4.270,66.6000,-0.018127
4.286,66.6000,-0.020544
4.314,66.6000,-0.018127
4.330,66.6000,-0.018127
4.346,66.6000,-0.019335
4.362,66.6000,-0.018127
4.381,66.6000,-0.014501
4.395,66.6000,-0.016918
4.412,66.6000,-0.016918
4.426,66.6000,-0.024169
4.442,66.6000,-0.024169
4.460,66.6000,-0.022961
4.474,66.6000,-0.019335
4.491,66.6000,-0.016918
4.506,66.6000,-0.019335
4.523,66.6000,-0.018127
4.539,66.6000,-0.018127
4.556,66.6000,-0.018127
4.571,66.6000,-0.016918
4.590,66.6000,-0.013293
4.602,66.6000,-0.013293
4.619,66.6000,-0.020544
4.634,66.6000,-0.013293
4.650,66.6000,-0.016918
4.669,66.6000,-0.019335
4.682,66.6000,-0.020544
4.698,66.6000,-0.018127
4.714,66.6000,-0.018127
4.732,66.6000,-0.019335
4.747,66.6000,-0.013293
4.762,66.6000,-0.018127
4.778,66.6000,-0.016918
4.795,66.6000,-0.016918
4.811,66.6000,-0.019335
4.826,66.6000,-0.022961
4.842,66.6000,-0.024169
4.858,66.6000,-0.018127
4.874,66.6000,-0.020544
4.890,66.6000,-0.018127
4.906,66.6000,-0.016918
4.923,66.6000,-0.016918
4.939,66.6000,-0.018127
4.954,66.6000,-0.018127
4.970,66.6000,-0.010876
4.987,66.6000,-0.016918
5.002,66.6000,-0.016918
5.018,66.6000,-0.020544
5.037,66.6000,-0.015710
5.050,66.6000,-0.024169
5.067,66.6000,-0.015710
5.082,66.6000,-0.015710
5.098,66.6000,-0.018127
5.114,66.6000,-0.016918
5.130,66.6000,-0.020544
5.146,66.6000,-0.016918
5.166,66.6000,-0.019335
5.178,66.6000,-0.015710
5.195,66.6000,-0.013293
5.210,66.6000,-0.013293
5.228,66.6000,-0.016918
5.242,66.6000,-0.019335
5.258,66.6000,-0.015710
5.274,66.6000,-0.013293
5.290,66.6000,-0.013293
5.306,66.6000,-0.016918
5.323,66.6000,-0.022961
5.338,66.6000,-0.018127
5.356,66.6000,-0.019335
5.370,66.6000,-0.019335
5.388,66.6000,-0.018127
5.412,66.6000,-0.013293
5.428,66.6000,-0.012084
5.444,66.6000,-0.015710
5.460,66.6000,-0.015710
5.476,66.6000,-0.021752
5.493,66.6000,-0.021752
5.511,66.6000,-0.014501
5.524,66.6000,-0.013293
5.540,66.6000,-0.014501
5.556,66.6000,-0.020544
5.572,66.6000,-0.020544
5.588,66.6000,-0.018127
5.605,66.6000,-0.018127
5.620,66.6000,-0.015710
5.636,66.6000,-0.020544
5.653,66.6000,-0.019335
5.669,66.6000,-0.012084
5.684,66.6000,-0.012084
5.700,66.6000,-0.012084
5.717,66.6000,-0.018127
5.732,66.6000,-0.018127
5.748,66.6000,-0.015710
5.764,66.6000,-0.013293
5.782,66.6000,-0.018127
5.796,66.6000,-0.020544
5.813,66.6000,-0.020544
5.828,66.6000,-0.019335
5.844,66.6000,-0.021752
5.860,66.6000,-0.018127
5.878,66.6000,-0.020544
5.892,66.6000,-0.019335
5.908,66.6000,-0.015710
5.924,66.6000,-0.015710
5.941,66.6000,-0.018127
5.965,66.6000,-0.018127
5.981,66.6000,-0.016918
5.997,66.6000,-0.016918
6.013,66.6000,-0.016918
6.030,66.6000,-0.022961
6.046,66.6000,-0.021752
6.062,66.6000,-0.021752
6.076,66.6000,-0.014501
6.094,66.6000,-0.016918
6.109,66.6000,-0.020544
6.126,66.6000,-0.020544
6.141,66.6000,-0.016918
6.157,66.6000,-0.020544
6.173,66.6000,-0.015710
6.189,66.6000,-0.015710
6.205,66.6000,-0.014501
6.221,66.6000,-0.019335
6.237,66.6000,-0.018127
6.253,66.6000,-0.014501
6.270,66.6000,-0.016918
6.285,66.6000,-0.015710
6.301,66.6000,-0.025377
6.317,66.6000,-0.018127
6.334,66.6000,-0.015710
6.350,66.6000,-0.012084
6.365,66.6000,-0.018127
6.381,66.6000,-0.014501
6.397,66.6000,-0.020544
6.413,66.6000,-0.021752
6.430,66.6000,-0.019335
6.445,66.6000,-0.024169
6.462,66.6000,-0.024169
6.477,66.6000,-0.015710
6.497,66.6000,-0.016918
6.522,66.6000,-0.018127
6.536,66.6000,-0.020544
6.553,66.6000,-0.019335
6.568,66.6000,-0.021752
6.585,66.6000,-0.021752
6.601,66.6000,-0.016918
6.619,66.6000,-0.018127
6.633,66.6000,-0.018127
6.649,66.6000,-0.013293
6.664,66.6000,-0.013293
6.681,66.6000,-0.021752
6.696,66.6000,-0.019335
6.713,66.6000,-0.015710
6.729,66.6000,-0.014501
6.744,66.6000,-0.018127
6.764,66.6000,-0.018127
6.776,66.6000,-0.021752
6.792,66.6000,-0.018127
6.808,66.6000,-0.019335
6.825,66.6000,-0.015710
6.842,66.6000,-0.021752
6.857,66.6000,-0.015710
6.873,66.6000,-0.013293
6.890,66.6000,-0.018127
6.905,66.6000,-0.020544
6.924,66.6000,-0.022961
6.936,66.6000,-0.013293
6.954,66.6000,-0.018127
6.969,66.6000,-0.016918
6.984,66.6000,-0.014501
7.000,66.6000,-0.022961
7.018,66.6000,-0.024169
7.032,66.6000,-0.024169
7.050,66.6000,-0.010876
7.074,66.6000,-0.010876
7.089,66.6000,-0.021752
7.105,66.6000,-0.018127
7.121,66.6000,-0.018127
7.140,66.6000,-0.016918
7.154,66.6000,-0.015710
7.169,66.6000,-0.014501
7.185,66.6000,-0.014501
7.202,66.6000,-0.026586
7.217,66.6000,-0.016918
7.235,66.6000,-0.019335
7.249,66.6000,-0.019335
7.265,66.6000,-0.020544
7.281,66.6000,-0.015710
7.297,66.6000,-0.022961
7.313,66.6000,-0.019335
7.329,66.6000,-0.014501
7.345,66.6000,-0.020544
7.361,66.6000,-0.018127
7.378,66.6000,-0.019335
7.394,66.6000,-0.022961
7.410,66.6000,-0.018127
7.425,66.6000,-0.018127
7.444,66.6000,-0.015710
7.458,66.6000,-0.015710
7.473,66.6000,-0.018127
7.489,66.6000,-0.025377
7.507,66.6000,-0.015710
7.522,66.6000,-0.014501
7.537,66.6000,-0.019335
7.555,66.6000,-0.012084
7.570,66.6000,-0.014501
7.585,66.6000,-0.016918
7.602,66.6000,-0.018127
7.627,66.6000,-0.015710
7.642,66.6000,-0.008459
7.658,66.6000,-0.008459
7.674,66.6000,-0.021752
7.692,66.6000,-0.020544
7.707,66.6000,-0.015710
7.722,66.6000,-0.013293
7.738,66.6000,-0.014501
7.759,66.6000,-0.020544
7.770,66.6000,-0.018127
7.786,66.6000,-0.016918
7.802,66.6000,-0.016918
7.818,66.6000,-0.021752
7.834,66.6000,-0.022961
7.850,66.6000,-0.016918
7.867,66.6000,-0.021752
7.882,66.6000,-0.022961
7.900,66.6000,-0.019335
7.917,66.6000,-0.018127
7.930,66.6000,-0.020544
7.946,66.6000,-0.008459
7.962,66.6000,-0.008459
7.978,66.6000,-0.018127
7.994,66.6000,-0.018127
8.010,66.6000,-0.013293
8.026,66.6000,-0.015710
8.045,66.6000,-0.015710
8.058,66.6000,-0.019335
8.074,66.6000,-0.022961
8.090,66.6000,-0.020544
8.107,66.6000,-0.019335
8.123,66.6000,-0.019335
8.138,66.6000,-0.020544
8.154,66.6000,-0.014501
8.170,66.6000,-0.018127
8.186,66.6000,-0.018127
8.202,66.6000,-0.014501
8.218,66.6000,-0.018127
8.236,66.6000,-0.018127
8.251,66.6000,-0.021752
8.266,66.6000,-0.019335
8.282,66.6000,-0.024169
8.302,66.6000,-0.020544
8.315,66.6000,-0.018127
8.330,66.6000,-0.019335
8.346,66.6000,-0.019335
8.363,66.6000,-0.014501
8.378,66.6000,-0.016918
8.394,66.6000,-0.019335
8.410,66.6000,-0.016918
8.427,66.6000,-0.013293
8.442,66.6000,-0.015710
8.458,66.6000,-0.018127
8.474,66.6000,-0.021752
8.490,66.6000,-0.022961
8.506,66.6000,-0.024169
8.522,66.6000,-0.018127
8.538,66.6000,-0.016918
8.554,66.6000,-0.016918
8.570,66.6000,-0.025377
8.586,66.6000,-0.025377
8.602,66.6000,-0.019335
8.619,66.6000,-0.020544
8.634,66.6000,-0.016918
8.650,66.6000,-0.014501
8.667,66.6000,-0.016918
8.683,66.6000,-0.016918
8.698,66.6000,-0.021752
8.730,66.6000,-0.021752
8.745,66.6000,-0.018127
8.760,66.6000,-0.018127
8.777,66.6000,-0.016918
8.794,66.6000,-0.016918
8.809,66.6000,-0.019335
8.826,66.6000,-0.019335
8.840,66.6000,-0.019335
8.857,66.6000,-0.015710
8.873,66.6000,-0.019335
8.888,66.6000,-0.021752
8.905,66.6000,-0.020544
8.920,66.6000,-0.012084
8.937,66.6000,-0.019335
8.952,66.6000,-0.019335
8.976,66.6000,-0.019335
8.986,66.6000,-0.015710
9.001,66.6000,-0.016918
9.017,66.6000,-0.016918
9.034,66.6000,-0.018127
9.049,66.6000,-0.021752
9.065,66.6000,-0.021752
9.080,66.6000,-0.020544
9.098,66.6000,-0.015710
9.113,66.6000,-0.007251
9.129,66.6000,-0.010876
9.145,66.6000,-0.019335
9.161,66.6000,-0.019335
9.178,66.6000,-0.013293
9.192,66.6000,-0.013293
9.209,66.6000,-0.020544
9.225,66.6000,-0.020544
9.240,66.6000,-0.016918
9.258,66.6000,-0.010876
9.282,66.6000,-0.008459
9.298,66.6000,-0.014501
9.313,66.6000,-0.018127
9.329,66.6000,-0.016918
9.346,66.6000,-0.016918
9.361,66.6000,-0.014501
9.378,66.6000,-0.015710
9.394,66.6000,-0.014501
9.410,66.6000,-0.019335
9.425,66.6000,-0.019335
9.443,66.6000,-0.014501
9.457,66.6000,-0.018127
9.474,66.6000,-0.016918
9.490,66.6000,-0.019335
9.505,66.6000,-0.020544
9.524,66.6000,-0.019335
9.538,66.6000,-0.018127
9.554,66.6000,-0.016918
9.569,66.6000,-0.016918
9.586,66.6000,-0.016918
9.601,66.6000,-0.019335
9.617,66.6000,-0.018127
9.633,66.6000,-0.020544
9.651,66.6000,-0.018127
9.666,66.6000,-0.018127
9.682,66.6000,-0.018127
9.697,66.6000,-0.016918
9.713,66.6000,-0.009668
9.731,66.6000,-0.010876
9.745,66.6000,-0.018127
9.763,66.6000,-0.018127
9.778,66.6000,-0.018127
9.793,66.6000,-0.018127
9.811,66.6000,-0.016918
9.839,66.6000,-0.012084
9.855,66.6000,-0.021752
9.871,66.6000,-0.021752
9.887,66.6000,-0.016918
9.903,66.6000,-0.016918
9.920,66.6000,-0.020544
9.936,66.6000,-0.021752
9.955,66.6000,-0.019335
9.967,66.6000,-0.022961
9.983,66.6000,-0.022961
10.000,66.6000,-0.021752
10.015,66.6000,-0.016918
10.032,66.6000,-0.012084
10.047,66.6000,-0.014501
10.063,66.6000,-0.014501
10.079,66.6000,-0.016918
10.095,66.6000,-0.021752
10.111,66.6000,-0.018127
10.127,66.6000,-0.018127
10.146,66.6000,-0.016918
10.159,66.6000,-0.014501
10.175,66.6000,-0.016918
10.191,66.6000,-0.021752
10.208,66.6000,-0.019335
10.223,66.6000,-0.018127
10.239,66.6000,-0.018127
10.255,66.6000,-0.015710
10.273,66.6000,-0.010876
10.287,66.6000,-0.020544
10.305,66.6000,-0.020544
10.319,66.6000,-0.016918
10.335,66.6000,-0.021752
10.351,66.6000,-0.020544
10.367,66.6000,-0.018127
10.391,66.6000,-0.012084
10.406,66.6000,-0.014501
10.422,66.6000,-0.015710
10.438,66.6000,-0.015710
10.455,66.6000,-0.018127
10.471,66.6000,-0.016918
10.486,66.6000,-0.018127
10.502,66.6000,-0.015710
10.519,66.6000,-0.013293
10.534,66.6000,-0.009668
10.550,66.6000,-0.024169
10.566,66.6000,-0.021752
10.583,66.6000,-0.016918
10.598,66.6000,-0.016918
10.617,66.6000,-0.016918
10.630,66.6000,-0.010876
10.647,66.6000,-0.015710
10.662,66.6000,-0.020544
10.678,66.6000,-0.020544
10.694,66.6000,-0.015710
10.710,66.6000,-0.014501
10.726,66.6000,-0.018127
10.742,66.6000,-0.018127
10.758,66.6000,-0.014501
10.774,66.6000,-0.013293
10.790,66.6000,-0.014501
10.806,66.6000,-0.018127
10.829,66.6000,-0.018127
10.840,66.6000,-0.018127
10.855,66.6000,-0.014501
10.871,66.6000,-0.018127
10.886,66.6000,-0.020544
10.903,66.6000,-0.021752
10.918,66.6000,-0.014501
10.934,66.6000,-0.014501
10.956,66.6000,-0.010876
10.972,66.6000,-0.010876
10.988,66.6000,-0.019335
11.003,66.6000,-0.019335
11.020,66.6000,-0.019335
11.035,66.6000,-0.018127
11.053,66.6000,-0.015710
11.072,66.6000,-0.015710
11.083,66.6000,-0.013293
11.100,66.6000,-0.018127
11.116,66.6000,-0.020544
11.133,66.5941,-0.020544
11.148,66.5721,-0.002417
11.164,66.5489,-0.018127
11.179,66.5278,-0.015710
11.195,66.5038,-0.009668
11.211,66.4816,-0.004834
11.227,66.4586,-0.004834
11.244,66.4360,-0.004834
11.265,66.4056,-0.002417
11.275,66.3897,0.007251
11.291,66.3669,0.008459
11.307,66.3445,0.007251
11.323,66.3207,0.009668
11.340,66.2977,0.008459
11.355,66.2755,0.010876
11.372,66.2502,0.016918
11.388,66.2281,0.019335
11.403,66.2064,0.019335
11.420,66.1823,0.027794
11.437,66.1588,0.022961
11.452,66.1365,0.026586
11.469,66.1127,0.032628
11.493,66.0775,0.036253
11.508,66.0560,0.036253
11.524,66.0329,0.037462
11.540,66.0104,0.044713
11.557,65.9847,0.043504
11.573,65.9626,0.042296
11.588,65.9415,0.041087
11.604,65.9176,0.044713
11.621,65.8945,0.055589
11.637,65.8717,0.055589
11.654,65.8459,0.053172
11.668,65.8268,0.054380
11.684,65.8035,0.050755
11.701,65.7793,0.056797
11.716,65.7578,0.059214
11.732,65.7338,0.062839
11.748,65.7120,0.061631
11.764,65.6883,0.059214
11.780,65.6662,0.058005
11.804,65.6307,0.067673
11.815,65.6167,0.070090
11.828,65.5969,0.068882
11.844,65.5743,0.066465
11.860,65.5511,0.068882
11.876,65.5285,0.067673
11.892,65.5056,0.074924
11.908,65.4824,0.077341
11.929,65.4524,0.076132
11.941,65.4350,0.079758
11.958,65.4117,0.080966
11.976,65.3858,0.076132
11.990,65.3651,0.074924
12.005,65.3439,0.071298
12.022,65.3179,0.076132
12.047,65.2825,0.080966
12.063,65.2613,0.078549
12.078,65.2386,0.079758
12.094,65.2161,0.079758
12.112,65.1908,0.076132
12.126,65.1692,0.072507
12.142,65.1469,0.074924
12.158,65.1240,0.074924
12.181,65.0908,0.074924
12.198,65.0653,0.074924
12.215,65.0430,0.072507
12.230,65.0209,0.072507
12.245,64.9993,0.061631
12.260,64.9767,0.061631
12.270,64.9632,0.049546
12.286,64.9395,0.032628
12.303,64.9166,0.012084
12.318,64.8944,0.012084
12.334,64.8706,0.002417
12.351,64.8478,0.009668
12.366,64.8257,-0.001208
12.382,64.8019,-0.001208
12.397,64.7793,0.004834
12.419,64.7504,0.006042
12.430,64.7343,0.001208
12.446,64.7107,-0.004834
12.462,64.6885,0.001208
12.478,64.6646,0.002417
12.494,64.6423,0.001208
12.512,64.6163,-0.006042
12.526,64.5955,0.001208
12.542,64.5723,0.004834
12.558,64.5494,-0.002417
12.573,64.5279,-0.001208
12.596,64.4960,0.006042
12.611,64.4738,0.003625
12.627,64.4516,0.001208
12.643,64.4291,0.002417
12.661,64.4030,-0.001208
12.675,64.3828,0.000000
12.691,64.3595,0.006042
12.707,64.3373,0.004834
12.723,64.3138,-0.003625
12.740,64.2897,-0.002417
12.755,64.2677,-0.006042
12.771,64.2455,0.001208
12.790,64.2175,0.003625
12.803,64.1990,-0.007251
12.819,64.1765,0.002417
12.835,64.1537,0.000000
12.853,64.1276,0.000000
12.867,64.1067,-0.002417
12.883,64.0840,-0.002417
12.898,64.0621,0.001208
12.915,64.0385,-0.001208
12.930,64.0157,0.001208
12.949,63.9890,0.000000
12.963,63.9700,0.000000
12.980,63.9449,0.000000
12.996,63.9222,-0.002417
13.014,63.8961,-0.002417
13.028,63.8757,0.000000
13.044,63.8532,0.000000
13.059,63.8323,-0.001208
13.074,63.8099,-0.001208
13.091,63.7856,-0.002417
13.107,63.7628,0.000000
13.123,63.7406,-0.002417
13.146,63.7061,-0.002417
13.164,63.6818,-0.004834
13.179,63.6595,0.000000
13.194,63.6377,-0.001208
13.211,63.6131,-0.007251
13.227,63.5905,0.003625
13.243,63.5681,0.003625
13.261,63.5424,0.000000
13.274,63.5224,0.002417
13.290,63.5000,-0.002417
13.306,63.4771,-0.004834
13.327,63.4480,-0.004834
13.339,63.4301,-0.001208
13.354,63.4080,-0.001208
13.370,63.3853,0.000000
13.388,63.3581,-0.003625
13.402,63.3384,-0.003625
13.418,63.3152,-0.004834
13.434,63.2934,-0.001208
13.451,63.2692,0.002417
13.467,63.2461,0.006042
13.483,63.2239,0.006042
13.500,63.1989,0.001208
13.515,63.1775,-0.004834
13.531,63.1551,-0.003625
13.546,63.1330,-0.001208
13.563,63.1080,-0.001208
13.579,63.0856,-0.002417
13.598,63.0588,0.000000
13.612,63.0384,0.000000
13.627,63.0168,-0.007251
13.644,62.9922,0.001208
13.672,62.9528,0.001208
13.686,62.9322,-0.003625
13.702,62.9088,0.001208
13.718,62.8865,0.004834
13.735,62.8612,0.004834
13.751,62.8395,-0.004834
13.768,62.8151,-0.003625
13.782,62.7947,0.001208
13.799,62.7702,0.004834
13.815,62.7478,0.001208
13.830,62.7260,-0.003625
13.847,62.7013,-0.003625
13.862,62.6792,-0.001208
13.882,62.6501,-0.002417
13.895,62.6327,-0.006042
13.911,62.6103,-0.001208
13.927,62.5861,0.003625
13.942,62.5654,0.002417
13.960,62.5397,0.001208
13.974,62.5192,-0.002417
13.991,62.4959,-0.001208
14.006,62.4737,0.001208
14.026,62.4439,0.003625
14.038,62.4267,0.001208
14.054,62.4044,-0.001208
14.070,62.3818,0.002417
14.090,62.3522,-0.001208
14.103,62.3353,-0.001208
14.119,62.3121,-0.003625
14.134,62.2899,-0.001208
14.150,62.2667,0.004834
14.166,62.2433,0.004834
14.182,62.2212,-0.004834
14.206,62.1868,0.001208
14.221,62.1653,0.003625
14.237,62.1419,0.002417
14.253,62.1195,0.001208
14.270,62.0943,-0.004834
14.285,62.0734,-0.009668
14.302,62.0493,-0.003625
14.318,62.0260,0.002417
14.333,62.0049,0.002417
14.350,61.9801,0.000000
14.365,61.9580,0.004834
14.383,61.9321,0.003625
14.397,61.9131,-0.003625
14.413,61.8892,-0.003625
14.429,61.8656,0.000000
14.446,61.8427,-0.002417
14.461,61.8208,-0.001208
14.477,61.7984,-0.001208
14.493,61.7748,-0.001208
14.509,61.7516,-0.003625
14.525,61.7296,0.001208
14.541,61.7050,0.001208
14.557,61.6824,0.002417
14.573,61.6602,0.006042
14.589,61.6378,-0.003625
14.607,61.6119,0.003625
14.622,61.5894,0.002417
14.638,61.5677,0.002417
14.653,61.5459,0.001208
14.671,61.5179,0.007251
14.685,61.4997,0.007251
14.701,61.4771,0.000000
14.717,61.4542,-0.003625
14.741,61.4198,-0.001208
14.756,61.3973,-0.002417
14.772,61.3755,-0.002417
14.788,61.3512,0.000000
14.806,61.3259,0.000000
14.821,61.3054,0.002417
14.839,61.2795,0.001208
14.853,61.2584,-0.003625
14.869,61.2358,0.000000
14.884,61.2140,0.001208
14.900,61.1918,0.001208
14.919,61.1634,-0.003625
14.933,61.1444,0.003625
14.948,61.1222,0.000000
14.964,61.1001,-0.004834
14.981,61.0753,-0.001208
14.996,61.0540,-0.002417
15.012,61.0295,-0.004834
15.027,61.0085,-0.007251
15.044,60.9838,-0.007251
15.060,60.9617,-0.001208
15.075,60.9397,-0.004834
15.093,60.9135,-0.004834
15.108,60.8924,-0.001208
15.124,60.8701,-0.001208
15.140,60.8447,0.003625
15.156,60.8232,0.004834
15.172,60.8012,0.001208
15.188,60.7788,-0.002417
15.207,60.7508,-0.002417
15.220,60.7317,-0.004834
15.236,60.7097,-0.001208
15.252,60.6871,-0.003625
15.267,60.6642,-0.001208
15.283,60.6400,-0.002417
15.300,60.6178,-0.006042
15.315,60.5955,0.000000
15.332,60.5698,-0.001208
15.348,60.5500,-0.002417
15.364,60.5500,-0.022961
15.380,60.5500,-0.002417
15.397,60.5500,-0.004834
15.412,60.5500,-0.012084
15.428,60.5500,-0.010876
15.443,60.5500,0.001208
15.460,60.5500,0.004834
15.476,60.5500,-0.001208
15.492,60.5500,0.000000
15.507,60.5500,0.003625
15.523,60.5500,-0.004834
15.540,60.5500,-0.003625
15.557,60.5500,0.003625
15.571,60.5500,0.003625
15.588,60.5500,-0.010876
15.603,60.5500,-0.010876
15.622,60.5500,-0.004834
15.635,60.5500,-0.001208
15.651,60.5500,-0.002417
15.668,60.5500,0.000000
15.683,60.5500,0.000000
15.700,60.5500,-0.003625
15.716,60.5500,0.000000
15.732,60.5500,0.000000
15.747,60.5500,0.000000
15.768,60.5500,0.001208
15.789,60.5500,0.006042
15.806,60.5500,-0.004834
15.821,60.5500,-0.004834
15.839,60.5507,-0.002417
15.853,60.5716,-0.002417
15.870,60.5948,-0.010876
15.885,60.6173,0.003625
15.902,60.6413,0.002417
15.917,60.6627,-0.001208
15.933,60.6863,-0.007251
15.950,60.7090,-0.002417
15.966,60.7324,0.003625
15.983,60.7565,0.003625
15.999,60.7799,-0.001208
16.014,60.8005,-0.002417
16.029,60.8235,-0.003625
16.045,60.8459,0.001208
16.063,60.8717,0.001208
16.077,60.8923,0.001208
16.094,60.9154,0.000000
16.109,60.9377,-0.002417
16.126,60.9621,0.001208
16.141,60.9841,0.001208
16.158,61.0079,-0.004834
16.175,61.0317,-0.003625
16.190,61.0546,0.004834
16.205,61.0758,0.003625
16.221,61.0982,-0.004834
16.237,61.1223,0.001208
16.253,61.1448,0.002417
16.269,61.1669,-0.006042
16.285,61.1898,-0.002417
16.301,61.2134,-0.004834
16.317,61.2364,-0.001208
16.333,61.2585,-0.002417
16.356,61.2928,-0.004834
16.372,61.3151,-0.001208
16.388,61.3379,-0.006042
16.404,61.3605,-0.006042
16.420,61.3843,-0.006042
16.436,61.4076,-0.003625
16.452,61.4293,-0.003625
16.468,61.4535,0.002417
16.484,61.4764,0.002417
16.500,61.4981,-0.001208
16.516,61.5212,0.001208
16.532,61.5440,-0.003625
16.549,61.5681,-0.001208
16.564,61.5907,-0.001208
16.580,61.6127,-0.004834
16.597,61.6382,-0.001208
16.612,61.6596,-0.002417
16.628,61.6822,-0.006042
16.646,61.7076,-0.003625
16.661,61.7298,-0.007251
16.676,61.7515,-0.004834
16.692,61.7732,-0.004834
16.710,61.7995,-0.003625
16.724,61.8204,-0.001208
16.740,61.8428,0.002417
16.756,61.8650,-0.001208
16.775,61.8932,0.001208
16.788,61.9119,0.003625
16.804,61.9345,-0.003625
16.820,61.9568,-0.004834
16.837,61.9817,0.000000
16.852,62.0042,-0.006042
16.872,62.0319,-0.002417
16.896,62.0659,-0.001208
16.912,62.0895,-0.003625
16.928,62.1117,-0.002417
16.943,62.1346,-0.010876
16.960,62.1584,-0.007251
16.977,62.1820,0.000000
16.992,62.2042,0.000000
17.008,62.2264,0.001208
17.024,62.2513,0.004834
17.040,62.2724,-0.004834
17.057,62.2982,-0.001208
17.072,62.3188,-0.001208
17.089,62.3426,0.001208
17.104,62.3659,0.001208
17.119,62.3873,0.002417
17.137,62.4117,-0.001208
17.152,62.4348,0.003625
17.168,62.4563,0.000000
17.184,62.4810,0.001208
17.200,62.5031,-0.004834
17.216,62.5252,-0.002417
17.231,62.5475,0.003625
17.249,62.5727,-0.002417
17.265,62.5964,-0.002417
17.283,62.6223,-0.002417
17.295,62.6392,0.000000
17.312,62.6642,0.001208
17.328,62.6864,0.001208
17.345,62.7106,-0.002417
17.361,62.7348,0.000000
17.376,62.7556,0.001208
17.392,62.7779,-0.002417
17.408,62.7999,-0.007251
17.423,62.8231,-0.007251
17.440,62.8466,0.000000
17.455,62.8687,0.004834
17.471,62.8915,-0.002417
17.487,62.9145,-0.004834
17.504,62.9384,-0.001208
17.519,62.9610,-0.006042
17.535,62.9833,0.001208
17.552,63.0079,0.001208
17.567,63.0300,-0.002417
17.584,63.0533,-0.002417
17.601,63.0783,0.001208
17.616,63.0997,-0.004834
17.632,63.1216,0.003625
17.647,63.1438,0.001208
17.664,63.1692,-0.006042
17.680,63.1914,0.000000
17.696,63.2134,-0.002417
17.711,63.2357,-0.004834
17.727,63.2584,-0.010876
17.745,63.2836,-0.006042
17.759,63.3044,-0.001208
17.777,63.3311,0.001208
17.792,63.3522,0.001208
17.809,63.3761,-0.002417
17.824,63.3976,-0.002417
17.840,63.4201,0.000000
17.855,63.4425,-0.002417
17.871,63.4650,-0.002417
17.887,63.4883,-0.002417
17.904,63.5127,-0.002417
17.919,63.5341,-0.007251
17.946,63.5718,-0.007251
17.960,63.5928,-0.004834
17.977,63.6166,-0.001208
17.992,63.6384,-0.002417
18.010,63.6638,0.004834
18.025,63.6854,-0.004834
18.043,63.7127,-0.004834
18.058,63.7332,0.001208
18.074,63.7560,0.001208
18.088,63.7778,0.001208
18.104,63.7990,0.000000
18.120,63.8225,-0.003625
18.136,63.8455,-0.002417
18.152,63.8679,-0.004834
18.170,63.8956,-0.001208
18.186,63.9160,-0.006042
18.201,63.9393,0.002417
18.216,63.9599,0.002417
18.233,63.9867,-0.004834
18.248,64.0071,-0.004834
18.264,64.0285,-0.012084
18.280,64.0514,-0.004834
18.298,64.0796,-0.008459
18.312,64.0974,0.002417
18.328,64.1204,0.003625
18.344,64.1432,-0.001208
18.364,64.1725,-0.001208
18.377,64.1908,0.001208
18.393,64.2131,-0.003625
18.408,64.2350,-0.003625
18.425,64.2598,-0.003625
18.440,64.2820,-0.002417
18.456,64.3042,-0.004834
18.486,64.3476,-0.001208
18.501,64.3697,-0.008459
18.517,64.3911,-0.002417
18.533,64.4153,0.001208
18.550,64.4389,-0.003625
18.565,64.4612,-0.002417
18.583,64.4871,0.001208
18.597,64.5072,0.001208
18.614,64.5310,-0.004834
18.629,64.5525,-0.008459
18.646,64.5762,-0.008459
18.661,64.5987,-0.004834
18.677,64.6217,0.002417
18.694,64.6450,0.001208
18.709,64.6666,-0.001208
18.726,64.6914,-0.008459
18.741,64.7127,-0.002417
18.757,64.7353,-0.002417
18.774,64.7605,-0.002417
18.790,64.7835,-0.003625
18.806,64.8055,-0.006042
18.821,64.8271,-0.002417
18.837,64.8509,-0.002417
18.853,64.8731,-0.003625
18.869,64.8968,-0.004834
18.885,64.9188,-0.003625
18.904,64.9478,-0.003625
18.917,64.9656,-0.007251
18.933,64.9878,-0.007251
18.949,65.0105,0.001208
18.965,65.0339,0.000000
18.981,65.0569,0.000000
18.998,65.0808,-0.006042
19.026,65.1210,-0.006042
19.042,65.1450,0.001208
19.058,65.1671,0.000000
19.073,65.1896,-0.001208
19.090,65.2130,-0.009668
19.106,65.2365,-0.015710
19.121,65.2585,0.000000
19.140,65.2847,-0.004834
19.156,65.3080,-0.008459
19.169,65.3276,-0.007251
19.186,65.3506,-0.006042
19.202,65.3749,-0.006042
19.219,65.3986,-0.001208
19.237,65.4246,-0.001208
19.250,65.4421,-0.010876
19.266,65.4658,-0.008459
19.281,65.4880,-0.001208
19.297,65.5119,-0.007251
19.315,65.5366,-0.004834
19.330,65.5582,-0.008459
19.346,65.5804,-0.008459
19.362,65.6032,-0.009668
19.378,65.6272,-0.009668
19.394,65.6491,-0.004834
19.410,65.6730,-0.009668
19.426,65.6957,-0.010876
19.442,65.7188,-0.003625
19.458,65.7416,-0.009668
19.473,65.7645,-0.013293
19.490,65.7865,-0.012084
19.506,65.8108,-0.014501
19.521,65.8320,-0.020544
19.537,65.8573,-0.007251
19.564,65.8923,-0.013293
19.577,65.9116,-0.004834
19.592,65.9347,-0.012084
19.608,65.9569,-0.014501
19.628,65.9863,-0.015710
19.640,66.0029,-0.013293
19.656,66.0264,-0.009668
19.672,66.0486,-0.015710
19.690,66.0735,-0.013293
19.705,66.0957,-0.021752
19.721,66.1200,-0.018127
19.736,66.1402,-0.020544
19.753,66.1656,-0.021752
19.769,66.1883,-0.016918
19.789,66.2159,-0.016918
19.800,66.2321,-0.026586
19.818,66.2572,-0.018127
19.832,66.2780,-0.018127
19.850,66.3039,-0.022961
19.864,66.3238,-0.026586
19.881,66.3483,-0.021752
19.897,66.3711,-0.025377
19.913,66.3933,-0.025377
19.928,66.4155,-0.022961
19.945,66.4396,-0.032628
19.960,66.4624,-0.024169
19.976,66.4844,-0.029003
19.995,66.5117,-0.030211
20.009,66.5306,-0.037462
20.024,66.5500,-0.037462
20.040,66.5500,-0.025377
20.057,66.5500,-0.037462
20.073,66.5500,-0.043504
20.089,66.5500,-0.038670
20.104,66.5500,-0.031420
20.125,66.5500,-0.033837
20.142,66.5500,-0.031420
20.157,66.5500,-0.035045
20.173,66.5500,-0.033837
20.190,66.5500,-0.032628
20.206,66.5500,-0.036253
20.221,66.5500,-0.037462
20.237,66.5500,-0.026586
20.253,66.5500,-0.026586
20.270,66.5500,-0.033837
20.285,66.5500,-0.029003
20.305,66.5500,-0.033837
20.317,66.5500,-0.038670
20.333,66.5500,-0.032628
20.349,66.5500,-0.027794
20.366,66.5500,-0.029003
20.382,66.5500,-0.033837
20.397,66.5500,-0.031420
20.413,66.5500,-0.035045
20.431,66.5500,-0.027794
20.445,66.5500,-0.027794
20.465,66.5500,-0.031420
20.478,66.5500,-0.030211
20.494,66.5500,-0.030211
20.509,66.5500,-0.027794
20.525,66.5500,-0.030211
20.542,66.5500,-0.029003
20.558,66.5500,-0.030211
20.576,66.5500,-0.030211
20.589,66.5500,-0.025377
20.605,66.5500,-0.021752
20.621,66.5500,-0.026586
20.637,66.5500,-0.027794
20.660,66.5500,-0.031420
20.676,66.5500,-0.031420
20.692,66.5500,-0.027794
20.708,66.5500,-0.025377
20.724,66.5500,-0.032628
20.740,66.5500,-0.030211
20.756,66.5500,-0.030211
20.772,66.5500,-0.029003
20.788,66.5500,-0.025377
20.803,66.5500,-0.025377
20.820,66.5500,-0.029003
20.836,66.5500,-0.025377
20.853,66.5500,-0.026586
20.868,66.5500,-0.029003
20.885,66.5500,-0.029003
20.900,66.5500,-0.026586
20.916,66.5500,-0.025377
20.932,66.5500,-0.025377
20.948,66.5500,-0.022961
20.965,66.5500,-0.022961
20.980,66.5500,-0.027794
20.996,66.5500,-0.030211
21.012,66.5500,-0.025377
21.028,66.5500,-0.027794
21.044,66.5500,-0.024169
21.061,66.5500,-0.024169
21.076,66.5500,-0.025377
21.093,66.5500,-0.025377
21.108,66.5500,-0.030211
21.124,66.5500,-0.024169
21.140,66.5500,-0.022961
21.157,66.5500,-0.025377
21.172,66.5500,-0.024169
21.188,66.5500,-0.024169
21.216,66.5500,-0.021752
21.232,66.5500,-0.018127
21.248,66.5500,-0.022961
21.263,66.5500,-0.026586
21.281,66.5500,-0.018127
21.296,66.5500,-0.025377
21.315,66.5500,-0.025377
21.327,66.5500,-0.022961
21.345,66.5500,-0.022961
21.360,66.5500,-0.020544
21.375,66.5500,-0.027794
21.393,66.5500,-0.027794
21.407,66.5500,-0.024169
21.424,66.5500,-0.024169
21.440,66.5500,-0.025377
21.458,66.5500,-0.027794
21.471,66.5500,-0.027794
21.487,66.5500,-0.025377
21.503,66.5500,-0.027794
21.519,66.5500,-0.021752
21.536,66.5500,-0.026586
21.555,66.5500,-0.029003
21.568,66.5500,-0.030211
21.584,66.5500,-0.024169
21.600,66.5500,-0.022961
21.616,66.5500,-0.026586
21.632,66.5500,-0.022961
21.648,66.5500,-0.025377
21.663,66.5500,-0.022961
21.679,66.5500,-0.021752
21.697,66.5500,-0.022961
21.712,66.5500,-0.022961
21.729,66.5500,-0.020544
21.753,66.5500,-0.024169
21.770,66.5500,-0.022961
21.786,66.5500,-0.025377
21.801,66.5500,-0.025377
21.818,66.5500,-0.025377
21.833,66.5500,-0.029003
21.850,66.5500,-0.025377
21.866,66.5500,-0.018127
21.882,66.5500,-0.021752
21.900,66.5500,-0.025377
21.913,66.5500,-0.024169
21.929,66.5500,-0.016918
21.946,66.5500,-0.020544
21.961,66.5500,-0.020544
21.977,66.5500,-0.026586
21.994,66.5500,-0.022961
22.009,66.5500,-0.022961
22.025,66.5500,-0.018127
22.049,66.5500,-0.022961
22.061,66.5500,-0.019335
22.074,66.5500,-0.020544
22.090,66.5500,-0.021752
22.104,66.5500,-0.024169
22.121,66.5500,-0.013293
22.138,66.5500,-0.019335
22.153,66.5500,-0.025377
22.169,66.5500,-0.021752
22.185,66.5500,-0.030211
22.202,66.5500,-0.022961
22.217,66.5500,-0.022961
22.233,66.5500,-0.022961
22.250,66.5500,-0.019335
22.265,66.5500,-0.020544
22.294,66.5500,-0.019335
22.311,66.5500,-0.018127
22.326,66.5500,-0.019335
22.342,66.5500,-0.020544
22.359,66.5500,-0.021752
22.376,66.5500,-0.021752
22.394,66.5500,-0.025377
22.406,66.5500,-0.018127
22.422,66.5500,-0.024169
22.438,66.5500,-0.020544
22.456,66.5500,-0.020544
22.470,66.5500,-0.021752
22.486,66.5500,-0.018127
22.502,66.5500,-0.021752
22.518,66.5500,-0.016918
22.534,66.5500,-0.019335
22.550,66.5500,-0.020544
22.566,66.5500,-0.024169
22.582,66.5500,-0.018127
22.601,66.5500,-0.019335
22.614,66.5500,-0.018127
22.630,66.5500,-0.020544
22.646,66.5500,-0.018127
22.663,66.5500,-0.020544
22.678,66.5500,-0.018127
22.694,66.5500,-0.022961
22.710,66.5500,-0.019335
22.727,66.5500,-0.022961
22.742,66.5500,-0.022961
22.758,66.5500,-0.022961
22.774,66.5500,-0.013293
22.791,66.5500,-0.015710
22.807,66.5500,-0.020544
22.824,66.5500,-0.025377
22.849,66.5500,-0.022961
22.864,66.5500,-0.021752
22.880,66.5500,-0.020544
22.896,66.5500,-0.021752
22.913,66.5500,-0.020544
22.929,66.5500,-0.022961
22.945,66.5500,-0.018127
22.960,66.5500,-0.020544
22.976,66.5500,-0.019335
22.992,66.5500,-0.026586
23.008,66.5500,-0.026586
23.024,66.5500,-0.016918
23.041,66.5500,-0.020544
23.056,66.5500,-0.020544
23.072,66.5500,-0.020544
23.088,66.5500,-0.024169
23.105,66.5500,-0.022961
23.120,66.5500,-0.020544
23.137,66.5500,-0.016918
23.152,66.5500,-0.019335
23.168,66.5500,-0.018127
23.184,66.5500,-0.018127
23.201,66.5500,-0.016918
23.216,66.5500,-0.018127
23.234,66.5500,-0.024169
23.249,66.5500,-0.022961
23.265,66.5500,-0.019335
23.281,66.5500,-0.015710
23.296,66.5500,-0.021752
23.313,66.5500,-0.021752
23.328,66.5500,-0.018127
23.345,66.5500,-0.022961
23.360,66.5500,-0.018127
23.376,66.5500,-0.016918
23.392,66.5500,-0.015710
23.409,66.5500,-0.016918
23.424,66.5500,-0.016918
23.440,66.5500,-0.019335
23.456,66.5500,-0.020544
23.472,66.5500,-0.022961
23.488,66.5500,-0.021752
23.503,66.5500,-0.018127
23.520,66.5500,-0.015710
23.537,66.5500,-0.021752
23.552,66.5500,-0.019335
23.568,66.5500,-0.024169
23.584,66.5500,-0.022961
23.600,66.5500,-0.020544
23.616,66.5500,-0.020544
23.632,66.5500,-0.021752
23.648,66.5500,-0.026586
23.665,66.5500,-0.016918
23.679,66.5500,-0.022961
23.698,66.5500,-0.015710
23.719,66.5500,-0.015710
23.731,66.5500,-0.026586
23.744,66.5500,-0.013293
23.760,66.5500,-0.022961
23.777,66.5500,-0.015710
23.792,66.5500,-0.016918
23.809,66.5500,-0.015710
23.826,66.5500,-0.021752
23.839,66.5500,-0.018127
23.856,66.5500,-0.021752
23.871,66.5500,-0.020544
23.890,66.5500,-0.014501
23.903,66.5500,-0.018127
23.919,66.5500,-0.021752
23.936,66.5500,-0.016918
23.957,66.5500,-0.019335
23.974,66.5500,-0.019335
23.989,66.5500,-0.022961
24.005,66.5500,-0.022961
24.022,66.5500,-0.022961
24.039,66.5500,-0.024169
24.053,66.5500,-0.021752
24.071,66.5500,-0.018127
24.086,66.5500,-0.016918
24.102,66.5500,-0.016918
24.117,66.5500,-0.022961
24.133,66.5500,-0.025377
24.150,66.5500,-0.022961
24.166,66.5500,-0.019335
24.182,66.5500,-0.020544
24.197,66.5500,-0.030211
24.215,66.5500,-0.030211
24.230,66.5500,-0.020544
24.245,66.5500,-0.012084
24.262,66.5500,-0.015710
24.278,66.5500,-0.026586
24.294,66.5500,-0.014501
24.311,66.5500,-0.014501
24.325,66.5500,-0.013293
24.342,66.5500,-0.010876
24.358,66.5500,-0.018127
24.374,66.5500,-0.018127
24.390,66.5500,-0.021752
24.405,66.5500,-0.015710
24.421,66.5500,-0.015710
24.437,66.5500,-0.025377
24.456,66.5500,-0.021752
24.469,66.5500,-0.025377
24.486,66.5500,-0.025377
24.501,66.5500,-0.018127
24.525,66.5500,-0.025377
24.540,66.5500,-0.020544
24.556,66.5500,-0.021752
24.572,66.5500,-0.021752
24.588,66.5500,-0.021752
24.604,66.5500,-0.021752
24.621,66.5500,-0.021752
24.636,66.5500,-0.019335
24.652,66.5500,-0.019335
24.668,66.5500,-0.018127
24.685,66.5500,-0.018127
24.700,66.5500,-0.015710
24.716,66.5500,-0.021752
24.733,66.5500,-0.019335
24.749,66.5500,-0.024169
24.764,66.5500,-0.024169
24.783,66.5500,-0.015710
24.796,66.5500,-0.016918
24.812,66.5500,-0.021752
24.828,66.5500,-0.021752
24.845,66.5500,-0.025377
24.861,66.5500,-0.025377
24.876,66.5500,-0.019335
24.892,66.5500,-0.019335
24.909,66.5500,-0.018127
24.924,66.5500,-0.018127
24.944,66.5500,-0.022961
24.956,66.5500,-0.021752
24.973,66.5500,-0.021752
24.988,66.5500,-0.016918
25.005,66.5500,-0.016918
25.020,66.5500,-0.019335
25.037,66.5500,-0.022961
25.052,66.5500,-0.021752
25.068,66.5500,-0.015710
25.092,66.5500,-0.020544
25.107,66.5500,-0.012084
25.123,66.5500,-0.015710
25.140,66.5500,-0.019335
25.155,66.5500,-0.020544
25.172,66.5500,-0.019335
25.188,66.5500,-0.016918
25.203,66.5500,-0.015710
25.220,66.5500,-0.019335
25.235,66.5500,-0.016918
25.255,66.5500,-0.015710
25.267,66.5500,-0.018127
25.283,66.5500,-0.020544
25.299,66.5500,-0.018127
25.315,66.5500,-0.021752
25.330,66.5500,-0.022961
25.347,66.5500,-0.014501
25.363,66.5500,-0.020544
25.379,66.5500,-0.019335
25.396,66.5500,-0.020544
25.411,66.5500,-0.022961
25.427,66.5500,-0.020544
25.443,66.5500,-0.019335
25.459,66.5500,-0.020544
25.475,66.5500,-0.019335
25.491,66.5500,-0.016918
25.507,66.5500,-0.014501
25.523,66.5500,-0.012084
25.539,66.5500,-0.014501
25.555,66.5500,-0.020544
25.571,66.5500,-0.026586
25.587,66.5500,-0.020544
25.604,66.5500,-0.016918
25.619,66.5500,-0.016918
25.648,66.5500,-0.021752
25.664,66.5500,-0.018127
25.680,66.5500,-0.019335
25.696,66.5500,-0.014501
25.711,66.5500,-0.014501
25.729,66.5500,-0.015710
25.748,66.5500,-0.018127
25.760,66.5500,-0.019335
25.777,66.5500,-0.019335
25.792,66.5500,-0.016918
25.809,66.5500,-0.019335
25.824,66.5500,-0.014501
25.840,66.5500,-0.016918
25.856,66.5500,-0.018127
25.872,66.5500,-0.018127
25.888,66.5500,-0.025377
25.904,66.5500,-0.022961
25.920,66.5500,-0.020544
25.935,66.5500,-0.020544
25.954,66.5500,-0.020544
25.969,66.5500,-0.019335
25.983,66.5500,-0.021752
26.000,66.5500,-0.020544
26.017,66.5500,-0.024169
26.032,66.5500,-0.021752
26.048,66.5500,-0.021752
26.064,66.5500,-0.021752
26.081,66.5500,-0.025377
26.096,66.5500,-0.019335
26.113,66.5500,-0.016918
26.127,66.5500,-0.019335
26.144,66.5500,-0.019335
26.161,66.5500,-0.020544
26.179,66.5500,-0.016918
26.204,66.5500,-0.014501
26.221,66.5500,-0.022961
26.235,66.5500,-0.018127
26.251,66.5500,-0.016918
26.267,66.5500,-0.010876
26.284,66.5500,-0.007251
26.303,66.5500,-0.013293
26.315,66.5500,-0.016918
26.332,66.5500,-0.022961
26.348,66.5500,-0.022961
26.365,66.5500,-0.019335
26.379,66.5500,-0.015710
26.396,66.5500,-0.016918
26.411,66.5500,-0.021752
26.427,66.5500,-0.015710
26.445,66.5500,-0.013293
26.459,66.5500,-0.016918
26.476,66.5500,-0.014501
26.491,66.5500,-0.014501
26.509,66.5500,-0.016918
26.524,66.5500,-0.016918
26.540,66.5500,-0.013293
26.555,66.5500,-0.013293
26.571,66.5500,-0.015710
26.588,66.5500,-0.018127
26.604,66.5500,-0.022961
26.619,66.5500,-0.020544
26.636,66.5500,-0.016918
26.651,66.5500,-0.016918
26.668,66.5500,-0.015710
26.683,66.5500,-0.024169
26.700,66.5500,-0.020544
26.717,66.5500,-0.020544
26.735,66.5500,-0.021752
26.759,66.5500,-0.015710
26.774,66.5500,-0.021752
26.790,66.5500,-0.019335
26.806,66.5500,-0.018127
26.823,66.5500,-0.018127
26.839,66.5500,-0.016918
26.857,66.5500,-0.016918
26.870,66.5500,-0.012084
26.887,66.5500,-0.018127
26.902,66.5500,-0.018127
26.918,66.5500,-0.016918
26.934,66.5500,-0.016918
26.951,66.5500,-0.019335
26.966,66.5500,-0.018127
26.982,66.5500,-0.019335
27.002,66.5500,-0.025377
27.014,66.5500,-0.022961
27.031,66.5500,-0.014501
27.047,66.5500,-0.012084
27.063,66.5500,-0.016918
27.078,66.5500,-0.009668
27.096,66.5500,-0.014501
27.110,66.5500,-0.010876
27.127,66.5500,-0.013293
27.142,66.5500,-0.021752
27.159,66.5500,-0.019335
27.174,66.5500,-0.019335
27.191,66.5500,-0.018127
27.206,66.5500,-0.013293
27.222,66.5500,-0.013293
27.238,66.5500,-0.019335
27.254,66.5500,-0.021752
27.270,66.5500,-0.020544
27.286,66.5500,-0.018127
27.303,66.5500,-0.020544
27.318,66.5500,-0.021752
27.334,66.5500,-0.019335
27.350,66.5500,-0.015710
27.367,66.5500,-0.018127
27.382,66.5500,-0.016918
27.400,66.5500,-0.021752
27.414,66.5500,-0.015710
27.431,66.5500,-0.022961
27.446,66.5500,-0.013293
27.465,66.5500,-0.013293
27.478,66.5500,-0.016918
27.494,66.5500,-0.016918
27.510,66.5500,-0.020544
27.526,66.5500,-0.020544
27.543,66.5500,-0.018127
27.558,66.5500,-0.014501
27.574,66.5500,-0.019335
27.590,66.5500,-0.018127
27.611,66.5500,-0.020544
27.623,66.5500,-0.024169
27.638,66.5500,-0.014501
27.654,66.5500,-0.014501
27.670,66.5500,-0.020544
27.686,66.5500,-0.016918
27.702,66.5500,-0.013293
27.718,66.5500,-0.021752
27.735,66.5500,-0.021752
27.750,66.5500,-0.016918
27.767,66.5500,-0.015710
27.782,66.5500,-0.014501
27.802,66.5500,-0.013293
27.814,66.5500,-0.018127
27.830,66.5500,-0.021752
27.846,66.5500,-0.015710
27.870,66.5500,-0.016918
27.885,66.5500,-0.013293
27.901,66.5500,-0.016918
27.917,66.5500,-0.013293
27.933,66.5500,-0.016918
27.950,66.5500,-0.019335
27.965,66.5500,-0.015710
27.981,66.5500,-0.012084
27.998,66.5500,-0.010876
28.013,66.5500,-0.019335
28.029,66.5500,-0.016918
28.047,66.5500,-0.018127
28.062,66.5500,-0.015710
28.078,66.5500,-0.020544
28.094,66.5500,-0.020544
28.109,66.5500,-0.015710
28.125,66.5500,-0.021752
28.141,66.5500,-0.019335
28.157,66.5500,-0.021752
28.173,66.5500,-0.021752
28.189,66.5500,-0.022961
28.205,66.5500,-0.022961
28.220,66.5500,-0.018127
28.237,66.5500,-0.012084
28.253,66.5500,-0.014501
28.268,66.5500,-0.016918
28.284,66.5500,-0.020544
28.301,66.5500,-0.013293
28.317,66.5500,-0.018127
28.332,66.5500,-0.019335
28.349,66.5500,-0.014501
28.366,66.5500,-0.020544
28.380,66.5500,-0.020544
28.396,66.5500,-0.020544
28.413,66.5500,-0.016918
28.435,66.5500,-0.016918
28.450,66.5500,-0.015710
28.466,66.5500,-0.021752
28.482,66.5500,-0.021752
28.498,66.5500,-0.014501
28.514,66.5500,-0.015710
28.530,66.5500,-0.014501
28.546,66.5500,-0.015710
28.565,66.5500,-0.014501
28.587,66.5500,-0.014501
28.608,66.5500,-0.019335
28.627,66.5500,-0.021752
28.643,66.5500,-0.015710
28.659,66.5500,-0.015710
28.675,66.5500,-0.014501
28.692,66.5500,-0.016918
28.707,66.5500,-0.016918
28.726,66.5500,-0.016918
28.738,66.5500,-0.016918
28.754,66.5500,-0.021752
28.771,66.5500,-0.014501
28.786,66.5500,-0.010876
28.803,66.5500,-0.010876
28.818,66.5500,-0.014501
28.837,66.5500,-0.019335
28.850,66.5500,-0.021752
28.866,66.5500,-0.021752
28.882,66.5500,-0.015710
28.898,66.5500,-0.014501
28.916,66.5500,-0.016918
28.931,66.5500,-0.014501
28.946,66.5500,-0.014501
28.962,66.5500,-0.014501
28.979,66.5500,-0.026586
28.994,66.5500,-0.026586
29.010,66.5500,-0.021752
29.026,66.5500,-0.012084
29.044,66.5500,-0.012084
29.059,66.5500,-0.013293
29.075,66.5500,-0.013293
29.090,66.5500,-0.021752
29.107,66.5500,-0.019335
29.122,66.5500,-0.019335
29.138,66.5500,-0.014501
29.154,66.5500,-0.012084
29.171,66.5500,-0.008459
29.186,66.5500,-0.022961
29.205,66.5500,-0.022961
29.218,66.5500,-0.022961
29.235,66.5500,-0.022961
29.251,66.5500,-0.012084
29.266,66.5500,-0.013293
29.284,66.5500,-0.014501
29.299,66.5500,-0.014501
29.314,66.5500,-0.014501
29.330,66.5500,-0.015710
29.346,66.5500,-0.018127
29.362,66.5500,-0.014501
29.380,66.5500,-0.015710
29.396,66.5500,-0.016918
29.411,66.5500,-0.016918
29.426,66.5500,-0.020544
29.442,66.5500,-0.021752
29.459,66.5500,-0.018127
29.474,66.5500,-0.016918
29.490,66.5500,-0.014501
29.507,66.5500,-0.010876
29.523,66.5500,-0.015710
29.539,66.5500,-0.015710
29.554,66.5500,-0.018127
29.570,66.5500,-0.014501
29.587,66.5500,-0.012084
29.602,66.5500,-0.016918
29.622,66.5500,-0.019335
29.634,66.5500,-0.018127
29.652,66.5500,-0.009668
29.666,66.5500,-0.024169
29.684,66.5500,-0.021752
29.698,66.5500,-0.015710
29.714,66.5500,-0.015710
29.730,66.5500,-0.015710
29.746,66.5500,-0.021752
29.762,66.5500,-0.021752
29.778,66.5500,-0.019335
29.794,66.5500,-0.018127
29.810,66.5500,-0.015710
29.826,66.5500,-0.013293
29.843,66.5500,-0.018127
29.858,66.5500,-0.013293
29.874,66.5500,-0.015710
29.890,66.5500,-0.014501
29.906,66.5500,-0.015710
29.922,66.5500,-0.022961
29.938,66.5500,-0.016918
29.956,66.5500,-0.015710
29.970,66.5500,-0.016918
29.986,66.5500,-0.019335
30.002,66.5500,-0.016918
30.020,66.5500,-0.012084
30.035,66.5500,-0.019335
30.050,66.5500,-0.019335
30.066,66.5500,-0.010876
30.089,66.5500,-0.014501
30.105,66.5500,-0.014501
30.121,66.5500,-0.019335
30.137,66.5500,-0.015710
30.153,66.5500,-0.015710
30.169,66.5500,-0.012084
30.186,66.5500,-0.016918
30.201,66.5500,-0.016918
30.217,66.5500,-0.012084
30.233,66.5500,-0.021752
30.249,66.5500,-0.018127
30.265,66.5500,-0.013293
30.281,66.5500,-0.016918
30.297,66.5500,-0.012084
30.315,66.5500,-0.012084
30.329,66.5500,-0.015710
30.348,66.5500,-0.020544
30.363,66.5500,-0.015710
30.377,66.5500,-0.013293
30.394,66.5500,-0.018127
30.409,66.5500,-0.015710
30.426,66.5500,-0.015710
30.441,66.5500,-0.018127
30.456,66.5500,-0.018127
30.476,66.5500,-0.015710
30.488,66.5500,-0.013293
30.505,66.5500,-0.019335
30.521,66.5500,-0.019335
30.538,66.5500,-0.009668
30.554,66.5500,-0.020544
30.569,66.5500,-0.019335
30.585,66.5500,-0.018127
30.602,66.5500,-0.014501
30.626,66.5500,-0.014501
30.642,66.5500,-0.018127
30.657,66.5500,-0.016918
30.674,66.5500,-0.016918
30.690,66.5500,-0.016918
30.705,66.5500,-0.016918
30.721,66.5500,-0.015710
30.737,66.5500,-0.014501
30.754,66.5500,-0.013293
30.769,66.5500,-0.010876
30.785,66.5500,-0.014501
30.807,66.5500,-0.020544
30.817,66.5500,-0.021752
30.833,66.5500,-0.016918
30.851,66.5500,-0.014501
30.866,66.5500,-0.010876
30.882,66.5500,-0.016918
30.899,66.5500,-0.019335
30.913,66.5500,-0.018127
30.930,66.5500,-0.018127
30.946,66.5500,-0.019335
30.962,66.5500,-0.019335
30.977,66.5500,-0.015710
30.994,66.5500,-0.014501
31.011,66.5500,-0.015710
31.025,66.5500,-0.024169
31.049,66.5500,-0.020544
31.073,66.5500,-0.020544
31.089,66.5500,-0.015710
31.105,66.5500,-0.013293
31.122,66.5500,-0.020544
31.137,66.5500,-0.015710
31.153,66.5500,-0.025377
31.169,66.5500,-0.026586
31.186,66.5500,-0.018127
31.201,66.5500,-0.016918
31.217,66.5500,-0.019335
31.234,66.5500,-0.019335
31.250,66.5500,-0.016918
31.266,66.5500,-0.013293
31.282,66.5500,-0.014501
31.300,66.5500,-0.014501
31.314,66.5500,-0.020544
31.330,66.5500,-0.018127
31.346,66.5500,-0.019335
31.361,66.5500,-0.019335
31.378,66.5500,-0.019335
31.393,66.5500,-0.018127
31.410,66.5500,-0.016918
31.425,66.5500,-0.015710
31.442,66.5500,-0.015710
31.457,66.5500,-0.013293
31.474,66.5500,-0.015710
31.490,66.5500,-0.018127
31.505,66.5500,-0.015710
31.525,66.5500,-0.015710
31.537,66.5500,-0.016918
31.553,66.5500,-0.016918
31.569,66.5500,-0.014501
31.586,66.5500,-0.015710
31.602,66.5500,-0.015710
31.617,66.5500,-0.015710
31.633,66.5500,-0.022961
31.650,66.5500,-0.019335
31.666,66.5500,-0.014501
31.684,66.5500,-0.019335
31.709,66.5500,-0.015710
31.726,66.5500,-0.012084
31.741,66.5500,-0.012084
31.757,66.5500,-0.021752
31.773,66.5500,-0.018127
31.789,66.5500,-0.013293
31.805,66.5500,-0.014501
31.823,66.5500,-0.014501
31.837,66.5500,-0.021752
31.853,66.5500,-0.022961
31.871,66.5500,-0.016918
31.886,66.5500,-0.013293
31.901,66.5500,-0.016918
31.917,66.5500,-0.010876
31.933,66.5500,-0.010876
31.950,66.5500,-0.018127
31.966,66.5500,-0.018127
31.983,66.5500,-0.018127
31.997,66.5500,-0.021752
32.014,66.5500,-0.021752
32.029,66.5500,-0.025377
32.045,66.5500,-0.015710
32.061,66.5500,-0.016918
32.077,66.5500,-0.018127
32.095,66.5500,-0.015710
32.109,66.5500,-0.016918
32.125,66.5500,-0.015710
32.141,66.5500,-0.019335
32.159,66.5500,-0.014501
32.174,66.5500,-0.012084
32.189,66.5500,-0.018127
32.206,66.5500,-0.014501
32.231,66.5500,-0.019335
32.247,66.5500,-0.012084
32.263,66.5500,-0.012084
32.279,66.5500,-0.013293
32.295,66.5500,-0.015710
32.311,66.5500,-0.012084
32.327,66.5500,-0.013293
32.343,66.5500,-0.013293
32.359,66.5500,-0.015710
32.375,66.5500,-0.013293
32.390,66.5500,-0.020544
32.407,66.5500,-0.022961
32.424,66.5500,-0.016918
32.438,66.5500,-0.018127
32.455,66.5500,-0.018127
32.471,66.5500,-0.013293
32.487,66.5500,-0.019335
32.503,66.5500,-0.016918
32.519,66.5500,-0.016918
32.535,66.5500,-0.016918
32.551,66.5500,-0.015710
32.566,66.5500,-0.016918
32.587,66.5500,-0.013293
32.599,66.5500,-0.013293
32.614,66.5500,-0.013293
32.631,66.5500,-0.018127
32.648,66.5500,-0.019335
32.662,66.5500,-0.019335
32.679,66.5500,-0.018127
32.695,66.5500,-0.018127
32.710,66.5500,-0.009668
32.730,66.5500,-0.018127
32.743,66.5500,-0.018127
32.758,66.5500,-0.015710
32.774,66.5500,-0.019335
32.798,66.5500,-0.015710
32.814,66.5500,-0.013293
32.829,66.5500,-0.016918
32.845,66.5500,-0.015710
32.862,66.5500,-0.016918
32.878,66.5500,-0.010876
32.894,66.5500,-0.016918
32.910,66.5500,-0.014501
32.926,66.5500,-0.016918
32.943,66.5500,-0.016918
32.957,66.5435,-0.010876
32.974,66.5203,0.008459
32.989,66.4984,-0.009668
33.005,66.4758,-0.016918
33.029,66.4411,-0.014501
33.052,66.4082,0.003625
33.070,66.3834,0.000000
33.085,66.3600,0.003625
33.102,66.3370,0.003625
33.117,66.3143,0.003625
33.133,66.2920,0.008459
33.150,66.2686,0.008459
33.165,66.2461,0.009668
33.181,66.2237,0.013293
33.198,66.1995,0.007251
33.213,66.1775,0.018127
33.230,66.1537,0.021752
33.246,66.1294,0.024169
33.264,66.1051,0.027794
33.281,66.0791,0.027794
33.293,66.0629,0.024169
33.318,66.0269,0.033837
33.336,66.0019,0.038670
33.351,65.9800,0.039879
33.366,65.9581,0.043504
33.382,65.9345,0.044713
33.399,65.9115,0.044713
33.414,65.8892,0.047129
33.431,65.8654,0.047129
33.447,65.8424,0.044713
33.462,65.8205,0.050755
33.478,65.7975,0.060422
33.494,65.7738,0.060422
33.511,65.7503,0.060422
33.529,65.7241,0.067673
33.542,65.7060,0.067673
33.558,65.6826,0.061631
33.574,65.6594,0.067673
33.591,65.6352,0.061631
33.606,65.6141,0.064048
33.622,65.5909,0.064048
33.638,65.5672,0.065256
33.654,65.5451,0.065256
33.670,65.5220,0.071298
33.686,65.4993,0.074924
33.702,65.4762,0.072507
33.718,65.4535,0.077341
33.735,65.4284,0.076132
33.750,65.4076,0.076132
33.766,65.3845,0.076132
33.782,65.3616,0.079758
33.800,65.3362,0.082174
33.814,65.3155,0.076132
33.830,65.2921,0.077341
33.859,65.2513,0.076132
33.875,65.2276,0.073715
33.895,65.1987,0.080966
33.907,65.1826,0.077341
33.924,65.1579,0.078549
33.939,65.1361,0.074924
33.955,65.1135,0.072507
33.971,65.0906,0.078549
33.989,65.0652,0.074924
34.003,65.0442,0.073715
34.019,65.0208,0.072507
34.035,64.9992,0.068882
34.053,64.9732,0.067673
34.067,64.9522,0.060422
34.085,64.9268,0.060422
34.099,64.9072,0.042296
34.115,64.8832,0.015710
34.131,64.8608,0.015710
34.147,64.8385,0.006042
34.164,64.8142,0.006042
34.179,64.7913,-0.002417
34.196,64.7676,0.003625
34.212,64.7449,0.001208
34.227,64.7234,0.003625
34.243,64.6999,0.001208
34.259,64.6780,0.000000
34.275,64.6538,0.001208
34.291,64.6305,0.001208
34.307,64.6088,-0.002417
34.323,64.5862,-0.002417
34.340,64.5616,-0.002417
34.355,64.5393,-0.002417
34.371,64.5166,-0.004834
34.387,64.4944,0.000000
34.403,64.4704,0.000000
34.419,64.4474,0.006042
34.435,64.4256,0.006042
34.451,64.4023,-0.003625
34.467,64.3792,0.001208
34.483,64.3560,0.001208
34.499,64.3339,0.001208
34.516,64.3091,0.006042
34.532,64.2863,0.006042
34.550,64.2593,0.002417
34.564,64.2394,0.001208
34.579,64.2169,-0.001208
34.595,64.1950,-0.001208
34.611,64.1731,-0.001208
34.627,64.1498,-0.001208
34.643,64.1267,-0.001208
34.658,64.1046,0.004834
34.679,64.0741,0.006042
34.691,64.0579,-0.003625
34.707,64.0347,0.001208
34.722,64.0130,-0.003625
34.740,63.9859,-0.001208
34.755,63.9660,-0.004834
34.775,63.9382,0.002417
34.787,63.9208,0.002417
34.803,63.8968,-0.004834
34.819,63.8747,-0.007251
34.834,63.8521,-0.001208
34.851,63.8288,-0.007251
34.866,63.8062,0.004834
34.884,63.7805,0.001208
34.898,63.7603,0.007251
34.914,63.7371,0.004834
34.931,63.7138,-0.001208
34.946,63.6915,0.002417
34.970,63.6568,0.001208
34.985,63.6356,-0.001208
35.001,63.6120,0.006042
35.017,63.5898,-0.002417
35.034,63.5654,-0.003625
35.050,63.5425,-0.003625
35.066,63.5185,0.003625
35.082,63.4962,0.007251
35.098,63.4736,0.007251
35.113,63.4520,-0.001208
35.129,63.4292,-0.004834
35.148,63.4008,-0.008459
35.161,63.3834,-0.003625
35.178,63.3584,0.000000
35.193,63.3375,0.002417
35.209,63.3147,-0.001208
35.226,63.2910,0.000000
35.241,63.2688,-0.001208
35.258,63.2443,0.001208
35.274,63.2217,0.001208
35.289,63.1995,0.003625
35.306,63.1746,0.003625
35.321,63.1535,-0.004834
35.337,63.1305,-0.003625
35.353,63.1081,-0.001208
35.370,63.0829,-0.004834
35.386,63.0611,0.000000
35.401,63.0393,0.000000
35.417,63.0162,0.002417
35.434,62.9925,0.000000
35.450,62.9697,0.001208
35.466,62.9455,0.000000
35.492,62.9085,-0.001208
35.507,62.8872,-0.003625
35.523,62.8636,-0.001208
35.539,62.8413,0.001208
35.556,62.8166,0.000000
35.572,62.7951,0.002417
35.587,62.7724,0.000000
35.603,62.7497,0.001208
35.619,62.7266,0.001208
35.635,62.7025,0.003625
35.651,62.6808,0.003625
35.668,62.6561,-0.001208
35.684,62.6336,-0.001208
35.704,62.6054,-0.006042
35.715,62.5892,-0.001208
35.732,62.5645,-0.002417
35.747,62.5422,0.001208
35.763,62.5196,0.001208
35.780,62.4954,0.001208
35.797,62.4718,-0.003625
35.811,62.4510,-0.002417
35.828,62.4274,-0.003625
35.843,62.4046,-0.003625
35.859,62.3825,0.007251
35.875,62.3596,0.001208
35.893,62.3334,-0.003625
35.908,62.3125,0.004834
35.923,62.2902,0.003625
35.939,62.2680,0.000000
35.955,62.2444,0.003625
35.971,62.2218,0.003625
35.988,62.1973,-0.003625
36.019,62.1537,-0.002417
36.033,62.1326,0.003625
36.049,62.1097,0.001208
36.065,62.0874,0.001208
36.081,62.0639,0.009668
36.097,62.0401,0.006042
36.113,62.0187,0.006042
36.130,61.9940,0.004834
36.145,61.9714,-0.003625
36.164,61.9444,-0.003625
36.177,61.9266,-0.002417
36.193,61.9026,-0.007251
36.210,61.8790,0.001208
36.225,61.8573,0.000000
36.242,61.8329,0.006042
36.258,61.8088,-0.004834
36.274,61.7872,0.004834
36.289,61.7660,-0.003625
36.306,61.7421,0.007251
36.321,61.7203,0.002417
36.337,61.6973,0.000000
36.354,61.6719,-0.001208
36.370,61.6499,0.000000
36.385,61.6284,0.001208
36.401,61.6057,-0.006042
36.418,61.5807,-0.002417
36.433,61.5579,-0.003625
36.449,61.5361,-0.004834
36.465,61.5139,-0.009668
36.482,61.4895,-0.004834
36.497,61.4669,-0.001208
36.513,61.4437,-0.004834
36.542,61.4023,0.002417
36.558,61.3802,0.001208
36.574,61.3571,0.001208
36.590,61.3346,-0.004834
36.606,61.3107,0.003625
36.623,61.2874,0.003625
36.638,61.2652,-0.003625
36.654,61.2428,-0.003625
36.670,61.2197,-0.001208
36.686,61.1965,-0.001208
36.702,61.1742,-0.002417
36.718,61.1499,0.000000
36.744,61.1132,0.000000
36.768,61.0792,-0.003625
36.782,61.0581,0.003625
36.798,61.0355,-0.006042
36.814,61.0133,-0.004834
36.830,60.9895,0.004834
36.847,60.9660,0.006042
36.862,60.9429,0.003625
36.880,60.9170,0.006042
36.894,60.8972,0.000000
36.909,60.8758,-0.001208
36.926,60.8528,-0.003625
36.942,60.8293,0.000000
36.958,60.8052,-0.002417
36.973,60.7841,-0.002417
36.990,60.7603,-0.002417
37.006,60.7375,-0.002417
37.024,60.7110,0.001208
37.038,60.6912,0.000000
37.056,60.6651,0.000000
37.079,60.6321,-0.008459
37.096,60.6078,-0.007251
37.111,60.5862,0.001208
37.127,60.5634,-0.001208
37.144,60.5384,0.003625
37.160,60.5164,-0.002417
37.176,60.4999,0.000000
37.191,60.4999,-0.012084
37.209,60.4999,0.001208
37.224,60.4999,0.001208
37.243,60.4999,0.000000
37.255,60.4999,0.003625
37.272,60.4999,0.003625
37.288,60.4999,0.000000
37.305,60.4999,0.003625
37.319,60.4999,-0.003625
37.335,60.4999,-0.001208
37.351,60.4999,0.001208
37.367,60.4999,0.002417
37.385,60.4999,0.002417
37.400,60.4999,0.000000
37.415,60.4999,0.000000
37.431,60.4999,-0.002417
37.448,60.4999,0.001208
37.464,60.4999,0.001208
37.480,60.4999,0.000000
37.496,60.4999,0.002417
37.512,60.4999,0.002417
37.527,60.4999,0.001208
37.543,60.4999,0.001208
37.561,60.4999,0.000000
37.575,60.4999,0.001208
37.595,60.4999,0.003625
37.619,60.4999,0.003625
37.636,60.4999,0.000000
37.651,60.4999,0.000000
37.667,60.4999,0.001208
37.688,60.4999,0.001208
37.699,60.4999,-0.001208
37.716,60.4999,0.000000
37.732,60.4999,0.001208
37.748,60.5031,0.003625
37.765,60.5264,-0.018127
37.780,60.5476,-0.003625
37.795,60.5696,-0.001208
37.812,60.5936,-0.001208
37.827,60.6163,0.003625
37.845,60.6404,0.002417
37.861,60.6643,0.003625
37.876,60.6859,-0.006042
37.891,60.7074,-0.001208
37.907,60.7303,0.000000
37.924,60.7540,0.002417
37.939,60.7764,-0.006042
37.955,60.7989,0.000000
37.971,60.8228,0.000000
37.987,60.8449,0.003625
38.004,60.8686,0.003625
38.019,60.8907,-0.001208
38.035,60.9147,-0.006042
38.051,60.9374,-0.003625
38.067,60.9607,0.001208
38.083,60.9824,0.000000
38.099,61.0066,0.000000
38.115,61.0283,-0.001208
38.133,61.0548,-0.001208
38.157,61.0887,0.000000
38.174,61.1139,-0.001208
38.190,61.1355,0.002417
38.208,61.1619,0.003625
38.221,61.1809,-0.004834
38.237,61.2051,-0.006042
38.256,61.2327,0.001208
38.270,61.2508,-0.001208
38.286,61.2742,0.001208
38.301,61.2960,-0.012084
38.317,61.3188,-0.008459
38.334,61.3431,-0.007251
38.350,61.3661,0.000000
38.365,61.3869,-0.004834
38.381,61.4096,-0.001208
38.397,61.4335,0.000000
38.413,61.4561,-0.002417
38.429,61.4788,0.003625
38.445,61.5015,-0.003625
38.462,61.5269,-0.003625
38.477,61.5484,0.004834
38.497,61.5769,0.004834
38.509,61.5934,0.001208
38.525,61.6161,0.004834
38.542,61.6410,-0.002417
38.558,61.6635,0.001208
38.573,61.6859,0.001208
38.590,61.7093,-0.004834
38.604,61.7307,0.000000
38.629,61.7662,0.004834
38.651,61.7968,-0.001208
38.669,61.8231,-0.001208
38.685,61.8457,-0.003625
38.711,61.8835,0.002417
38.724,61.9027,0.000000
38.740,61.9252,-0.001208
38.757,61.9490,-0.007251
38.772,61.9715,-0.007251
38.790,61.9970,-0.004834
38.808,62.0244,-0.004834
38.821,62.0412,-0.001208
38.836,62.0623,-0.002417
38.854,62.0877,-0.001208
38.869,62.1102,-0.002417
38.885,62.1321,-0.002417
38.901,62.1550,-0.003625
38.916,62.1768,-0.003625
38.932,62.2017,-0.003625
38.948,62.2244,-0.004834
38.964,62.2456,-0.002417
38.980,62.2686,-0.002417
38.996,62.2926,-0.002417
39.012,62.3151,-0.006042
39.028,62.3383,-0.001208
39.043,62.3601,-0.001208
39.062,62.3873,0.003625
39.075,62.4061,-0.003625
39.091,62.4292,-0.003625
39.108,62.4520,-0.007251
39.124,62.4767,-0.007251
39.140,62.4986,0.002417
39.156,62.5226,-0.001208
39.172,62.5437,-0.001208
39.188,62.5676,-0.003625
39.203,62.5902,-0.003625
39.219,62.6151,-0.003625
39.243,62.6459,-0.003625
39.258,62.6684,-0.003625
39.275,62.6920,0.000000
39.290,62.7143,0.004834
39.307,62.7385,-0.007251
39.322,62.7603,-0.007251
39.339,62.7846,-0.002417
39.355,62.8076,-0.003625
39.371,62.8305,0.001208
39.390,62.8577,-0.003625
39.402,62.8749,-0.003625
39.419,62.8997,-0.003625
39.434,62.9213,-0.004834
39.450,62.9439,-0.002417
39.467,62.9679,-0.002417
39.489,63.0008,0.001208
39.501,63.0154,0.002417
39.515,63.0369,-0.001208
39.533,63.0626,-0.001208
39.547,63.0827,0.000000
39.563,63.1050,-0.003625
39.581,63.1310,-0.004834
39.595,63.1514,-0.002417
39.611,63.1739,-0.001208
39.626,63.1961,-0.006042
39.643,63.2214,-0.002417
39.658,63.2420,-0.007251
39.674,63.2650,-0.002417
39.690,63.2880,-0.009668
39.707,63.3127,-0.003625
39.723,63.3363,-0.001208
39.742,63.3639,-0.006042
39.765,63.3954,-0.004834
39.781,63.4190,-0.010876
39.797,63.4411,-0.001208
39.813,63.4639,-0.002417
39.837,63.4990,-0.002417
39.853,63.5211,0.001208
39.867,63.5417,0.001208
39.879,63.5590,0.001208
39.894,63.5794,0.001208
39.909,63.6018,-0.007251
39.928,63.6282,0.002417
39.941,63.6473,-0.002417
39.958,63.6718,-0.007251
39.973,63.6943,-0.007251
39.989,63.7164,-0.004834
40.005,63.7392,0.001208
40.022,63.7628,0.001208
40.037,63.7856,0.001208
40.053,63.8081,0.000000
40.070,63.8330,0.003625
40.085,63.8551,0.004834
40.104,63.8822,0.004834
40.118,63.9020,-0.003625
40.134,63.9234,0.000000
40.149,63.9467,-0.001208
40.165,63.9689,-0.004834
40.182,63.9942,-0.008459
40.199,64.0174,-0.008459
40.213,64.0378,-0.008459
40.230,64.0618,-0.006042
40.245,64.0842,-0.009668
40.261,64.1064,0.001208
40.292,64.1511,-0.001208
40.308,64.1748,0.004834
40.324,64.1976,-0.006042
40.340,64.2196,-0.002417
40.359,64.2497,0.000000
40.372,64.2656,0.000000
40.389,64.2914,-0.002417
40.405,64.3127,0.000000
40.421,64.3360,-0.002417
40.436,64.3591,0.004834
40.452,64.3803,-0.002417
40.468,64.4038,-0.002417
40.484,64.4268,-0.002417
40.500,64.4490,-0.003625
40.516,64.4721,0.000000
40.532,64.4957,0.000000
40.548,64.5187,-0.007251
40.564,64.5418,-0.004834
40.584,64.5692,-0.003625
40.596,64.5872,-0.002417
40.612,64.6109,0.001208
40.628,64.6323,-0.001208
40.651,64.6661,-0.003625
40.671,64.6946,-0.003625
40.693,64.7270,0.001208
40.709,64.7493,-0.003625
40.724,64.7707,-0.002417
40.742,64.7969,-0.002417
40.756,64.8170,-0.007251
40.772,64.8403,-0.007251
40.789,64.8649,-0.006042
40.819,64.9080,-0.009668
40.836,64.9309,-0.001208
40.851,64.9531,-0.004834
40.867,64.9760,-0.002417
40.883,64.9999,-0.002417
40.899,65.0216,-0.001208
40.915,65.0441,0.000000
40.931,65.0669,-0.003625
40.947,65.0906,-0.007251
40.963,65.1128,-0.007251
40.978,65.1366,-0.004834
40.996,65.1608,-0.006042
41.011,65.1815,-0.003625
41.028,65.2069,-0.004834
41.043,65.2273,-0.007251
41.065,65.2604,-0.006042
41.076,65.2758,-0.004834
41.092,65.2987,-0.004834
41.107,65.3204,-0.007251
41.123,65.3420,-0.009668
41.140,65.3669,-0.006042
41.155,65.3891,-0.006042
41.171,65.4112,-0.007251
41.187,65.4355,-0.002417
41.202,65.4568,-0.006042
41.219,65.4804,-0.010876
41.235,65.5029,-0.004834
41.253,65.5301,-0.004834
41.267,65.5497,-0.012084
41.283,65.5721,-0.012084
41.299,65.5944,-0.001208
41.314,65.6183,-0.009668
41.330,65.6404,-0.010876
41.347,65.6635,-0.009668
41.372,65.7002,-0.007251
41.387,65.7216,-0.006042
41.403,65.7446,-0.010876
41.418,65.7665,-0.015710
41.435,65.7910,-0.015710
41.451,65.8129,-0.007251
41.471,65.8413,-0.013293
41.482,65.8583,-0.008459
41.499,65.8826,-0.018127
41.515,65.9049,-0.012084
41.531,65.9290,-0.012084
41.546,65.9500,-0.013293
41.562,65.9740,-0.015710
41.579,65.9970,-0.015710
41.594,66.0198,-0.010876
41.613,66.0467,-0.014501
41.627,66.0652,-0.016918
41.642,66.0877,-0.014501
41.658,66.1104,-0.016918
41.675,66.1355,-0.013293
41.691,66.1577,-0.019335
41.707,66.1799,-0.018127
41.722,66.2023,-0.025377
41.740,66.2274,-0.021752
41.755,66.2497,-0.021752
41.770,66.2712,-0.025377
41.786,66.2941,-0.022961
41.802,66.3178,-0.024169
41.818,66.3405,-0.027794
41.834,66.3630,-0.025377
41.851,66.3873,-0.024169
41.867,66.4092,-0.027794
41.882,66.4317,-0.030211
41.910,66.4714,-0.037462
41.925,66.4937,-0.041087
41.942,66.4999,-0.016918
41.957,66.4999,-0.020544
41.974,66.4999,-0.033837
41.990,66.4999,-0.035045
42.007,66.4999,-0.033837
42.021,66.4999,-0.033837
42.039,66.4999,-0.041087
42.053,66.4999,-0.031420
42.068,66.4999,-0.032628
42.085,66.4999,-0.035045
42.103,66.4999,-0.035045
42.118,66.4999,-0.033837
42.136,66.4999,-0.031420
42.149,66.4999,-0.032628
42.166,66.4999,-0.030211
42.182,66.4999,-0.030211
42.197,66.4999,-0.032628
42.213,66.4999,-0.032628
42.229,66.4999,-0.033837
42.245,66.4999,-0.030211
42.261,66.4999,-0.030211
42.282,66.4999,-0.030211
42.294,66.4999,-0.027794
42.309,66.4999,-0.027794
42.326,66.4999,-0.026586
42.343,66.4999,-0.026586
42.357,66.4999,-0.031420
42.373,66.4999,-0.027794
42.389,66.4999,-0.031420
42.406,66.4999,-0.030211
42.421,66.4999,-0.030211
42.437,66.4999,-0.030211
42.467,66.4999,-0.025377
42.482,66.4999,-0.022961
42.498,66.4999,-0.027794
42.514,66.4999,-0.025377
42.531,66.4999,-0.025377
42.546,66.4999,-0.024169
42.562,66.4999,-0.025377
42.579,66.4999,-0.025377
42.595,66.4999,-0.025377
42.610,66.4999,-0.029003
42.626,66.4999,-0.026586
42.642,66.4999,-0.026586
42.658,66.4999,-0.027794
42.674,66.4999,-0.027794
42.690,66.4999,-0.025377
42.706,66.4999,-0.027794
42.722,66.4999,-0.029003
42.738,66.4999,-0.032628
42.756,66.4999,-0.026586
42.770,66.4999,-0.025377
42.786,66.4999,-0.020544
42.802,66.4999,-0.025377
42.819,66.4999,-0.027794
42.834,66.4999,-0.030211
42.850,66.4999,-0.030211
42.866,66.4999,-0.025377
42.882,66.4999,-0.025377
42.898,66.4999,-0.024169
42.914,66.4999,-0.025377
42.930,66.4999,-0.019335
42.948,66.4999,-0.022961
42.963,66.4999,-0.030211
42.979,66.4999,-0.024169
42.994,66.4999,-0.025377
43.017,66.4999,-0.019335
43.032,66.4999,-0.019335
43.048,66.4999,-0.022961
43.064,66.4999,-0.022961
43.080,66.4999,-0.027794
43.096,66.4999,-0.025377
43.112,66.4999,-0.024169
43.128,66.4999,-0.020544
43.143,66.4999,-0.029003
43.160,66.4999,-0.025377
43.175,66.4999,-0.025377
43.191,66.4999,-0.024169
43.208,66.4999,-0.022961
43.225,66.4999,-0.026586
43.240,66.4999,-0.018127
43.256,66.4999,-0.016918
43.272,66.4999,-0.026586
43.288,66.4999,-0.026586
43.303,66.4999,-0.026586
43.319,66.4999,-0.024169
43.336,66.4999,-0.025377
43.351,66.4999,-0.022961
43.370,66.4999,-0.024169
43.383,66.4999,-0.019335
43.400,66.4999,-0.019335
43.415,66.4999,-0.022961
43.432,66.4999,-0.022961
43.448,66.4999,-0.025377
43.463,66.4999,-0.020544
43.480,66.4999,-0.025377
43.497,66.4999,-0.026586
43.511,66.4999,-0.030211
43.527,66.4999,-0.025377
43.559,66.4999,-0.019335
43.575,66.4999,-0.020544
43.590,66.4999,-0.019335
43.607,66.4999,-0.019335
43.623,66.4999,-0.019335
43.639,66.4999,-0.026586
43.654,66.4999,-0.026586
43.671,66.4999,-0.025377
43.687,66.4999,-0.019335
43.702,66.4999,-0.019335
43.718,66.4999,-0.018127
43.734,66.4999,-0.016918
43.751,66.4999,-0.022961
43.766,66.4999,-0.030211
43.782,66.4999,-0.025377
43.798,66.4999,-0.022961
43.815,66.4999,-0.021752
43.831,66.4999,-0.019335
43.847,66.4999,-0.016918
43.862,66.4999,-0.015710
43.878,66.4999,-0.020544
43.894,66.4999,-0.021752
43.911,66.4999,-0.018127
43.926,66.4999,-0.024169
43.942,66.4999,-0.020544
43.958,66.4999,-0.024169
43.975,66.4999,-0.024169
43.990,66.4999,-0.021752
44.007,66.4999,-0.022961
44.022,66.4999,-0.026586
44.042,66.4999,-0.026586
44.054,66.4999,-0.019335
44.081,66.4999,-0.020544
44.098,66.4999,-0.018127
44.114,66.4999,-0.020544
44.130,66.4999,-0.020544
44.146,66.4999,-0.018127
44.162,66.4999,-0.018127
44.177,66.4999,-0.014501
44.195,66.4999,-0.014501
44.210,66.4999,-0.020544
44.225,66.4999,-0.024169
44.242,66.4999,-0.016918
44.258,66.4999,-0.021752
44.273,66.4999,-0.020544
44.291,66.4999,-0.020544
44.305,66.4999,-0.016918
44.321,66.4999,-0.016918
44.337,66.4999,-0.013293
44.355,66.4999,-0.018127
44.369,66.4999,-0.025377
44.385,66.4999,-0.020544
44.401,66.4999,-0.015710
44.420,66.4999,-0.016918
44.433,66.4999,-0.025377
44.449,66.4999,-0.024169
44.465,66.4999,-0.020544
44.482,66.4999,-0.020544
44.497,66.4999,-0.016918
44.514,66.4999,-0.018127
44.529,66.4999,-0.016918
44.546,66.4999,-0.016918
44.561,66.4999,-0.026586
44.581,66.4999,-0.025377
44.604,66.4999,-0.025377
44.620,66.4999,-0.021752
44.636,66.4999,-0.021752
44.652,66.4999,-0.018127
44.669,66.4999,-0.014501
44.684,66.4999,-0.022961
44.700,66.4999,-0.018127
44.716,66.4999,-0.024169
44.732,66.4999,-0.025377
44.748,66.4999,-0.020544
44.765,66.4999,-0.020544
44.780,66.4999,-0.018127
44.796,66.4999,-0.018127
44.812,66.4999,-0.022961
44.828,66.4999,-0.022961
44.845,66.4999,-0.022961
44.860,66.4999,-0.021752
44.876,66.4999,-0.018127
44.892,66.4999,-0.020544
44.908,66.4999,-0.014501
44.924,66.4999,-0.018127
44.940,66.4999,-0.018127
44.957,66.4999,-0.019335
44.973,66.4999,-0.015710
44.989,66.4999,-0.018127
45.004,66.4999,-0.022961
45.022,66.4999,-0.021752
45.036,66.4999,-0.016918
45.052,66.4999,-0.016918
45.068,66.4999,-0.018127
45.087,66.4999,-0.015710
45.100,66.4999,-0.018127
45.116,66.4999,-0.016918
45.132,66.4999,-0.021752
45.157,66.4999,-0.018127
45.179,66.4999,-0.018127
45.203,66.4999,-0.015710
45.221,66.4999,-0.015710
45.237,66.4999,-0.015710
45.252,66.4999,-0.018127
45.269,66.4999,-0.018127
45.284,66.4999,-0.019335
45.300,66.4999,-0.019335
45.316,66.4999,-0.020544
45.332,66.4999,-0.015710
45.348,66.4999,-0.021752
45.364,66.4999,-0.021752
45.379,66.4999,-0.025377
45.396,66.4999,-0.021752
45.413,66.4999,-0.021752
45.427,66.4999,-0.022961
45.444,66.4999,-0.016918
45.460,66.4999,-0.019335
45.476,66.4999,-0.018127
45.491,66.4999,-0.015710
45.507,66.4999,-0.016918
45.524,66.4999,-0.016918
45.540,66.4999,-0.015710
45.555,66.4999,-0.012084
45.571,66.4999,-0.019335
45.587,66.4999,-0.018127
45.603,66.4999,-0.018127
45.620,66.4999,-0.020544
45.635,66.4999,-0.020544
45.652,66.4999,-0.025377
45.668,66.4999,-0.014501
45.683,66.4999,-0.013293
45.699,66.4999,-0.016918
45.716,66.4999,-0.016918
45.731,66.4999,-0.015710
45.747,66.4999,-0.022961
45.766,66.4999,-0.022961
45.779,66.4999,-0.019335
45.796,66.4999,-0.019335
45.811,66.4999,-0.013293
45.831,66.4999,-0.021752
45.844,66.4999,-0.021752
45.859,66.4999,-0.018127
45.877,66.4999,-0.018127
45.892,66.4999,-0.014501
45.908,66.4999,-0.016918
45.923,66.4999,-0.016918
45.940,66.4999,-0.014501
45.955,66.4999,-0.018127
45.971,66.4999,-0.021752
45.988,66.4999,-0.020544
46.003,66.4999,-0.019335
46.019,66.4999,-0.016918
46.035,66.4999,-0.019335
46.052,66.4999,-0.018127
46.067,66.4999,-0.020544
46.084,66.4999,-0.022961
46.099,66.4999,-0.021752
46.115,66.4999,-0.019335
46.131,66.4999,-0.020544
46.148,66.4999,-0.018127
46.167,66.4999,-0.013293
46.180,66.4999,-0.020544
46.196,66.4999,-0.022961
46.211,66.4999,-0.015710
46.243,66.4999,-0.015710
46.259,66.4999,-0.015710
46.274,66.4999,-0.014501
46.290,66.4999,-0.016918
46.306,66.4999,-0.021752
46.323,66.4999,-0.018127
46.342,66.4999,-0.018127
46.354,66.4999,-0.015710
46.371,66.4999,-0.019335
46.386,66.4999,-0.016918
46.405,66.4999,-0.016918
46.418,66.4999,-0.022961
46.435,66.4999,-0.022961
46.450,66.4999,-0.016918
46.466,66.4999,-0.015710
46.482,66.4999,-0.015710
46.498,66.4999,-0.016918
46.515,66.4999,-0.019335
46.530,66.4999,-0.013293
46.547,66.4999,-0.018127
46.562,66.4999,-0.021752
46.579,66.4999,-0.016918
46.594,66.4999,-0.018127
46.611,66.4999,-0.018127
46.626,66.4999,-0.020544
46.644,66.4999,-0.019335
46.659,66.4999,-0.021752
46.674,66.4999,-0.021752
46.691,66.4999,-0.012084
46.706,66.4999,-0.020544
46.723,66.4999,-0.020544
46.738,66.4999,-0.020544
46.754,66.4999,-0.020544
46.778,66.4999,-0.021752
46.794,66.4999,-0.021752
46.810,66.4999,-0.018127
46.826,66.4999,-0.014501
46.847,66.4999,-0.014501
46.859,66.4999,-0.019335
46.874,66.4999,-0.019335
46.891,66.4999,-0.015710
46.907,66.4999,-0.022961
46.922,66.4999,-0.019335
46.938,66.4999,-0.018127
46.954,66.4999,-0.025377
46.971,66.4999,-0.018127
46.987,66.4999,-0.021752
47.005,66.4999,-0.021752
47.018,66.4999,-0.019335
47.034,66.4999,-0.019335
47.050,66.4999,-0.021752
47.066,66.4999,-0.013293
47.085,66.4999,-0.018127
47.098,66.4999,-0.013293
47.113,66.4999,-0.013293
47.130,66.4999,-0.018127
47.146,66.4999,-0.021752
47.162,66.4999,-0.015710
47.178,66.4999,-0.015710
47.194,66.4999,-0.015710
47.210,66.4999,-0.013293
47.226,66.4999,-0.020544
47.244,66.4999,-0.019335
47.258,66.4999,-0.010876
47.274,66.4999,-0.014501
47.290,66.4999,-0.019335
47.306,66.4999,-0.020544
47.330,66.4999,-0.022961
47.344,66.4999,-0.016918
47.361,66.4999,-0.019335
47.377,66.4999,-0.019335
47.393,66.4999,-0.021752
47.410,66.4999,-0.016918
47.425,66.4999,-0.018127
47.441,66.4999,-0.015710
47.457,66.4999,-0.015710
47.473,66.4999,-0.015710
47.489,66.4999,-0.018127
47.504,66.4999,-0.019335
47.521,66.4999,-0.021752
47.537,66.4999,-0.020544
47.554,66.4999,-0.019335
47.569,66.4999,-0.018127
47.585,66.4999,-0.016918
47.600,66.4999,-0.018127
47.617,66.4999,-0.024169
47.633,66.4999,-0.024169
47.649,66.4999,-0.014501
47.665,66.4999,-0.018127
47.680,66.4999,-0.019335
47.697,66.4999,-0.021752
47.713,66.4999,-0.021752
47.728,66.4999,-0.015710
47.751,66.4999,-0.018127
47.761,66.4999,-0.013293
47.777,66.4999,-0.016918
47.792,66.4999,-0.022961
47.810,66.4999,-0.016918
47.826,66.4999,-0.021752
47.840,66.4999,-0.021752
47.872,66.4999,-0.020544
47.888,66.4999,-0.019335
47.904,66.4999,-0.014501
47.919,66.4999,-0.020544
47.936,66.4999,-0.019335
47.951,66.4999,-0.019335
47.969,66.4999,-0.018127
47.983,66.4999,-0.015710
48.000,66.4999,-0.012084
48.015,66.4999,-0.013293
48.031,66.4999,-0.013293
48.049,66.4999,-0.021752
48.064,66.4999,-0.021752
48.080,66.4999,-0.019335
48.097,66.4999,-0.019335
48.114,66.4999,-0.019335
48.128,66.4999,-0.020544
48.143,66.4999,-0.020544
48.159,66.4999,-0.016918
48.176,66.4999,-0.018127
48.193,66.4999,-0.021752
48.209,66.4999,-0.022961
48.226,66.4999,-0.022961
48.240,66.4999,-0.018127
48.256,66.4999,-0.018127
48.274,66.4999,-0.015710
48.288,66.4999,-0.014501
48.304,66.4999,-0.015710
48.320,66.4999,-0.015710
48.335,66.4999,-0.019335
48.352,66.4999,-0.020544
48.368,66.4999,-0.015710
48.385,66.4999,-0.018127
48.408,66.4999,-0.020544
48.425,66.4999,-0.019335
48.441,66.4999,-0.021752
48.456,66.4999,-0.014501
48.473,66.4999,-0.019335
48.488,66.4999,-0.024169
48.505,66.4999,-0.024169
48.520,66.4999,-0.018127
48.537,66.4999,-0.013293
48.553,66.4999,-0.015710
48.568,66.4999,-0.016918
48.584,66.4999,-0.019335
48.601,66.4999,-0.016918
48.617,66.4999,-0.022961
48.633,66.4999,-0.026586
48.648,66.4999,-0.018127
48.665,66.4999,-0.020544
48.680,66.4999,-0.019335
48.696,66.4999,-0.016918
48.712,66.4999,-0.016918
48.728,66.4999,-0.019335
48.745,66.4999,-0.019335
48.760,66.4999,-0.022961
48.777,66.4999,-0.016918
48.793,66.4999,-0.020544
48.808,66.4999,-0.014501
48.824,66.4999,-0.012084
48.847,66.4999,-0.012084
48.857,66.4999,-0.015710
48.873,66.4999,-0.016918
48.893,66.4999,-0.016918
48.905,66.4999,-0.016918
48.920,66.4999,-0.015710
48.936,66.4999,-0.013293
48.952,66.4999,-0.012084
48.968,66.4999,-0.015710
48.984,66.4999,-0.014501
49.000,66.4999,-0.020544
49.016,66.4999,-0.020544
49.033,66.4999,-0.024169
49.048,66.4999,-0.019335
49.065,66.4999,-0.020544
49.080,66.4999,-0.014501
49.097,66.4999,-0.014501
49.113,66.4999,-0.014501
49.132,66.4999,-0.020544
49.144,66.4999,-0.021752
49.160,66.4999,-0.020544
49.176,66.4999,-0.020544
49.193,66.4999,-0.020544
49.209,66.4999,-0.014501
49.224,66.4999,-0.014501
49.240,66.4999,-0.020544
49.256,66.4999,-0.018127
49.272,66.4999,-0.018127
49.288,66.4999,-0.018127
49.304,66.4999,-0.024169
49.320,66.4999,-0.019335
49.338,66.4999,-0.018127
49.353,66.4999,-0.015710
49.368,66.4999,-0.019335
49.384,66.4999,-0.013293
49.401,66.4999,-0.015710
49.416,66.4999,-0.020544
49.432,66.4999,-0.022961
49.448,66.4999,-0.018127
49.464,66.4999,-0.019335
49.480,66.4999,-0.015710
49.496,66.4999,-0.021752
49.527,66.4999,-0.020544
49.543,66.4999,-0.019335
49.561,66.4999,-0.020544
49.574,66.4999,-0.016918
49.593,66.4999,-0.016918
49.607,66.4999,-0.021752
49.625,66.4999,-0.021752
49.639,66.4999,-0.018127
49.655,66.4999,-0.018127
49.671,66.4999,-0.020544
49.687,66.4999,-0.019335
49.703,66.4999,-0.019335
49.720,66.4999,-0.012084
49.735,66.4999,-0.015710
49.751,66.4999,-0.013293
49.767,66.4999,-0.019335
49.783,66.4999,-0.021752
49.799,66.4999,-0.019335
49.814,66.4999,-0.021752
49.831,66.4999,-0.020544
49.847,66.4999,-0.016918
49.862,66.4999,-0.018127
49.879,66.4999,-0.019335
49.900,66.4999,-0.018127
49.912,66.4999,-0.024169
49.926,66.4999,-0.019335
49.942,66.4999,-0.013293
49.959,66.4999,-0.018127
49.975,66.4999,-0.015710
49.994,66.4999,-0.018127
50.006,66.4999,-0.015710
50.023,66.4999,-0.015710
50.039,66.4999,-0.014501
50.057,66.4999,-0.012084
50.082,66.4999,-0.012084
50.098,66.4999,-0.015710
50.114,66.4999,-0.019335
50.130,66.4999,-0.026586
50.146,66.4999,-0.013293
50.161,66.4999,-0.009668
50.178,66.4999,-0.012084
50.193,66.4999,-0.010876
50.210,66.4999,-0.015710
50.226,66.4999,-0.016918
50.244,66.4999,-0.015710
50.257,66.4999,-0.025377
50.273,66.4999,-0.013293
50.289,66.4999,-0.012084
50.305,66.4999,-0.021752
50.325,66.4999,-0.021752
50.337,66.4999,-0.015710
50.354,66.4999,-0.018127
50.369,66.4999,-0.018127
50.386,66.4999,-0.018127
50.401,66.4999,-0.014501
50.419,66.4999,-0.019335
50.433,66.4999,-0.019335
50.450,66.4999,-0.016918
50.466,66.4999,-0.022961
50.481,66.4999,-0.020544
50.498,66.4999,-0.021752
50.514,66.4999,-0.015710
50.529,66.4999,-0.010876
50.545,66.4999,-0.012084
50.562,66.4999,-0.020544
50.578,66.4999,-0.020544
50.595,66.4999,-0.020544
50.625,66.4999,-0.015710
50.641,66.4999,-0.015710
50.657,66.4999,-0.014501
50.672,66.4999,-0.015710
50.690,66.4999,-0.022961
50.705,66.4999,-0.022961
50.723,66.4999,-0.018127
50.736,66.4999,-0.015710
50.754,66.4999,-0.015710
50.768,66.4999,-0.016918
50.785,66.4999,-0.018127
50.800,66.4999,-0.018127
50.817,66.4999,-0.019335
50.832,66.4999,-0.018127
50.848,66.4999,-0.015710
50.864,66.4999,-0.015710
50.880,66.4999,-0.013293
50.896,66.4999,-0.018127
50.912,66.4999,-0.018127
50.929,66.4999,-0.020544
50.945,66.4999,-0.020544
50.960,66.4999,-0.016918
50.976,66.4999,-0.016918
50.993,66.4999,-0.015710
51.008,66.4999,-0.014501
51.024,66.4999,-0.019335
51.040,66.4999,-0.018127
51.058,66.4999,-0.020544
51.073,66.4999,-0.020544
51.090,66.4999,-0.018127
51.104,66.4999,-0.013293
51.121,66.4999,-0.013293
51.137,66.4999,-0.020544
51.153,66.4999,-0.018127
51.177,66.4999,-0.019335
51.193,66.4999,-0.018127
51.209,66.4999,-0.021752
51.225,66.4999,-0.020544
51.244,66.4999,-0.021752
51.257,66.4999,-0.018127
51.274,66.4999,-0.018127
51.289,66.4999,-0.018127
51.305,66.4999,-0.014501
51.321,66.4999,-0.014501
51.337,66.4999,-0.021752
51.352,66.4999,-0.015710
51.371,66.4999,-0.019335
51.385,66.4999,-0.025377
51.403,66.4999,-0.022961
51.417,66.4999,-0.018127
51.434,66.4999,-0.018127
51.449,66.4999,-0.018127
51.466,66.4999,-0.014501
51.481,66.4999,-0.014501
51.497,66.4999,-0.016918
51.513,66.4999,-0.016918
51.529,66.4999,-0.015710
51.545,66.4999,-0.013293
51.561,66.4999,-0.020544
51.577,66.4999,-0.013293
51.593,66.4999,-0.010876
51.611,66.4999,-0.016918
51.625,66.4999,-0.018127
51.641,66.4999,-0.013293
51.657,66.4999,-0.018127
51.673,66.4999,-0.015710
51.689,66.4999,-0.012084
51.705,66.4999,-0.008459
51.721,66.4999,-0.020544
51.744,66.4999,-0.020544
51.759,66.4999,-0.016918
51.776,66.4999,-0.012084
51.791,66.4999,-0.015710
51.807,66.4999,-0.018127
51.823,66.4999,-0.010876
51.839,66.4999,-0.018127
51.855,66.4999,-0.018127
51.874,66.4999,-0.013293
51.888,66.4999,-0.018127
51.904,66.4999,-0.018127
51.919,66.4999,-0.012084
51.935,66.4999,-0.022961
51.951,66.4999,-0.019335
51.967,66.4999,-0.015710
51.983,66.4999,-0.016918
51.999,66.4999,-0.015710
52.015,66.4999,-0.015710
52.033,66.4999,-0.019335
52.047,66.4999,-0.019335
52.063,66.4999,-0.022961
52.079,66.4999,-0.014501
52.094,66.4999,-0.014501
52.111,66.4999,-0.013293
52.127,66.4999,-0.012084
52.146,66.4999,-0.012084
52.158,66.4999,-0.019335
52.175,66.4999,-0.024169
52.190,66.4999,-0.018127
52.207,66.4999,-0.016918
52.222,66.4999,-0.022961
52.238,66.4999,-0.018127
52.254,66.4999,-0.018127
52.270,66.4999,-0.018127
52.293,66.4999,-0.015710
52.309,66.4999,-0.012084
52.325,66.4999,-0.016918
52.341,66.4999,-0.016918
52.358,66.4999,-0.018127
52.374,66.4999,-0.014501
52.391,66.4999,-0.012084
52.405,66.4999,-0.022961
52.421,66.4999,-0.022961
52.438,66.4999,-0.019335
52.453,66.4999,-0.019335
52.470,66.4999,-0.016918
52.485,66.4999,-0.018127
52.501,66.4999,-0.019335
52.517,66.4999,-0.020544
52.536,66.4999,-0.024169
52.549,66.4999,-0.016918
52.565,66.4999,-0.010876
52.581,66.4999,-0.014501
52.599,66.4999,-0.022961
52.615,66.4999,-0.020544
52.630,66.4999,-0.021752
52.645,66.4999,-0.018127
52.662,66.4999,-0.014501
52.678,66.4999,-0.007251
52.693,66.4999,-0.012084
52.710,66.4999,-0.016918
52.727,66.4999,-0.016918
52.742,66.4999,-0.016918
52.761,66.4999,-0.016918
52.773,66.4999,-0.015710
52.791,66.4999,-0.013293
52.806,66.4999,-0.019335
52.823,66.4999,-0.010876
52.846,66.4999,-0.018127
52.862,66.4999,-0.014501
52.878,66.4999,-0.016918
52.894,66.4999,-0.016918
52.913,66.4999,-0.010876
52.926,66.4999,-0.018127
52.943,66.4999,-0.015710
52.958,66.4999,-0.019335
52.976,66.4999,-0.018127
52.990,66.4999,-0.016918
53.009,66.4999,-0.016918
53.022,66.4999,-0.024169
53.039,66.4999,-0.020544
53.054,66.4999,-0.020544
53.071,66.4999,-0.010876
53.086,66.4999,-0.026586
53.102,66.4999,-0.026586
53.119,66.4999,-0.019335
53.134,66.4999,-0.019335
53.150,66.4999,-0.010876
53.166,66.4999,-0.015710
53.183,66.4999,-0.015710
53.198,66.4999,-0.021752
53.214,66.4999,-0.020544
53.231,66.4999,-0.016918
53.246,66.4999,-0.021752
53.262,66.4999,-0.019335
53.278,66.4999,-0.013293
53.294,66.4999,-0.013293
53.310,66.4999,-0.015710
53.326,66.4999,-0.019335
53.342,66.4999,-0.012084
53.359,66.4999,-0.015710
53.374,66.4999,-0.013293
53.405,66.4999,-0.013293
53.421,66.4999,-0.019335
53.437,66.4999,-0.019335
53.453,66.4999,-0.016918
53.470,66.4999,-0.015710
53.486,66.4999,-0.015710
53.503,66.4999,-0.015710
53.517,66.4999,-0.022961
53.532,66.4999,-0.020544
53.549,66.4999,-0.015710
53.565,66.4999,-0.020544
53.581,66.4999,-0.020544
53.597,66.4999,-0.013293
53.613,66.4999,-0.015710
53.629,66.4999,-0.016918
53.647,66.4999,-0.016918
53.661,66.4999,-0.016918
53.677,66.4999,-0.019335
53.693,66.4999,-0.019335
53.710,66.4999,-0.018127
53.725,66.4999,-0.013293
53.741,66.4999,-0.015710
53.756,66.4999,-0.015710
53.774,66.4999,-0.012084
53.789,66.4999,-0.019335
53.805,66.4999,-0.016918
53.821,66.4999,-0.022961
53.838,66.4999,-0.015710
53.853,66.4999,-0.015710
53.870,66.4999,-0.016918
53.885,66.4999,-0.019335
53.901,66.4999,-0.018127
53.917,66.4999,-0.015710
53.934,66.4999,-0.018127
53.958,66.4999,-0.015710
53.974,66.4999,-0.013293
53.990,66.4999,-0.015710
54.006,66.4999,-0.018127
54.022,66.4999,-0.019335
54.038,66.4999,-0.016918
54.054,66.4999,-0.013293
54.070,66.4999,-0.016918
54.086,66.4999,-0.012084
54.102,66.4999,-0.012084
54.121,66.4999,-0.021752
54.134,66.4999,-0.019335
54.150,66.4999,-0.015710
54.167,66.4999,-0.016918
54.183,66.4999,-0.016918
54.198,66.4999,-0.014501
54.214,66.4999,-0.014501
54.229,66.4999,-0.018127
54.246,66.4999,-0.020544
54.264,66.4908,-0.018127
54.278,66.4705,-0.006042
54.294,66.4479,-0.006042
54.310,66.4252,-0.012084
54.327,66.4015,-0.008459
54.341,66.3798,-0.003625
54.358,66.3570,-0.007251
54.377,66.3287,-0.007251
54.389,66.3110,0.000000
54.405,66.2884,0.004834
54.421,66.2655,0.007251
54.439,66.2402,0.008459
54.454,66.2185,0.008459
54.470,66.1940,0.016918
54.497,66.1563,0.015710
54.513,66.1330,0.022961
54.529,66.1101,0.022961
54.545,66.0877,0.022961
54.562,66.0641,0.022961
54.578,66.0412,0.030211
54.593,66.0189,0.030211
54.611,65.9927,0.033837
54.626,65.9715,0.039879
54.645,65.9436,0.039879
54.657,65.9271,0.032628
54.675,65.9013,0.037462
54.690,65.8806,0.038670
54.707,65.8548,0.047129
54.721,65.8354,0.047129
54.737,65.8122,0.055589
54.753,65.7890,0.055589
54.769,65.7667,0.055589
54.785,65.7422,0.060422
54.802,65.7203,0.065256
54.817,65.6967,0.056797
54.833,65.6746,0.059214
54.852,65.6472,0.059214
54.866,65.6280,0.062839
54.882,65.6053,0.061631
54.897,65.5831,0.065256
54.916,65.5568,0.065256
54.930,65.5367,0.064048
54.946,65.5133,0.068882
54.961,65.4913,0.068882
54.979,65.4661,0.070090
54.994,65.4442,0.070090
55.010,65.4208,0.073715
55.025,65.3997,0.076132
55.048,65.3653,0.074924
55.063,65.3447,0.074924
55.079,65.3217,0.080966
55.095,65.2993,0.084591
55.112,65.2742,0.082174
55.128,65.2511,0.079758
55.143,65.2300,0.079758
55.159,65.2072,0.084591
55.176,65.1832,0.084591
55.192,65.1599,0.084591
55.209,65.1360,0.085800
55.223,65.1149,0.082174
55.240,65.0896,0.082174
55.255,65.0688,0.080966
55.271,65.0468,0.078549
55.287,65.0239,0.074924
55.304,64.9989,0.073715
55.320,64.9769,0.072507
55.336,64.9531,0.067673
55.351,64.9322,0.065256
55.367,64.9092,0.059214
55.383,64.8853,0.058005
55.399,64.8635,0.038670
55.423,64.8274,0.025377
55.433,64.8128,0.018127
55.447,64.7936,0.009668
55.463,64.7712,0.008459
55.481,64.7461,0.001208
55.495,64.7246,0.004834
55.512,64.7007,0.003625
55.527,64.6800,0.001208
55.544,64.6543,0.002417
55.558,64.6341,0.007251
55.575,64.6100,0.003625
55.606,64.5661,-0.003625
55.621,64.5445,0.003625
55.637,64.5213,-0.001208
55.653,64.4993,-0.001208
55.670,64.4735,-0.001208
55.686,64.4514,0.009668
55.704,64.4253,0.009668
55.717,64.4076,-0.002417
55.733,64.3843,-0.001208
55.750,64.3606,0.002417
55.766,64.3357,-0.002417
55.781,64.3158,-0.002417
55.797,64.2920,0.000000
55.813,64.2691,0.001208
55.829,64.2471,0.002417
55.845,64.2227,-0.001208
55.861,64.2005,-0.007251
55.877,64.1774,0.000000
55.893,64.1551,0.002417
55.916,64.1191,0.007251
55.930,64.1019,0.001208
55.941,64.0860,-0.003625
55.958,64.0618,-0.003625
55.973,64.0402,-0.004834
55.989,64.0169,0.001208
56.005,63.9944,0.000000
56.021,63.9714,0.003625
56.037,63.9480,-0.002417
56.053,63.9249,0.003625
56.071,63.8992,-0.001208
56.085,63.8798,0.001208
56.102,63.8545,0.001208
56.117,63.8305,0.001208
56.133,63.8096,-0.001208
56.149,63.7875,0.001208
56.171,63.7564,-0.001208
56.187,63.7328,0.004834
56.203,63.7106,0.002417
56.218,63.6876,-0.001208
56.235,63.6637,0.000000
56.251,63.6418,0.002417
56.267,63.6189,0.002417
56.283,63.5945,0.000000
56.299,63.5721,0.003625
56.316,63.5476,0.002417
56.331,63.5270,-0.001208
56.347,63.5025,0.002417
56.363,63.4795,0.001208
56.378,63.4580,0.002417
56.395,63.4344,-0.001208
56.410,63.4126,0.000000
56.426,63.3884,0.002417
56.442,63.3667,0.002417
56.459,63.3424,-0.001208
56.475,63.3188,0.008459
56.490,63.2977,0.003625
56.506,63.2740,0.000000
56.523,63.2516,0.001208
56.540,63.2253,0.008459
56.555,63.2043,0.008459
56.570,63.1830,0.003625
56.586,63.1592,0.006042
56.603,63.1361,-0.004834
56.618,63.1138,-0.001208
56.634,63.0913,-0.001208
56.657,63.0584,0.001208
56.668,63.0437,0.008459
56.683,63.0219,0.004834
56.700,62.9962,0.000000
56.725,62.9607,-0.002417
56.741,62.9383,-0.001208
56.756,62.9160,0.002417
56.772,62.8935,0.002417
56.790,62.8679,-0.001208
56.804,62.8476,-0.002417
56.821,62.8238,-0.002417
56.836,62.8016,-0.004834
56.852,62.7783,0.002417
56.869,62.7544,0.001208
56.884,62.7330,-0.001208
56.902,62.7072,-0.003625
56.918,62.6852,0.003625
56.932,62.6641,0.003625
56.948,62.6413,-0.009668
56.965,62.6166,0.001208
56.980,62.5951,0.002417
56.996,62.5724,0.000000
57.019,62.5383,0.000000
57.030,62.5222,0.007251
57.044,62.5033,0.001208
57.061,62.4793,0.001208
57.076,62.4577,0.001208
57.093,62.4329,0.004834
57.109,62.4108,0.004834
57.124,62.3876,0.003625
57.149,62.3527,-0.001208
57.171,62.3220,0.001208
57.188,62.2964,0.002417
57.205,62.2717,0.003625
57.221,62.2500,0.002417
57.237,62.2274,0.004834
57.252,62.2053,-0.002417
57.268,62.1823,0.001208
57.285,62.1587,0.001208
57.300,62.1365,0.002417
57.316,62.1137,0.000000
57.333,62.0865,-0.002417
57.350,62.0650,-0.002417
57.368,62.0390,-0.001208
57.380,62.0219,0.003625
57.398,61.9937,-0.001208
57.413,61.9746,0.000000
57.431,61.9487,0.002417
57.446,61.9278,0.000000
57.460,61.9067,0.001208
57.477,61.8827,-0.003625
57.492,61.8603,-0.007251
57.510,61.8335,-0.002417
57.524,61.8151,-0.002417
57.540,61.7913,0.002417
57.557,61.7678,-0.006042
57.572,61.7452,-0.006042
57.588,61.7232,-0.004834
57.604,61.7005,-0.004834
57.621,61.6762,0.002417
57.636,61.6533,0.001208
57.652,61.6318,0.004834
57.671,61.6053,-0.001208
57.684,61.5856,-0.001208
57.701,61.5609,0.004834
57.716,61.5401,-0.004834
57.732,61.5161,-0.004834
57.749,61.4922,-0.001208
57.763,61.4712,0.001208
57.796,61.4250,0.002417
57.811,61.4033,-0.001208
57.827,61.3807,-0.009668
57.843,61.3581,0.008459
57.861,61.3319,0.003625
57.875,61.3105,-0.003625
57.891,61.2888,0.007251
57.907,61.2651,-0.002417
57.924,61.2414,-0.002417
57.939,61.2195,-0.002417
57.956,61.1953,-0.004834
57.973,61.1717,0.000000
57.988,61.1495,-0.001208
58.003,61.1281,-0.001208
58.019,61.1056,-0.001208
58.035,61.0827,0.000000
58.051,61.0581,-0.001208
58.067,61.0359,-0.003625
58.083,61.0128,0.001208
58.099,60.9908,-0.001208
58.115,60.9669,-0.001208
58.133,60.9402,-0.004834
58.147,60.9212,0.001208
58.163,60.8989,0.001208
58.179,60.8763,0.002417
58.197,60.8483,0.004834
58.211,60.8304,0.004834
58.227,60.8068,0.003625
58.244,60.7825,0.000000
58.261,60.7575,0.001208
58.275,60.7377,0.001208
58.291,60.7152,0.000000
58.321,60.6725,0.000000
58.336,60.6503,-0.001208
58.352,60.6282,-0.001208
58.368,60.6053,0.001208
58.385,60.5806,0.000000
58.402,60.5567,0.002417
58.419,60.5309,-0.001208
58.433,60.5118,-0.001208
58.448,60.4883,-0.001208
58.464,60.4665,0.003625
58.480,60.4499,-0.001208
58.496,60.4499,0.000000
58.512,60.4499,0.000000
58.527,60.4499,-0.002417
58.546,60.4499,-0.002417
58.559,60.4499,0.003625
58.576,60.4499,0.001208
58.591,60.4499,0.000000
58.610,60.4499,0.004834
58.624,60.4499,0.001208
58.640,60.4499,-0.010876
58.655,60.4499,-0.002417
58.673,60.4499,-0.004834
58.688,60.4499,0.001208
58.704,60.4499,-0.001208
58.719,60.4499,-0.001208
58.736,60.4499,0.001208
58.752,60.4499,0.000000
58.768,60.4499,-0.001208
58.783,60.4499,0.002417
58.800,60.4499,0.001208
58.816,60.4499,-0.003625
58.834,60.4499,-0.002417
58.857,60.4499,-0.001208
58.873,60.4499,-0.001208
58.889,60.4499,0.000000
58.905,60.4499,0.000000
58.926,60.4499,0.000000
58.938,60.4499,0.003625
58.954,60.4499,0.001208
58.973,60.4499,-0.004834
58.987,60.4599,-0.013293
59.002,60.4828,-0.012084
59.020,60.5089,0.003625
59.036,60.5300,0.003625
59.049,60.5495,0.000000
59.066,60.5735,-0.004834
59.081,60.5952,-0.004834
59.099,60.6210,0.001208
59.113,60.6413,0.000000
59.131,60.6671,-0.003625
59.145,60.6871,-0.004834
59.162,60.7116,-0.004834
59.178,60.7339,-0.003625
59.193,60.7559,-0.001208
59.211,60.7810,0.003625
59.226,60.8037,-0.002417
59.242,60.8253,-0.007251
59.258,60.8490,0.002417
59.273,60.8705,-0.001208
59.290,60.8951,0.003625
59.305,60.9165,0.001208
59.324,60.9451,0.001208
59.338,60.9631,0.003625
59.354,60.9859,-0.006042
59.369,61.0096,-0.003625
59.393,61.0433,-0.003625
59.409,61.0654,-0.002417
59.425,61.0879,-0.002417
59.440,61.1101,0.000000
59.456,61.1328,-0.004834
59.472,61.1560,-0.004834
59.488,61.1793,-0.004834
59.504,61.2018,-0.004834
59.521,61.2259,-0.007251
59.536,61.2481,-0.004834
59.552,61.2706,0.003625
59.568,61.2936,0.000000
59.586,61.3199,0.000000
59.600,61.3406,0.000000
59.616,61.3627,-0.001208
59.632,61.3853,-0.002417
59.648,61.4083,0.001208
59.665,61.4327,-0.001208
59.682,61.4571,-0.001208
59.698,61.4798,-0.001208
59.712,61.4997,-0.001208
59.729,61.5269,0.000000
59.744,61.5458,0.003625
59.760,61.5706,0.001208
59.776,61.5915,0.000000
59.792,61.6153,0.003625
59.811,61.6423,-0.002417
59.825,61.6627,0.000000
59.840,61.6842,-0.003625
59.857,61.7080,-0.001208
59.872,61.7303,-0.001208
59.888,61.7541,-0.003625
59.904,61.7757,-0.001208
59.920,61.7982,-0.004834
59.936,61.8211,-0.003625
59.952,61.8447,-0.003625
59.968,61.8672,0.000000
59.984,61.8898,-0.003625
60.000,61.9134,-0.002417
60.016,61.9357,-0.006042
60.032,61.9585,-0.002417
60.050,61.9851,0.000000
60.064,62.0049,0.000000
60.081,62.0300,-0.003625
60.096,62.0505,0.006042
60.113,62.0753,0.006042
60.129,62.0990,-0.003625
60.148,62.1268,-0.008459
60.161,62.1439,-0.004834
60.176,62.1661,-0.003625
60.193,62.1898,-0.003625
60.208,62.2110,0.003625
60.225,62.2352,0.000000
60.241,62.2588,0.000000
60.256,62.2799,-0.001208
60.272,62.3028,-0.001208
60.289,62.3284,0.000000
60.304,62.3504,0.006042
60.320,62.3715,-0.001208
60.339,62.4013,0.001208
60.352,62.4185,-0.004834
60.368,62.4406,-0.002417
60.384,62.4634,-0.010876
60.401,62.4876,-0.004834
60.417,62.5105,-0.004834
60.432,62.5326,-0.003625
60.458,62.5701,-0.004834
60.473,62.5918,-0.001208
60.489,62.6142,-0.001208
60.505,62.6368,0.000000
60.525,62.6659,0.000000
60.537,62.6828,-0.006042
60.553,62.7061,-0.001208
60.569,62.7287,-0.002417
60.590,62.7600,-0.007251
60.602,62.7766,-0.004834
60.617,62.7985,-0.001208
60.636,62.8253,0.003625
60.649,62.8445,-0.004834
60.666,62.8682,0.003625
60.683,62.8953,0.001208
60.697,62.9123,-0.002417
60.713,62.9356,-0.002417
60.729,62.9585,-0.002417
60.744,62.9808,0.001208
60.761,63.0049,0.001208
60.777,63.0281,-0.003625
60.795,63.0538,-0.001208
60.814,63.0804,-0.003625
60.825,63.0963,-0.001208
60.841,63.1191,-0.001208
60.856,63.1414,0.000000
60.876,63.1701,0.000000
60.888,63.1875,-0.004834
60.904,63.2110,-0.004834
60.920,63.2333,-0.004834
60.937,63.2563,0.000000
60.953,63.2811,0.001208
60.968,63.3022,0.009668
60.985,63.3259,0.002417
61.000,63.3481,-0.006042
61.017,63.3713,-0.004834
61.032,63.3941,-0.001208
61.048,63.4167,-0.002417
61.069,63.4465,-0.003625
61.081,63.4644,0.001208
61.097,63.4861,0.000000
61.114,63.5115,-0.010876
61.130,63.5334,-0.003625
61.145,63.5559,-0.001208
61.164,63.5843,-0.002417
61.176,63.6003,-0.003625
61.193,63.6244,0.001208
61.208,63.6465,0.003625
61.224,63.6690,0.003625
61.240,63.6921,-0.002417
61.258,63.7169,-0.001208
61.273,63.7397,-0.003625
61.288,63.7607,0.000000
61.307,63.7876,0.001208
61.320,63.8081,0.000000
61.336,63.8300,0.000000
61.352,63.8525,0.000000
61.370,63.8785,-0.006042
61.385,63.8992,-0.003625
61.401,63.9221,-0.002417
61.416,63.9443,0.001208
61.433,63.9693,0.000000
61.449,63.9910,-0.009668
61.465,64.0148,-0.003625
61.482,64.0389,-0.004834
61.496,64.0596,0.001208
61.512,64.0819,0.000000
61.539,64.1209,0.000000
61.555,64.1438,-0.003625
61.571,64.1669,0.001208
61.587,64.1894,-0.002417
61.605,64.2145,-0.001208
61.619,64.2355,0.001208
61.635,64.2582,-0.004834
61.651,64.2817,-0.006042
61.667,64.3052,-0.006042
61.683,64.3274,-0.006042
61.703,64.3559,-0.002417
61.715,64.3735,0.003625
61.732,64.3979,0.003625
61.747,64.4196,-0.002417
61.764,64.4436,-0.002417
61.779,64.4652,-0.006042
61.796,64.4886,-0.004834
61.811,64.5108,-0.004834
61.827,64.5336,-0.002417
61.843,64.5572,-0.002417
61.859,64.5804,-0.010876
61.875,64.6024,-0.003625
61.894,64.6302,-0.006042
61.907,64.6483,-0.004834
61.924,64.6733,-0.007251
61.939,64.6942,-0.002417
61.955,64.7189,-0.009668
61.973,64.7428,-0.007251
61.987,64.7638,-0.004834
62.003,64.7859,-0.004834
62.021,64.8119,-0.008459
62.036,64.8342,-0.003625
62.051,64.8553,-0.003625
62.083,64.9016,0.000000
62.099,64.9253,-0.001208
62.115,64.9471,-0.009668
62.133,64.9725,-0.007251
62.147,64.9925,-0.006042
62.164,65.0179,-0.007251
62.181,65.0414,-0.007251
62.199,65.0670,-0.003625
62.210,65.0842,-0.003625
62.227,65.1090,-0.002417
62.243,65.1298,-0.010876
62.259,65.1535,-0.002417
62.275,65.1759,-0.008459
62.291,65.1994,-0.008459
62.307,65.2222,-0.004834
62.323,65.2446,-0.007251
62.339,65.2689,-0.001208
62.355,65.2915,-0.008459
62.374,65.3184,-0.008459
62.387,65.3365,-0.006042
62.403,65.3596,-0.006042
62.419,65.3824,-0.007251
62.435,65.4059,-0.007251
62.451,65.4283,-0.001208
62.467,65.4519,-0.010876
62.483,65.4757,-0.010876
62.499,65.4973,-0.002417
62.515,65.5211,-0.006042
62.531,65.5437,-0.008459
62.547,65.5657,-0.012084
62.564,65.5912,-0.012084
62.579,65.6121,-0.009668
62.597,65.6390,-0.010876
62.622,65.6740,-0.009668
62.637,65.6951,-0.004834
62.653,65.7180,-0.004834
62.669,65.7407,-0.010876
62.686,65.7655,-0.008459
62.701,65.7876,-0.016918
62.718,65.8114,-0.016918
62.733,65.8324,-0.012084
62.749,65.8581,-0.009668
62.764,65.8784,-0.009668
62.782,65.9041,-0.012084
62.797,65.9255,-0.014501
62.813,65.9485,-0.015710
62.828,65.9705,-0.009668
62.845,65.9940,-0.009668
62.861,66.0166,-0.012084
62.877,66.0398,-0.018127
62.893,66.0632,-0.013293
62.908,66.0846,-0.024169
62.926,66.1096,-0.020544
62.941,66.1313,-0.020544
62.956,66.1541,-0.022961
62.972,66.1767,-0.018127
62.988,66.1994,-0.030211
63.005,66.2234,-0.029003
63.020,66.2456,-0.029003
63.036,66.2685,-0.029003
63.053,66.2923,-0.022961
63.068,66.3142,-0.025377
63.084,66.3374,-0.025377
63.101,66.3602,-0.029003
63.116,66.3830,-0.032628
63.132,66.4060,-0.035045
63.149,66.4297,-0.033837
63.176,66.4499,-0.031420
63.192,66.4499,-0.036253
63.208,66.4499,-0.032628
63.224,66.4499,-0.041087
63.241,66.4499,-0.041087
63.256,66.4499,-0.033837
63.272,66.4499,-0.033837
63.288,66.4499,-0.037462
63.304,66.4499,-0.032628
63.321,66.4499,-0.027794
63.339,66.4499,-0.030211
63.352,66.4499,-0.030211
63.368,66.4499,-0.027794
63.384,66.4499,-0.031420
63.403,66.4499,-0.029003
63.416,66.4499,-0.032628
63.433,66.4499,-0.032628
63.448,66.4499,-0.031420
63.465,66.4499,-0.030211
63.480,66.4499,-0.027794
63.497,66.4499,-0.033837
63.513,66.4499,-0.036253
63.529,66.4499,-0.030211
63.544,66.4499,-0.026586
63.560,66.4499,-0.027794
63.576,66.4499,-0.027794
63.596,66.4499,-0.032628
63.609,66.4499,-0.025377
63.625,66.4499,-0.026586
63.644,66.4499,-0.026586
63.657,66.4499,-0.031420
63.673,66.4499,-0.033837
63.691,66.4499,-0.027794
63.717,66.4499,-0.025377
63.732,66.4499,-0.027794
63.748,66.4499,-0.029003
63.763,66.4499,-0.022961
63.781,66.4499,-0.027794
63.795,66.4499,-0.022961
63.812,66.4499,-0.022961
63.827,66.4499,-0.030211
63.844,66.4499,-0.030211
63.860,66.4499,-0.025377
63.875,66.4499,-0.031420
63.893,66.4499,-0.031420
63.908,66.4499,-0.027794
63.924,66.4499,-0.027794
63.939,66.4499,-0.020544
63.957,66.4499,-0.024169
63.971,66.4499,-0.030211
63.988,66.4499,-0.030211
64.003,66.4499,-0.026586
64.020,66.4499,-0.022961
64.036,66.4499,-0.019335
64.051,66.4499,-0.019335
64.068,66.4499,-0.024169
64.084,66.4499,-0.030211
64.099,66.4499,-0.025377
64.115,66.4499,-0.021752
64.131,66.4499,-0.021752
64.147,66.4499,-0.026586
64.163,66.4499,-0.026586
64.179,66.4499,-0.030211
64.196,66.4499,-0.024169
64.211,66.4499,-0.026586
64.227,66.4499,-0.020544
64.257,66.4499,-0.022961
64.273,66.4499,-0.022961
64.289,66.4499,-0.021752
64.305,66.4499,-0.024169
64.321,66.4499,-0.024169
64.337,66.4499,-0.024169
64.357,66.4499,-0.026586
64.369,66.4499,-0.020544
64.385,66.4499,-0.020544
