Elapsed Time (s),Position (mm),Force (N)
-0.015,61.6000,-0.031420
0.001,61.6000,-0.027794
0.014,61.6000,-0.027794
0.030,61.6000,-0.029003
0.047,61.6000,-0.030211
0.062,61.6000,-0.030211
0.078,61.6000,-0.030211
0.094,61.6000,-0.026586
0.122,61.6000,-0.026586
0.138,61.6000,-0.027794
0.153,61.6000,-0.027794
0.169,61.6000,-0.031420
0.185,61.6000,-0.031420
0.201,61.6000,-0.029003
0.217,61.6000,-0.029003
0.232,61.6000,-0.024169
0.249,61.6000,-0.029003
0.265,61.6000,-0.029003
0.281,61.6000,-0.027794
0.297,61.6000,-0.029003
0.313,61.6000,-0.027794
0.329,61.6000,-0.031420
0.355,61.6000,-0.026586
0.375,61.6000,-0.025377
0.393,61.6000,-0.030211
0.409,61.6000,-0.027794
0.425,61.6000,-0.022961
0.441,61.6000,-0.025377
0.457,61.6000,-0.022961
0.474,61.6000,-0.026586
0.489,61.6000,-0.026586
0.505,61.6000,-0.030211
0.521,61.6000,-0.033837
0.537,61.6000,-0.024169
0.553,61.6000,-0.029003
0.569,61.6000,-0.025377
0.584,61.6000,-0.025377
0.601,61.6000,-0.024169
0.618,61.6000,-0.027794
0.633,61.6000,-0.033837
0.661,61.6000,-0.032628
0.677,61.6000,-0.026586
0.693,61.6000,-0.025377
0.709,61.6000,-0.022961
0.725,61.6000,-0.019335
0.741,61.6000,-0.025377
0.759,61.6000,-0.024169
0.773,61.6000,-0.024169
0.789,61.6000,-0.019335
0.805,61.6000,-0.025377
0.823,61.6000,-0.025377
0.837,61.6000,-0.020544
0.853,61.6000,-0.027794
0.869,61.6000,-0.024169
0.885,61.6000,-0.024169
0.901,61.6000,-0.025377
0.918,61.6000,-0.020544
0.933,61.6000,-0.024169
0.948,61.6000,-0.025377
0.967,61.6000,-0.027794
0.980,61.6000,-0.021752
0.997,61.6000,-0.018127
1.012,61.6000,-0.027794
1.029,61.6000,-0.019335
1.045,61.6000,-0.019335
1.060,61.6000,-0.020544
1.077,61.6000,-0.021752
1.094,61.6000,-0.021752
1.109,61.6000,-0.021752
1.128,61.6000,-0.025377
1.140,61.6000,-0.022961
1.157,61.6000,-0.020544
1.172,61.6000,-0.022961
1.202,61.6000,-0.022961
1.218,61.6000,-0.016918
1.235,61.6000,-0.018127
1.250,61.6000,-0.020544
1.266,61.6000,-0.015710
1.282,61.6000,-0.021752
1.298,61.6000,-0.016918
1.315,61.6000,-0.016918
1.331,61.6000,-0.018127
1.347,61.6000,-0.025377
1.362,61.6000,-0.024169
1.378,61.6000,-0.019335
1.395,61.6000,-0.018127
1.410,61.6000,-0.021752
1.426,61.6000,-0.025377
1.442,61.6000,-0.027794
1.458,61.6000,-0.019335
1.474,61.6000,-0.021752
1.490,61.6000,-0.025377
1.506,61.6000,-0.021752
1.523,61.6000,-0.022961
1.538,61.6000,-0.021752
1.554,61.6000,-0.020544
1.571,61.6000,-0.024169
1.586,61.6000,-0.024169
1.602,61.6000,-0.024169
1.618,61.6000,-0.019335
1.634,61.6000,-0.015710
1.651,61.6000,-0.016918
1.666,61.6000,-0.024169
1.682,61.6000,-0.018127
1.698,61.6000,-0.022961
1.716,61.6000,-0.020544
1.740,61.6000,-0.018127
1.756,61.6000,-0.018127
1.773,61.6000,-0.018127
1.788,61.6000,-0.018127
1.805,61.6000,-0.027794
1.820,61.6000,-0.024169
1.837,61.6000,-0.019335
1.853,61.6000,-0.021752
1.868,61.6000,-0.015710
1.885,61.6000,-0.020544
1.900,61.6000,-0.016918
1.916,61.6000,-0.022961
1.932,61.6000,-0.022961
1.949,61.6000,-0.022961
1.964,61.6000,-0.019335
1.980,61.6000,-0.016918
1.996,61.6000,-0.016918
2.012,61.6000,-0.019335
2.028,61.6000,-0.022961
2.044,61.6000,-0.024169
2.060,61.6000,-0.020544
2.076,61.6000,-0.020544
2.092,61.6000,-0.021752
2.109,61.6000,-0.019335
2.125,61.6000,-0.022961
2.140,61.6000,-0.021752
2.157,61.6000,-0.021752
2.172,61.6000,-0.021752
2.188,61.6000,-0.020544
2.204,61.6000,-0.016918
2.220,61.6000,-0.022961
2.235,61.6000,-0.019335
2.257,61.6000,-0.021752
2.280,61.6000,-0.025377
2.296,61.6000,-0.025377
2.312,61.6000,-0.025377
2.328,61.6000,-0.013293
2.344,61.6000,-0.018127
2.360,61.6000,-0.024169
2.377,61.6000,-0.024169
2.392,61.6000,-0.019335
2.409,61.6000,-0.022961
2.424,61.6000,-0.022961
2.442,61.6000,-0.013293
2.456,61.6000,-0.016918
2.472,61.6000,-0.020544
2.488,61.6000,-0.020544
2.504,61.6000,-0.020544
2.520,61.6000,-0.021752
2.536,61.6000,-0.021752
2.552,61.6000,-0.013293
2.568,61.6000,-0.016918
2.585,61.6000,-0.015710
2.600,61.6000,-0.016918
2.616,61.6000,-0.019335
2.632,61.6000,-0.020544
2.648,61.6000,-0.020544
2.664,61.6000,-0.020544
2.680,61.6000,-0.020544
2.696,61.6000,-0.024169
2.712,61.6000,-0.021752
2.728,61.6000,-0.016918
2.748,61.6000,-0.020544
2.760,61.6000,-0.021752
2.776,61.6000,-0.021752
2.792,61.6000,-0.014501
2.823,61.6000,-0.014501
2.839,61.6000,-0.020544
2.855,61.6000,-0.021752
2.871,61.6000,-0.021752
2.888,61.6000,-0.026586
2.902,61.6000,-0.026586
2.919,61.6000,-0.014501
2.935,61.6000,-0.018127
2.951,61.6000,-0.025377
2.967,61.6000,-0.019335
2.983,61.6000,-0.021752
2.998,61.6000,-0.022961
3.014,61.6000,-0.018127
3.031,61.6000,-0.021752
3.047,61.6000,-0.014501
3.063,61.6000,-0.015710
3.079,61.6000,-0.024169
3.094,61.6000,-0.020544
3.113,61.6000,-0.020544
3.126,61.6000,-0.013293
3.142,61.6000,-0.020544
3.158,61.6000,-0.022961
3.178,61.6000,-0.022961
3.191,61.6000,-0.018127
3.207,61.6000,-0.014501
3.222,61.6000,-0.016918
3.239,61.6000,-0.021752
3.255,61.6000,-0.016918
3.271,61.6000,-0.020544
3.286,61.6000,-0.019335
3.303,61.6000,-0.019335
3.318,61.6000,-0.019335
3.336,61.6000,-0.019335
3.360,61.6000,-0.020544
3.376,61.6000,-0.018127
3.392,61.6000,-0.016918
3.408,61.6000,-0.020544
3.424,61.6000,-0.020544
3.441,61.6000,-0.020544
3.456,61.6000,-0.014501
3.472,61.6000,-0.015710
3.489,61.6000,-0.016918
3.505,61.6000,-0.016918
3.521,61.6000,-0.019335
3.536,61.6000,-0.021752
3.552,61.6000,-0.016918
3.568,61.6000,-0.020544
3.584,61.6000,-0.016918
3.602,61.6000,-0.019335
3.616,61.6000,-0.020544
3.632,61.6000,-0.016918
3.648,61.6000,-0.022961
3.664,61.6000,-0.018127
3.680,61.6000,-0.016918
3.696,61.6000,-0.019335
3.713,61.6000,-0.019335
3.729,61.6000,-0.020544
3.745,61.6000,-0.020544
3.760,61.6000,-0.020544
3.776,61.6000,-0.018127
3.793,61.6000,-0.019335
3.808,61.6000,-0.016918
3.825,61.6000,-0.019335
3.841,61.6000,-0.015710
3.857,61.6000,-0.018127
3.873,61.6000,-0.020544
3.892,61.6000,-0.021752
3.915,61.6000,-0.016918
3.931,61.6000,-0.016918
3.947,61.6000,-0.014501
3.963,61.6000,-0.014501
3.980,61.6000,-0.012084
3.995,61.6000,-0.015710
4.011,61.6000,-0.018127
4.027,61.6000,-0.020544
4.043,61.6000,-0.018127
4.059,61.6000,-0.015710
4.075,61.6000,-0.015710
4.092,61.6000,-0.016918
4.108,61.6000,-0.022961
4.125,61.6000,-0.022961
4.139,61.6000,-0.019335
4.155,61.6000,-0.019335
4.171,61.6000,-0.018127
4.187,61.6000,-0.016918
4.203,61.6000,-0.020544
4.220,61.6000,-0.020544
4.235,61.6000,-0.018127
4.251,61.6000,-0.013293
4.267,61.6000,-0.021752
4.287,61.6000,-0.021752
4.299,61.6000,-0.019335
4.315,61.6000,-0.020544
4.331,61.6000,-0.018127
4.351,61.6000,-0.018127
4.363,61.6000,-0.018127
4.379,61.6000,-0.014501
4.397,61.6000,-0.013293
4.411,61.6000,-0.013293
4.427,61.6000,-0.014501
4.446,61.6000,-0.018127
4.471,61.6000,-0.019335
4.486,61.6000,-0.019335
4.502,61.6000,-0.018127
4.518,61.6000,-0.020544
4.536,61.6000,-0.012084
4.550,61.6000,-0.013293
4.568,61.6000,-0.013293
4.582,61.6000,-0.019335
4.598,61.6000,-0.018127
4.614,61.6000,-0.018127
4.633,61.6000,-0.014501
4.646,61.6000,-0.014501
4.662,61.6000,-0.012084
4.679,61.6000,-0.022961
4.695,61.6000,-0.020544
4.709,61.6000,-0.014501
4.726,61.6000,-0.014501
4.742,61.6000,-0.014501
4.758,61.6000,-0.025377
4.775,61.6000,-0.021752
4.790,61.6000,-0.024169
4.806,61.6000,-0.024169
4.822,61.6000,-0.015710
4.838,61.6000,-0.016918
4.854,61.6000,-0.013293
4.870,61.6000,-0.015710
4.886,61.6000,-0.019335
4.902,61.6000,-0.016918
4.918,61.6000,-0.016918
4.934,61.6000,-0.016918
4.950,61.6000,-0.015710
4.966,61.6000,-0.021752
4.982,61.6000,-0.021752
5.000,61.6000,-0.015710
5.024,61.6000,-0.013293
5.040,61.6000,-0.015710
5.056,61.6000,-0.019335
5.071,61.6000,-0.014501
5.088,61.6000,-0.010876
5.103,61.6000,-0.010876
5.119,61.6000,-0.018127
5.135,61.6000,-0.019335
5.159,61.6000,-0.019335
5.173,61.6000,-0.014501
5.183,61.6000,-0.018127
5.200,61.6000,-0.010876
5.216,61.6000,-0.015710
5.232,61.6000,-0.015710
5.248,61.6000,-0.015710
5.263,61.6000,-0.016918
5.279,61.6000,-0.016918
5.296,61.6000,-0.020544
5.311,61.6000,-0.015710
5.328,61.6000,-0.013293
5.344,61.6000,-0.013293
5.359,61.6000,-0.013293
5.375,61.6000,-0.016918
5.392,61.6000,-0.018127
5.408,61.6000,-0.018127
5.423,61.6000,-0.018127
5.440,61.6000,-0.015710
5.455,61.6000,-0.021752
5.471,61.6000,-0.018127
5.487,61.6000,-0.018127
5.504,61.6000,-0.018127
5.519,61.6000,-0.010876
5.538,61.6000,-0.014501
5.562,61.6000,-0.020544
5.577,61.6000,-0.018127
5.593,61.6000,-0.012084
5.609,61.6000,-0.015710
5.626,61.6000,-0.020544
5.642,61.6000,-0.014501
5.658,61.6000,-0.014501
5.673,61.6000,-0.015710
5.691,61.6000,-0.021752
5.705,61.6000,-0.021752
5.722,61.6000,-0.021752
5.737,61.6000,-0.016918
5.754,61.6000,-0.016918
5.770,61.6000,-0.015710
5.787,61.6000,-0.015710
5.802,61.6000,-0.018127
5.817,61.6000,-0.016918
5.833,61.6000,-0.016918
5.849,61.6000,-0.016918
5.865,61.6000,-0.016918
5.881,61.6000,-0.018127
5.904,61.6000,-0.020544
5.927,61.6000,-0.016918
5.946,61.6000,-0.018127
5.961,61.6000,-0.019335
5.977,61.6000,-0.014501
5.994,61.6000,-0.016918
6.010,61.6000,-0.010876
6.025,61.6000,-0.019335
6.041,61.6000,-0.019335
6.057,61.6000,-0.018127
6.073,61.6000,-0.016918
6.089,61.6000,-0.019335
6.105,61.6000,-0.019335
6.121,61.6000,-0.015710
6.137,61.6000,-0.015710
6.153,61.6000,-0.015710
6.169,61.6000,-0.016918
6.185,61.6000,-0.016918
6.201,61.6000,-0.013293
6.219,61.6000,-0.019335
6.233,61.6000,-0.019335
6.249,61.6000,-0.016918
6.265,61.6000,-0.016918
6.281,61.6000,-0.019335
6.297,61.6000,-0.018127
6.313,61.6000,-0.015710
6.329,61.6000,-0.018127
6.345,61.6000,-0.012084
6.361,61.6000,-0.012084
6.377,61.6000,-0.010876
6.394,61.6000,-0.019335
6.409,61.6000,-0.020544
6.425,61.6000,-0.015710
6.442,61.6000,-0.019335
6.457,61.6000,-0.018127
6.473,61.6000,-0.018127
6.492,61.6000,-0.018127
6.505,61.6000,-0.018127
6.521,61.6000,-0.021752
6.537,61.6000,-0.022961
6.554,61.6000,-0.022961
6.569,61.6000,-0.016918
6.585,61.6000,-0.016918
6.601,61.6000,-0.018127
6.617,61.6000,-0.026586
6.633,61.6000,-0.026586
6.649,61.6000,-0.016918
6.677,61.6000,-0.019335
6.693,61.6000,-0.009668
6.709,61.6000,-0.024169
6.725,61.6000,-0.024169
6.741,61.6000,-0.022961
6.757,61.6000,-0.020544
6.776,61.6000,-0.020544
6.789,61.6000,-0.013293
6.806,61.6000,-0.013293
6.821,61.6000,-0.015710
6.838,61.6000,-0.020544
6.853,61.6000,-0.020544
6.869,61.6000,-0.015710
6.885,61.6000,-0.019335
6.901,61.6000,-0.022961
6.917,61.6000,-0.018127
6.933,61.6000,-0.019335
6.949,61.6000,-0.015710
6.965,61.6000,-0.022961
6.981,61.6000,-0.016918
6.997,61.6000,-0.025377
7.013,61.6000,-0.016918
7.028,61.6000,-0.016918
7.045,61.6000,-0.016918
7.061,61.6000,-0.018127
7.077,61.6000,-0.022961
7.093,61.6000,-0.022961
7.109,61.6000,-0.024169
7.125,61.6000,-0.015710
7.141,61.6000,-0.018127
7.156,61.6000,-0.013293
7.173,61.6000,-0.018127
7.188,61.6000,-0.018127
7.205,61.6000,-0.020544
7.233,61.6000,-0.020544
7.249,61.6000,-0.016918
7.266,61.6000,-0.015710
7.281,61.6000,-0.019335
7.299,61.6000,-0.015710
7.314,61.6000,-0.016918
7.330,61.6000,-0.016918
7.345,61.6000,-0.016918
7.362,61.6000,-0.013293
7.377,61.6000,-0.012084
7.394,61.6000,-0.016918
7.410,61.6000,-0.021752
7.425,61.6000,-0.021752
7.442,61.6000,-0.018127
7.457,61.6000,-0.016918
7.473,61.6000,-0.019335
7.490,61.6000,-0.016918
7.506,61.6000,-0.015710
7.521,61.6000,-0.013293
7.538,61.6000,-0.015710
7.554,61.6000,-0.025377
7.570,61.6000,-0.019335
7.585,61.6000,-0.013293
7.601,61.6000,-0.016918
7.618,61.6000,-0.021752
7.633,61.6000,-0.019335
7.650,61.6000,-0.020544
7.666,61.6000,-0.018127
7.682,61.6000,-0.020544
7.698,61.6000,-0.015710
7.714,61.6000,-0.015710
7.731,61.6000,-0.018127
7.746,61.6000,-0.014501
7.775,61.6000,-0.019335
7.791,61.6000,-0.016918
7.807,61.6000,-0.018127
7.823,61.6000,-0.015710
7.840,61.6000,-0.015710
7.855,61.6000,-0.018127
7.871,61.6000,-0.019335
7.888,61.6000,-0.016918
7.903,61.6000,-0.014501
7.919,61.6000,-0.015710
7.935,61.6000,-0.018127
7.951,61.6000,-0.021752
7.967,61.6000,-0.013293
7.983,61.6000,-0.018127
7.999,61.6000,-0.012084
8.017,61.6000,-0.012084
8.031,61.6000,-0.018127
8.046,61.6000,-0.020544
8.063,61.6000,-0.015710
8.079,61.6000,-0.015710
8.095,61.6000,-0.010876
8.111,61.6000,-0.016918
8.127,61.6000,-0.020544
8.143,61.6000,-0.013293
8.159,61.6000,-0.018127
8.177,61.6000,-0.021752
8.193,61.6000,-0.021752
8.207,61.6000,-0.013293
8.223,61.6000,-0.013293
8.239,61.6000,-0.016918
8.255,61.6000,-0.016918
8.271,61.6000,-0.015710
8.287,61.6000,-0.016918
8.311,61.6000,-0.018127
8.327,61.6000,-0.016918
8.343,61.6000,-0.015710
8.359,61.6000,-0.014501
8.375,61.6000,-0.014501
8.391,61.6000,-0.018127
8.407,61.6000,-0.013293
8.423,61.6000,-0.013293
8.439,61.6000,-0.015710
8.455,61.6000,-0.015710
8.472,61.6000,-0.013293
8.486,61.6000,-0.018127
8.503,61.6000,-0.013293
8.519,61.6000,-0.015710
8.535,61.6000,-0.016918
8.552,61.6000,-0.015710
8.567,61.6000,-0.018127
8.583,61.6000,-0.024169
8.599,61.6000,-0.018127
8.615,61.6000,-0.014501
8.631,61.6000,-0.012084
8.647,61.6000,-0.014501
8.663,61.6000,-0.018127
8.679,61.6000,-0.014501
8.695,61.6000,-0.020544
8.711,61.6000,-0.018127
8.727,61.6000,-0.016918
8.743,61.6000,-0.015710
8.759,61.6000,-0.014501
8.775,61.6000,-0.010876
8.791,61.6000,-0.015710
8.808,61.6000,-0.018127
8.823,61.6000,-0.018127
8.842,61.6000,-0.013293
8.866,61.6000,-0.014501
8.881,61.6000,-0.019335
8.898,61.6000,-0.015710
8.913,61.6000,-0.019335
8.930,61.6000,-0.015710
8.946,61.6000,-0.015710
8.962,61.6000,-0.018127
8.977,61.6000,-0.016918
8.994,61.6000,-0.014501
9.009,61.6000,-0.009668
9.027,61.6000,-0.009668
9.041,61.6000,-0.019335
9.057,61.6000,-0.016918
9.074,61.6000,-0.016918
9.089,61.6000,-0.018127
9.106,61.6000,-0.016918
9.122,61.6000,-0.016918
9.137,61.6000,-0.020544
9.153,61.6000,-0.021752
9.171,61.6000,-0.018127
9.187,61.6000,-0.018127
9.201,61.6000,-0.021752
9.217,61.6000,-0.007251
9.234,61.6000,-0.006042
9.250,61.6000,-0.020544
9.265,61.6000,-0.019335
9.282,61.6000,-0.022961
9.298,61.6000,-0.015710
9.313,61.6000,-0.015710
9.330,61.6000,-0.010876
9.345,61.6000,-0.009668
9.361,61.6000,-0.010876
9.377,61.6000,-0.013293
9.393,61.6000,-0.016918
9.409,61.6000,-0.015710
9.425,61.6000,-0.015710
9.442,61.6000,-0.018127
9.457,61.6000,-0.016918
9.473,61.6000,-0.012084
9.489,61.6000,-0.012084
9.506,61.6000,-0.018127
9.522,61.6000,-0.016918
9.537,61.6000,-0.016918
9.553,61.6000,-0.014501
9.569,61.6000,-0.012084
9.586,61.6000,-0.014501
9.602,61.6000,-0.025377
9.618,61.6000,-0.020544
9.633,61.6000,-0.015710
9.649,61.6000,-0.009668
9.665,61.6000,-0.009668
9.682,61.6000,-0.013293
9.697,61.6000,-0.014501
9.715,61.6000,-0.018127
9.730,61.6000,-0.021752
9.745,61.6000,-0.014501
9.761,61.6000,-0.020544
9.778,61.6000,-0.010876
9.793,61.6000,-0.008459
9.809,61.6000,-0.015710
9.825,61.6000,-0.019335
9.842,61.6000,-0.015710
9.857,61.6000,-0.018127
9.876,61.6000,-0.018127
9.889,61.6000,-0.019335
9.905,61.6000,-0.019335
9.921,61.6000,-0.019335
9.938,61.6000,-0.016918
9.961,61.6000,-0.015710
9.977,61.6000,-0.019335
9.993,61.6000,-0.013293
10.009,61.6000,-0.010876
10.025,61.6000,-0.013293
10.042,61.6000,-0.013293
10.058,61.6000,-0.014501
10.073,61.6000,-0.021752
10.089,61.6000,-0.019335
10.105,61.6000,-0.018127
10.121,61.6000,-0.014501
10.137,61.6000,-0.016918
10.153,61.6000,-0.016918
10.169,61.6000,-0.020544
10.186,61.6000,-0.020544
10.202,61.6000,-0.014501
10.217,61.6000,-0.014501
10.233,61.6000,-0.015710
10.251,61.6000,-0.010876
10.265,61.6000,-0.014501
10.281,61.6000,-0.013293
10.297,61.6000,-0.013293
10.313,61.6000,-0.015710
10.329,61.6000,-0.021752
10.345,61.6000,-0.021752
10.361,61.6000,-0.012084
10.377,61.6000,-0.013293
10.393,61.6000,-0.015710
10.409,61.6000,-0.018127
10.425,61.6000,-0.018127
10.444,61.6000,-0.016918
10.457,61.6000,-0.016918
10.473,61.6000,-0.018127
10.489,61.6000,-0.009668
10.512,61.6000,-0.018127
10.528,61.6000,-0.018127
10.544,61.6000,-0.016918
10.562,61.6000,-0.016918
10.576,61.6000,-0.016918
10.592,61.6000,-0.018127
10.609,61.6000,-0.014501
10.624,61.6000,-0.014501
10.640,61.6000,-0.019335
10.657,61.6000,-0.022961
10.673,61.6000,-0.018127
10.688,61.6000,-0.014501
10.704,61.6000,-0.013293
10.720,61.6000,-0.014501
10.736,61.6000,-0.014501
10.752,61.6000,-0.013293
10.768,61.6000,-0.013293
10.785,61.6000,-0.013293
10.800,61.6000,-0.014501
10.816,61.6000,-0.015710
10.833,61.6000,-0.015710
10.848,61.6000,-0.018127
10.868,61.6000,-0.016918
10.880,61.6000,-0.016918
10.896,61.6000,-0.016918
10.912,61.6000,-0.024169
10.927,61.6000,-0.010876
10.944,61.6000,-0.014501
10.960,61.6000,-0.014501
10.976,61.6000,-0.015710
10.991,61.6000,-0.010876
11.009,61.6000,-0.013293
11.024,61.6000,-0.015710
11.042,61.6000,-0.018127
11.056,61.6000,-0.012084
11.082,61.6000,-0.019335
11.097,61.6000,-0.018127
11.112,61.6000,-0.019335
11.129,61.6000,-0.012084
11.145,61.6000,-0.010876
11.161,61.6000,-0.018127
11.180,61.6000,-0.016918
11.193,61.5806,-0.015710
11.210,61.5103,0.035045
11.225,61.4442,-0.016918
11.241,61.3765,0.006042
11.256,61.3083,0.008459
11.273,61.2383,0.022961
11.288,61.1718,0.024169
11.305,61.1001,0.021752
11.320,61.0337,0.026586
11.337,60.9638,0.039879
11.352,60.8977,0.043504
11.369,60.8239,0.059214
11.385,60.7566,0.062839
11.400,60.6910,0.073715
11.417,60.6181,0.080966
11.436,60.5404,0.087008
11.448,60.4851,0.093050
11.465,60.4160,0.093050
11.480,60.3478,0.097884
11.496,60.2800,0.107552
11.513,60.2097,0.111177
11.528,60.1411,0.119636
11.545,60.0716,0.120845
11.562,59.9994,0.120845
11.577,59.9330,0.119636
11.592,59.8661,0.128095
11.614,59.7726,0.128095
11.631,59.7053,0.128095
11.646,59.6370,0.118428
11.662,59.5688,0.118428
11.680,59.4924,0.083383
11.695,59.4268,0.033837
11.712,59.3530,0.033837
11.726,59.2947,0.014501
11.743,59.2239,0.009668
11.758,59.1571,0.002417
11.774,59.0889,0.002417
11.790,59.0198,0.004834
11.806,58.9486,-0.001208
11.822,58.8807,0.010876
11.838,58.8143,0.006042
11.855,58.7387,0.006042
11.871,58.6745,0.007251
11.886,58.6080,0.000000
11.902,58.5398,0.002417
11.919,58.4690,0.001208
11.934,58.4016,0.001208
11.951,58.3313,0.001208
11.971,58.2446,-0.001208
11.987,58.1708,-0.001208
11.998,58.1284,0.002417
12.014,58.0588,0.003625
12.030,57.9911,0.006042
12.046,57.9212,0.002417
12.063,57.8505,0.002417
12.078,57.7856,-0.001208
12.094,57.7149,-0.001208
12.110,57.6480,-0.001208
12.127,57.5724,-0.002417
12.152,57.4686,-0.001208
12.171,57.3837,0.008459
12.183,57.3331,0.003625
12.199,57.2645,0.002417
12.215,57.1980,0.002417
12.231,57.1277,0.002417
12.247,57.0603,0.000000
12.263,56.9921,0.000000
12.279,56.9225,0.002417
12.295,56.8543,-0.002417
12.312,56.7831,0.000000
12.328,56.7141,-0.001208
12.344,56.6446,-0.003625
12.359,56.5802,0.002417
12.375,56.5104,0.002417
12.391,56.4422,0.002417
12.407,56.3740,0.002417
12.423,56.3061,-0.001208
12.439,56.2371,-0.003625
12.455,56.1689,-0.003625
12.471,56.1003,0.001208
12.487,56.0303,0.000000
12.503,55.9617,0.006042
12.519,55.8905,0.004834
12.535,55.8258,0.003625
12.551,55.7562,-0.003625
12.568,55.6847,0.002417
12.583,55.6198,0.006042
12.599,55.5530,0.008459
12.615,55.5500,-0.059214
12.631,55.5500,0.002417
12.647,55.5500,0.003625
12.662,55.5500,0.006042
12.679,55.5500,0.000000
12.695,55.5500,-0.002417
12.711,55.5500,0.002417
12.727,55.5500,0.009668
12.743,55.5911,0.002417
12.759,55.6568,-0.048338
12.776,55.7302,-0.001208
12.792,55.8010,-0.006042
12.807,55.8640,0.003625
12.823,55.9317,0.003625
12.839,56.0004,-0.001208
12.855,56.0699,-0.001208
12.871,56.1372,0.001208
12.887,56.2058,-0.001208
12.906,56.2899,-0.001208
12.919,56.3445,-0.003625
12.935,56.4127,0.001208
12.951,56.4800,0.002417
12.967,56.5486,-0.002417
12.983,56.6198,-0.004834
12.999,56.6871,-0.002417
13.015,56.7592,0.000000
13.030,56.8232,-0.002417
13.048,56.8977,-0.006042
13.063,56.9604,0.001208
13.079,57.0321,-0.007251
13.095,57.0989,-0.007251
13.111,57.1702,0.004834
13.127,57.2409,0.004834
13.142,57.3040,-0.002417
13.158,57.3731,0.002417
13.175,57.4443,0.001208
13.191,57.5099,0.001208
13.207,57.5794,-0.002417
13.223,57.6476,0.001208
13.245,57.7411,0.001208
13.261,57.8123,0.001208
13.277,57.8805,-0.002417
13.292,57.9461,-0.003625
13.309,58.0199,-0.001208
13.325,58.0848,-0.002417
13.343,58.1687,-0.007251
13.357,58.2207,-0.001208
13.377,58.3107,-0.001208
13.388,58.3589,-0.001208
13.404,58.4266,-0.001208
13.420,58.4948,-0.004834
13.436,58.5651,-0.009668
13.453,58.6342,-0.008459
13.468,58.7007,-0.001208
13.485,58.7710,-0.003625
13.501,58.8406,0.000000
13.517,58.9100,-0.003625
13.533,58.9786,-0.006042
13.548,59.0468,0.003625
13.564,59.1129,0.000000
13.580,59.1815,-0.001208
13.596,59.2493,-0.004834
13.614,59.3256,-0.002417
13.629,59.3896,-0.006042
13.644,59.4582,-0.008459
13.660,59.5238,-0.012084
13.676,59.5934,-0.004834
13.692,59.6607,-0.006042
13.709,59.7337,0.000000
13.724,59.7993,-0.004834
13.740,59.8687,-0.009668
13.755,59.9352,-0.009668
13.785,60.0579,-0.009668
13.800,60.1248,-0.003625
13.816,60.1930,-0.001208
13.832,60.2613,-0.003625
13.849,60.3342,-0.015710
13.864,60.3989,-0.015710
13.882,60.4771,-0.012084
13.896,60.5362,-0.006042
13.914,60.6130,-0.006042
13.929,60.6782,-0.009668
13.944,60.7433,-0.009668
13.960,60.8098,-0.015710
13.977,60.8820,-0.024169
13.992,60.9480,-0.026586
14.008,61.0188,-0.020544
14.024,61.0849,-0.020544
14.041,61.1569,-0.016918
14.056,61.2221,-0.021752
14.072,61.2916,-0.031420
14.088,61.3606,-0.031420
14.105,61.4293,-0.036253
14.120,61.4966,-0.037462
14.136,61.5500,-0.007251
14.152,61.5500,-0.013293
14.168,61.5500,-0.036253
14.184,61.5500,-0.041087
14.200,61.5500,-0.045921
14.216,61.5500,-0.045921
14.233,61.5500,-0.048338
14.248,61.5500,-0.041087
14.264,61.5500,-0.041087
14.280,61.5500,-0.029003
14.297,61.5500,-0.037462
14.312,61.5500,-0.036253
14.338,61.5500,-0.037462
14.354,61.5500,-0.035045
14.370,61.5500,-0.035045
14.386,61.5500,-0.032628
14.402,61.5500,-0.032628
14.418,61.5500,-0.031420
14.434,61.5500,-0.031420
14.450,61.5500,-0.033837
14.466,61.5500,-0.033837
14.482,61.5500,-0.033837
14.498,61.5500,-0.031420
14.514,61.5500,-0.031420
14.530,61.5500,-0.029003
14.549,61.5500,-0.027794
14.562,61.5500,-0.029003
14.578,61.5500,-0.029003
14.594,61.5500,-0.029003
14.610,61.5500,-0.029003
14.626,61.5500,-0.021752
14.642,61.5500,-0.029003
14.657,61.5500,-0.025377
14.674,61.5500,-0.025377
14.690,61.5500,-0.025377
14.706,61.5500,-0.029003
14.722,61.5500,-0.032628
14.738,61.5500,-0.029003
14.754,61.5500,-0.024169
14.770,61.5500,-0.025377
14.786,61.5500,-0.021752
14.804,61.5500,-0.021752
14.818,61.5500,-0.025377
14.834,61.5500,-0.030211
14.850,61.5500,-0.024169
14.873,61.5500,-0.024169
14.889,61.5500,-0.019335
14.905,61.5500,-0.025377
14.921,61.5500,-0.027794
14.937,61.5500,-0.026586
14.953,61.5500,-0.025377
14.969,61.5500,-0.026586
14.985,61.5500,-0.021752
15.001,61.5500,-0.024169
15.017,61.5500,-0.025377
15.033,61.5500,-0.026586
15.048,61.5500,-0.029003
15.064,61.5500,-0.027794
15.080,61.5500,-0.026586
15.098,61.5500,-0.026586
15.113,61.5500,-0.025377
15.129,61.5500,-0.025377
15.145,61.5500,-0.022961
15.160,61.5500,-0.022961
15.177,61.5500,-0.030211
15.193,61.5500,-0.024169
15.210,61.5500,-0.024169
15.224,61.5500,-0.024169
15.240,61.5500,-0.021752
15.256,61.5500,-0.024169
15.272,61.5500,-0.027794
15.290,61.5500,-0.027794
15.305,61.5500,-0.024169
15.321,61.5500,-0.022961
15.336,61.5500,-0.025377
15.354,61.5500,-0.018127
15.369,61.5500,-0.018127
15.384,61.5500,-0.026586
15.401,61.5500,-0.025377
15.416,61.5500,-0.030211
15.435,61.5500,-0.024169
15.448,61.5500,-0.019335
15.464,61.5500,-0.024169
15.481,61.5500,-0.021752
15.496,61.5500,-0.025377
15.513,61.5500,-0.021752
15.530,61.5500,-0.025377
15.544,61.5500,-0.021752
15.559,61.5500,-0.022961
15.576,61.5500,-0.021752
15.593,61.5500,-0.021752
15.608,61.5500,-0.024169
15.626,61.5500,-0.024169
15.640,61.5500,-0.019335
15.656,61.5500,-0.024169
15.672,61.5500,-0.024169
15.689,61.5500,-0.021752
15.708,61.5500,-0.020544
15.720,61.5500,-0.018127
15.736,61.5500,-0.025377
15.753,61.5500,-0.021752
15.768,61.5500,-0.024169
15.785,61.5500,-0.020544
15.801,61.5500,-0.021752
15.816,61.5500,-0.020544
15.833,61.5500,-0.020544
15.848,61.5500,-0.025377
15.864,61.5500,-0.025377
15.880,61.5500,-0.025377
15.898,61.5500,-0.022961
15.912,61.5500,-0.019335
15.928,61.5500,-0.016918
15.944,61.5500,-0.020544
15.967,61.5500,-0.024169
15.983,61.5500,-0.024169
15.999,61.5500,-0.022961
16.015,61.5500,-0.019335
16.032,61.5500,-0.020544
16.047,61.5500,-0.020544
16.064,61.5500,-0.022961
16.079,61.5500,-0.015710
16.096,61.5500,-0.014501
16.112,61.5500,-0.022961
16.127,61.5500,-0.024169
16.143,61.5500,-0.024169
16.160,61.5500,-0.015710
16.176,61.5500,-0.015710
16.192,61.5500,-0.022961
16.207,61.5500,-0.026586
16.223,61.5500,-0.026586
16.240,61.5500,-0.020544
16.256,61.5500,-0.020544
16.272,61.5500,-0.019335
16.287,61.5500,-0.020544
16.303,61.5500,-0.021752
16.319,61.5500,-0.021752
16.335,61.5500,-0.021752
16.351,61.5500,-0.025377
16.367,61.5500,-0.015710
16.383,61.5500,-0.015710
16.399,61.5500,-0.015710
16.415,61.5500,-0.015710
16.431,61.5500,-0.024169
16.447,61.5500,-0.022961
16.463,61.5500,-0.019335
16.479,61.5500,-0.015710
16.501,61.5500,-0.019335
16.517,61.5500,-0.019335
16.533,61.5500,-0.020544
16.549,61.5500,-0.022961
16.565,61.5500,-0.022961
16.581,61.5500,-0.019335
16.600,61.5500,-0.019335
16.613,61.5500,-0.016918
16.629,61.5500,-0.022961
16.646,61.5500,-0.018127
16.663,61.5500,-0.019335
16.677,61.5500,-0.020544
16.693,61.5500,-0.027794
16.709,61.5500,-0.020544
16.725,61.5500,-0.020544
16.741,61.5500,-0.018127
16.757,61.5500,-0.020544
16.773,61.5500,-0.025377
16.789,61.5500,-0.020544
16.805,61.5500,-0.016918
16.821,61.5500,-0.024169
16.837,61.5500,-0.020544
16.853,61.5500,-0.020544
16.870,61.5500,-0.020544
16.886,61.5500,-0.018127
16.901,61.5500,-0.024169
16.917,61.5500,-0.022961
16.934,61.5500,-0.022961
16.950,61.5500,-0.018127
16.965,61.5500,-0.020544
16.981,61.5500,-0.013293
16.997,61.5500,-0.019335
17.013,61.5500,-0.018127
17.029,61.5500,-0.022961
17.060,61.5500,-0.019335
17.076,61.5500,-0.019335
17.092,61.5500,-0.015710
17.108,61.5500,-0.022961
17.124,61.5500,-0.022961
17.140,61.5500,-0.021752
17.157,61.5500,-0.021752
17.172,61.5500,-0.013293
17.188,61.5500,-0.013293
17.204,61.5500,-0.022961
17.221,61.5500,-0.020544
17.235,61.5500,-0.020544
17.252,61.5500,-0.024169
17.268,61.5500,-0.021752
17.284,61.5500,-0.025377
17.300,61.5500,-0.024169
17.315,61.5500,-0.021752
17.332,61.5500,-0.018127
17.347,61.5500,-0.020544
17.365,61.5500,-0.019335
17.380,61.5500,-0.019335
17.396,61.5500,-0.018127
17.411,61.5500,-0.018127
17.428,61.5500,-0.024169
17.444,61.5500,-0.022961
17.459,61.5500,-0.019335
17.476,61.5500,-0.022961
17.492,61.5500,-0.024169
17.508,61.5500,-0.025377
17.525,61.5500,-0.016918
17.539,61.5500,-0.019335
17.556,61.5500,-0.019335
17.572,61.5500,-0.021752
17.591,61.5500,-0.020544
17.615,61.5500,-0.020544
17.631,61.5500,-0.020544
17.646,61.5500,-0.022961
17.662,61.5500,-0.021752
17.678,61.5500,-0.018127
17.694,61.5500,-0.018127
17.711,61.5500,-0.018127
17.726,61.5500,-0.025377
17.743,61.5500,-0.025377
17.758,61.5500,-0.019335
17.777,61.5500,-0.019335
17.790,61.5500,-0.021752
17.807,61.5500,-0.015710
17.822,61.5500,-0.015710
17.839,61.5500,-0.016918
17.854,61.5500,-0.024169
17.870,61.5500,-0.021752
17.886,61.5500,-0.019335
17.902,61.5500,-0.021752
17.927,61.5500,-0.020544
17.948,61.5500,-0.019335
17.966,61.5500,-0.019335
17.983,61.5500,-0.024169
17.998,61.5500,-0.015710
18.014,61.5500,-0.013293
18.030,61.5500,-0.024169
18.047,61.5500,-0.024169
18.063,61.5500,-0.019335
18.078,61.5500,-0.018127
18.095,61.5500,-0.018127
18.111,61.5500,-0.019335
18.127,61.5500,-0.019335
18.143,61.5500,-0.016918
18.172,61.5500,-0.016918
18.188,61.5500,-0.014501
18.204,61.5500,-0.014501
18.220,61.5500,-0.015710
18.237,61.5500,-0.015710
18.252,61.5500,-0.015710
18.269,61.5500,-0.021752
18.284,61.5500,-0.020544
18.301,61.5500,-0.016918
18.316,61.5500,-0.020544
18.335,61.5500,-0.020544
18.349,61.5500,-0.022961
18.365,61.5500,-0.019335
18.380,61.5500,-0.020544
18.397,61.5500,-0.019335
18.415,61.5500,-0.019335
18.428,61.5500,-0.013293
18.444,61.5500,-0.018127
18.460,61.5500,-0.018127
18.476,61.5500,-0.015710
18.492,61.5500,-0.016918
18.509,61.5500,-0.013293
18.524,61.5500,-0.018127
18.545,61.5500,-0.021752
18.559,61.5500,-0.014501
18.572,61.5500,-0.018127
18.588,61.5500,-0.019335
18.604,61.5500,-0.015710
18.620,61.5500,-0.016918
18.636,61.5500,-0.024169
18.652,61.5500,-0.026586
18.669,61.5500,-0.018127
18.684,61.5500,-0.018127
18.700,61.5500,-0.010876
18.730,61.5500,-0.016918
18.746,61.5500,-0.013293
18.762,61.5500,-0.015710
18.778,61.5500,-0.018127
18.794,61.5500,-0.018127
18.811,61.5500,-0.015710
18.828,61.5500,-0.022961
18.842,61.5500,-0.019335
18.858,61.5500,-0.016918
18.874,61.5500,-0.016918
18.890,61.5500,-0.021752
18.910,61.5500,-0.021752
18.922,61.5500,-0.018127
18.938,61.5500,-0.016918
18.954,61.5500,-0.024169
18.970,61.5500,-0.026586
18.986,61.5500,-0.022961
19.002,61.5500,-0.019335
19.018,61.5500,-0.015710
19.034,61.5500,-0.020544
19.050,61.5500,-0.020544
19.066,61.5500,-0.018127
19.082,61.5500,-0.025377
19.102,61.5500,-0.025377
19.114,61.5500,-0.018127
19.130,61.5500,-0.019335
19.146,61.5500,-0.018127
19.162,61.5500,-0.016918
19.178,61.5500,-0.015710
19.194,61.5500,-0.014501
19.210,61.5500,-0.018127
19.226,61.5500,-0.020544
19.242,61.5500,-0.021752
19.261,61.5500,-0.022961
19.285,61.5500,-0.013293
19.301,61.5500,-0.016918
19.317,61.5500,-0.024169
19.333,61.5500,-0.021752
19.349,61.5500,-0.020544
19.365,61.5500,-0.018127
19.383,61.5500,-0.012084
19.397,61.5500,-0.015710
19.413,61.5500,-0.018127
19.428,61.5500,-0.018127
19.445,61.5500,-0.022961
19.461,61.5500,-0.014501
19.477,61.5500,-0.021752
19.492,61.5500,-0.018127
19.508,61.5500,-0.015710
19.530,61.5500,-0.015710
19.541,61.5500,-0.019335
19.557,61.5500,-0.018127
19.573,61.5500,-0.024169
19.588,61.5500,-0.016918
19.604,61.5500,-0.021752
19.620,61.5500,-0.018127
19.637,61.5500,-0.015710
19.653,61.5500,-0.015710
19.669,61.5500,-0.014501
19.685,61.5500,-0.019335
19.701,61.5500,-0.019335
19.717,61.5500,-0.020544
19.732,61.5500,-0.019335
19.749,61.5500,-0.022961
19.764,61.5500,-0.019335
19.781,61.5500,-0.015710
19.796,61.5500,-0.026586
19.816,61.5500,-0.018127
19.839,61.5500,-0.015710
19.855,61.5500,-0.015710
19.871,61.5500,-0.020544
19.887,61.5500,-0.019335
19.904,61.5500,-0.019335
19.919,61.5500,-0.021752
19.936,61.5500,-0.016918
19.951,61.5500,-0.018127
19.967,61.5500,-0.018127
19.984,61.5500,-0.022961
20.002,61.5500,-0.010876
20.015,61.5500,-0.012084
20.032,61.5500,-0.015710
20.048,61.5500,-0.013293
20.064,61.5500,-0.013293
20.079,61.5500,-0.024169
20.095,61.5500,-0.016918
20.111,61.5500,-0.018127
20.127,61.5500,-0.021752
20.144,61.5500,-0.019335
20.159,61.5500,-0.020544
20.176,61.5500,-0.021752
20.191,61.5500,-0.015710
20.210,61.5500,-0.013293
20.223,61.5500,-0.016918
20.239,61.5500,-0.021752
20.255,61.5500,-0.018127
20.273,61.5500,-0.018127
20.289,61.5500,-0.022961
20.303,61.5500,-0.019335
20.319,61.5500,-0.012084
20.335,61.5500,-0.016918
20.352,61.5500,-0.019335
20.367,61.5500,-0.021752
20.397,61.5500,-0.012084
20.413,61.5500,-0.013293
20.429,61.5500,-0.022961
20.445,61.5500,-0.022961
20.462,61.5500,-0.013293
20.478,61.5500,-0.013293
20.493,61.5500,-0.013293
20.509,61.5500,-0.020544
20.526,61.5500,-0.013293
20.541,61.5500,-0.016918
20.559,61.5500,-0.018127
20.573,61.5500,-0.018127
20.590,61.5500,-0.024169
20.605,61.5500,-0.015710
20.621,61.5500,-0.016918
20.637,61.5500,-0.019335
20.653,61.5500,-0.015710
20.669,61.5500,-0.015710
20.685,61.5500,-0.015710
20.703,61.5500,-0.016918
20.717,61.5500,-0.019335
20.733,61.5500,-0.015710
20.750,61.5500,-0.019335
20.766,61.5500,-0.021752
20.781,61.5500,-0.013293
20.797,61.5500,-0.009668
20.813,61.5500,-0.015710
20.829,61.5500,-0.020544
20.845,61.5500,-0.021752
20.861,61.5500,-0.018127
20.877,61.5500,-0.016918
20.893,61.5500,-0.016918
20.909,61.5500,-0.018127
20.925,61.5500,-0.019335
20.955,61.5500,-0.021752
20.971,61.5500,-0.018127
20.987,61.5500,-0.016918
21.003,61.5500,-0.015710
21.019,61.5500,-0.016918
21.035,61.5500,-0.016918
21.054,61.5500,-0.020544
21.067,61.5500,-0.015710
21.090,61.5500,-0.015710
21.102,61.5500,-0.013293
21.115,61.5500,-0.013293
21.131,61.5500,-0.015710
21.147,61.5500,-0.015710
21.163,61.5500,-0.015710
21.179,61.5500,-0.016918
21.195,61.5500,-0.015710
21.211,61.5500,-0.015710
21.227,61.5500,-0.015710
21.243,61.5500,-0.021752
21.259,61.5500,-0.014501
21.275,61.5500,-0.014501
21.291,61.5500,-0.019335
21.307,61.5500,-0.016918
21.323,61.5500,-0.018127
21.339,61.5500,-0.019335
21.355,61.5500,-0.015710
21.372,61.5500,-0.015710
21.387,61.5500,-0.016918
21.403,61.5500,-0.016918
21.419,61.5500,-0.018127
21.435,61.5500,-0.018127
21.450,61.5500,-0.016918
21.468,61.5500,-0.016918
21.492,61.5500,-0.010876
21.508,61.5500,-0.016918
21.524,61.5500,-0.018127
21.539,61.5500,-0.018127
21.555,61.5500,-0.018127
21.571,61.5500,-0.020544
21.588,61.5500,-0.015710
21.604,61.5500,-0.015710
21.620,61.5500,-0.020544
21.635,61.5500,-0.016918
21.652,61.5500,-0.016918
21.668,61.5500,-0.015710
21.684,61.5500,-0.015710
21.699,61.5500,-0.009668
21.719,61.5500,-0.013293
21.731,61.5500,-0.019335
21.747,61.5500,-0.014501
21.763,61.5500,-0.014501
21.780,61.5500,-0.022961
21.796,61.5500,-0.022961
21.814,61.5500,-0.014501
21.828,61.5500,-0.016918
21.843,61.5500,-0.019335
21.860,61.5500,-0.021752
21.876,61.5500,-0.012084
21.892,61.5500,-0.018127
21.908,61.5500,-0.018127
21.924,61.5500,-0.018127
21.940,61.5500,-0.015710
21.955,61.5500,-0.015710
21.971,61.5500,-0.015710
21.990,61.5500,-0.016918
22.003,61.5500,-0.021752
22.019,61.5500,-0.018127
22.035,61.5500,-0.010876
22.059,61.5500,-0.015710
22.075,61.5500,-0.019335
22.091,61.5500,-0.016918
22.106,61.5500,-0.021752
22.123,61.5500,-0.013293
22.138,61.5500,-0.022961
22.154,61.5500,-0.016918
22.170,61.5500,-0.008459
22.187,61.5500,-0.012084
22.202,61.5500,-0.014501
22.218,61.5500,-0.009668
22.235,61.5500,-0.015710
22.251,61.5500,-0.012084
22.266,61.5500,-0.022961
22.283,61.5500,-0.022961
22.298,61.5500,-0.014501
22.315,61.5500,-0.015710
22.331,61.5500,-0.015710
22.350,61.5500,-0.018127
22.362,61.5500,-0.014501
22.378,61.5500,-0.022961
22.395,61.5500,-0.014501
22.410,61.5500,-0.010876
22.426,61.5500,-0.015710
22.442,61.5500,-0.022961
22.458,61.5500,-0.024169
22.474,61.5500,-0.024169
22.491,61.5500,-0.016918
22.506,61.5500,-0.016918
22.522,61.5500,-0.021752
22.538,61.5500,-0.016918
22.554,61.5500,-0.019335
22.570,61.5500,-0.014501
22.586,61.5500,-0.019335
22.602,61.5500,-0.013293
22.625,61.5500,-0.013293
22.642,61.5500,-0.022961
22.657,61.5500,-0.014501
22.673,61.5500,-0.014501
22.689,61.5500,-0.018127
22.705,61.5500,-0.018127
22.722,61.5500,-0.018127
22.737,61.5500,-0.016918
22.753,61.5500,-0.015710
22.769,61.5500,-0.015710
22.785,61.5500,-0.014501
22.801,61.5500,-0.015710
22.817,61.5500,-0.013293
22.833,61.5500,-0.012084
22.849,61.5500,-0.014501
22.865,61.5500,-0.009668
22.881,61.5500,-0.018127
22.897,61.5500,-0.024169
22.913,61.5500,-0.020544
22.930,61.5500,-0.019335
22.945,61.5500,-0.013293
22.962,61.5500,-0.013293
22.977,61.5500,-0.016918
22.994,61.5500,-0.016918
23.009,61.5500,-0.021752
23.025,61.5500,-0.020544
23.041,61.5500,-0.013293
23.058,61.5500,-0.012084
23.073,61.5500,-0.012084
23.092,61.5500,-0.015710
23.105,61.5500,-0.016918
23.121,61.5500,-0.013293
23.137,61.5500,-0.019335
23.153,61.5500,-0.016918
23.177,61.5500,-0.013293
23.193,61.5500,-0.018127
23.209,61.5500,-0.019335
23.225,61.5500,-0.019335
23.241,61.5500,-0.015710
23.258,61.5500,-0.020544
23.273,61.5500,-0.013293
23.289,61.5500,-0.012084
23.305,61.5500,-0.012084
23.321,61.5500,-0.015710
23.337,61.5500,-0.014501
23.353,61.5500,-0.014501
23.369,61.5500,-0.014501
23.385,61.5500,-0.014501
23.401,61.5500,-0.012084
23.417,61.5500,-0.021752
23.433,61.5500,-0.020544
23.449,61.5500,-0.014501
23.465,61.5500,-0.014501
23.481,61.5500,-0.016918
23.497,61.5500,-0.014501
23.513,61.5500,-0.014501
23.529,61.5500,-0.018127
23.546,61.5500,-0.018127
23.562,61.5500,-0.016918
23.577,61.5500,-0.018127
23.593,61.5500,-0.018127
23.611,61.5500,-0.015710
23.626,61.5500,-0.014501
23.641,61.5500,-0.012084
23.657,61.5500,-0.014501
23.673,61.5500,-0.016918
23.689,61.5500,-0.014501
23.705,61.5500,-0.012084
23.735,61.5500,-0.012084
23.750,61.5500,-0.020544
23.767,61.5500,-0.015710
23.782,61.5500,-0.016918
23.799,61.5500,-0.014501
23.815,61.5500,-0.012084
23.833,61.5500,-0.012084
23.847,61.5500,-0.014501
23.863,61.5500,-0.013293
23.878,61.5500,-0.014501
23.897,61.5500,-0.015710
23.911,61.5500,-0.019335
23.927,61.5500,-0.019335
23.943,61.5500,-0.019335
23.958,61.5500,-0.013293
23.977,61.5500,-0.013293
23.990,61.5500,-0.014501
24.006,61.5500,-0.016918
24.022,61.5500,-0.019335
24.044,61.5500,-0.018127
24.056,61.5500,-0.014501
24.071,61.5500,-0.013293
24.086,61.5500,-0.018127
24.103,61.5500,-0.018127
24.119,61.5500,-0.014501
24.134,61.5500,-0.015710
24.151,61.5500,-0.019335
24.167,61.5500,-0.015710
24.184,61.5500,-0.014501
24.199,61.5500,-0.014501
24.214,61.5500,-0.014501
24.231,61.5500,-0.021752
24.247,61.5500,-0.015710
24.265,61.5500,-0.020544
24.288,61.5500,-0.018127
24.304,61.5500,-0.021752
24.320,61.5500,-0.012084
24.336,61.5500,-0.015710
24.353,61.5500,-0.015710
24.368,61.5500,-0.019335
24.387,61.5500,-0.019335
24.401,61.5500,-0.020544
24.416,61.5500,-0.018127
24.432,61.5500,-0.014501
24.448,61.5500,-0.013293
24.464,61.5500,-0.018127
24.480,61.5500,-0.016918
24.496,61.5500,-0.012084
24.512,61.5500,-0.014501
24.528,61.5500,-0.010876
24.544,61.5500,-0.013293
24.560,61.5500,-0.015710
24.576,61.5500,-0.020544
24.593,61.5500,-0.020544
24.609,61.5500,-0.019335
24.624,61.5500,-0.016918
24.640,61.5500,-0.015710
24.657,61.5500,-0.014501
24.672,61.5500,-0.009668
24.688,61.5500,-0.013293
24.704,61.5500,-0.013293
24.721,61.5500,-0.018127
24.737,61.5500,-0.018127
24.753,61.5500,-0.018127
24.768,61.5500,-0.016918
24.785,61.5500,-0.012084
24.800,61.5500,-0.013293
24.816,61.5500,-0.020544
24.847,61.5500,-0.020544
24.863,61.5500,-0.016918
24.879,61.5500,-0.010876
24.895,61.5500,-0.010876
24.911,61.5500,-0.018127
24.928,61.5500,-0.016918
24.947,61.5500,-0.016918
24.959,61.5500,-0.020544
24.976,61.5500,-0.020544
24.992,61.5500,-0.016918
25.008,61.5500,-0.015710
25.023,61.5500,-0.013293
25.040,61.5500,-0.010876
25.055,61.5500,-0.012084
25.071,61.5500,-0.019335
25.088,61.5500,-0.015710
25.105,61.5500,-0.019335
25.119,61.5500,-0.015710
25.135,61.5500,-0.013293
25.152,61.5500,-0.014501
25.168,61.5500,-0.016918
25.183,61.5500,-0.018127
25.199,61.5500,-0.016918
25.216,61.5500,-0.016918
25.232,61.5500,-0.016918
25.247,61.5500,-0.016918
25.263,61.5500,-0.015710
25.279,61.5500,-0.022961
25.295,61.5500,-0.016918
25.311,61.5500,-0.012084
25.327,61.5500,-0.015710
25.344,61.5500,-0.015710
25.359,61.5500,-0.016918
25.375,61.5500,-0.014501
25.405,61.5500,-0.014501
25.420,61.5500,-0.015710
25.436,61.5500,-0.018127
25.452,61.5500,-0.012084
25.468,61.5500,-0.009668
25.484,61.5500,-0.013293
25.501,61.5500,-0.015710
25.516,61.5500,-0.015710
25.532,61.5500,-0.012084
25.548,61.5500,-0.019335
25.564,61.5500,-0.010876
25.580,61.5500,-0.010876
25.596,61.5500,-0.010876
25.613,61.5500,-0.018127
25.631,61.5500,-0.013293
25.645,61.5500,-0.018127
25.660,61.5500,-0.019335
25.676,61.5500,-0.010876
25.693,61.5500,-0.016918
25.708,61.5500,-0.020544
25.724,61.5500,-0.020544
25.740,61.5500,-0.013293
25.756,61.5500,-0.016918
25.772,61.5500,-0.018127
25.788,61.5500,-0.019335
25.804,61.5500,-0.009668
25.820,61.5500,-0.013293
25.836,61.5500,-0.021752
25.856,61.5500,-0.021752
25.867,61.5500,-0.015710
25.884,61.5500,-0.014501
25.900,61.5500,-0.012084
25.917,61.5500,-0.012084
25.939,61.5500,-0.019335
25.956,61.5500,-0.019335
25.972,61.5500,-0.020544
25.988,61.5500,-0.016918
26.004,61.5500,-0.019335
26.020,61.5500,-0.014501
26.036,61.5500,-0.018127
26.053,61.5500,-0.018127
26.068,61.5500,-0.014501
26.084,61.5500,-0.014501
26.100,61.5500,-0.015710
26.116,61.5500,-0.015710
26.132,61.5500,-0.019335
26.148,61.5500,-0.018127
26.164,61.5500,-0.018127
26.180,61.5500,-0.016918
26.196,61.5500,-0.016918
26.211,61.5500,-0.014501
26.229,61.5500,-0.015710
26.244,61.5500,-0.016918
26.260,61.5500,-0.013293
26.275,61.5500,-0.009668
26.298,61.5500,-0.009668
26.310,61.5500,-0.015710
26.323,61.5500,-0.013293
26.343,61.5500,-0.015710
26.355,61.5500,-0.015710
26.371,61.5500,-0.013293
26.387,61.5500,-0.019335
26.404,61.5500,-0.012084
26.420,61.5500,-0.014501
26.435,61.5500,-0.015710
26.451,61.5500,-0.013293
26.479,61.5500,-0.009668
26.495,61.5500,-0.024169
26.512,61.5500,-0.015710
26.527,61.5500,-0.015710
26.544,61.5500,-0.015710
26.560,61.5500,-0.019335
26.577,61.5500,-0.014501
26.591,61.5500,-0.018127
26.608,61.5500,-0.010876
26.626,61.5500,-0.012084
26.640,61.5500,-0.020544
26.656,61.5500,-0.020544
26.672,61.5500,-0.018127
26.687,61.5500,-0.016918
26.704,61.5500,-0.016918
26.720,61.5500,-0.015710
26.736,61.5500,-0.018127
26.751,61.5494,-0.015710
26.768,61.4877,0.037462
26.784,61.4217,-0.018127
26.800,61.3527,-0.009668
26.815,61.2883,0.009668
26.832,61.2166,0.020544
26.848,61.1480,0.018127
26.863,61.0824,0.029003
26.879,61.0137,0.036253
26.896,60.9434,0.045921
26.911,60.8774,0.048338
26.927,60.8075,0.059214
26.944,60.7349,0.060422
26.959,60.6707,0.066465
26.976,60.5990,0.070090
26.992,60.5311,0.089425
27.020,60.4090,0.093050
27.036,60.3394,0.105135
27.053,60.2691,0.105135
27.068,60.2038,0.103926
27.085,60.1326,0.103926
27.100,60.0658,0.118428
27.116,59.9937,0.122053
27.133,59.9234,0.122053
27.149,59.8561,0.126887
27.164,59.7908,0.126887
27.181,59.7179,0.128095
27.209,59.5969,0.116011
27.228,59.5159,0.103926
27.244,59.4459,0.103926
27.262,59.3700,0.071298
27.276,59.3116,0.014501
27.292,59.2400,0.014501
27.308,59.1713,0.008459
27.324,59.1045,0.004834
27.340,59.0366,0.002417
27.356,58.9684,0.002417
27.372,58.8990,0.003625
27.388,58.8295,0.007251
27.404,58.7601,0.002417
27.420,58.6927,0.006042
27.436,58.6249,0.004834
27.452,58.5537,0.006042
27.468,58.4881,0.007251
27.484,58.4194,0.007251
27.501,58.3473,0.004834
27.516,58.2796,-0.001208
27.532,58.2123,-0.002417
27.563,58.0784,-0.002417
27.578,58.0141,0.002417
27.594,57.9480,0.001208
27.610,57.8750,0.007251
27.626,57.8091,0.007251
27.643,57.7382,0.003625
27.661,57.6580,-0.003625
27.674,57.6053,-0.003625
27.690,57.5324,0.004834
27.706,57.4654,0.000000
27.724,57.3878,-0.001208
27.738,57.3295,0.000000
27.755,57.2565,-0.002417
27.770,57.1922,0.001208
27.786,57.1197,0.001208
27.802,57.0557,0.000000
27.818,56.9872,0.004834
27.834,56.9184,0.006042
27.850,56.8473,0.000000
27.867,56.7774,-0.004834
27.881,56.7131,-0.002417
27.900,56.6320,0.000000
27.915,56.5723,0.000000
27.930,56.5063,-0.002417
27.947,56.4351,0.004834
27.962,56.3694,0.003625
27.978,56.2996,0.001208
27.994,56.2326,0.003625
28.010,56.1649,0.001208
28.026,56.0953,0.002417
28.042,56.0262,0.000000
28.058,55.9589,0.003625
28.088,55.8298,0.001208
28.105,55.7577,-0.001208
28.121,55.6865,0.002417
28.136,55.6227,-0.001208
28.153,55.5489,0.004834
28.168,55.4999,0.003625
28.183,55.4999,-0.041087
28.199,55.4999,0.004834
28.215,55.4999,-0.002417
28.232,55.4999,-0.008459
28.250,55.4999,0.003625
28.264,55.4999,0.003625
28.283,55.4999,0.004834
28.296,55.4999,0.000000
28.312,55.4999,-0.002417
28.328,55.4999,-0.006042
28.343,55.4999,-0.006042
28.359,55.4999,-0.002417
28.376,55.4999,0.002417
28.392,55.4999,-0.004834
28.407,55.4999,0.003625
28.424,55.4999,0.003625
28.439,55.4999,0.002417
28.456,55.4999,-0.003625
28.472,55.4999,-0.002417
28.487,55.4999,-0.002417
28.503,55.4999,0.003625
28.520,55.4999,-0.001208
28.535,55.4999,0.002417
28.553,55.4999,0.007251
28.567,55.4999,-0.001208
28.583,55.4999,-0.001208
28.600,55.4999,-0.004834
28.616,55.4999,0.000000
28.641,55.4999,0.001208
28.657,55.4999,0.004834
28.673,55.4999,0.004834
28.689,55.4999,0.003625
28.706,55.4999,0.003625
28.721,55.4999,-0.001208
28.738,55.4999,0.003625
28.755,55.5368,-0.019335
28.769,55.5981,-0.001208
28.785,55.6672,-0.001208
28.801,55.7366,0.004834
28.817,55.8048,0.009668
28.833,55.8727,0.010876
28.849,55.9409,0.001208
28.866,56.0112,-0.002417
28.882,56.0803,-0.008459
28.898,56.1545,0.000000
28.913,56.2171,-0.003625
28.930,56.2865,0.001208
28.945,56.3523,0.004834
28.962,56.4268,0.004834
28.978,56.4929,-0.008459
28.994,56.5658,-0.004834
29.009,56.6267,0.001208
29.026,56.7009,0.007251
29.042,56.7679,0.009668
29.057,56.8331,0.006042
29.073,56.9005,-0.003625
29.093,56.9884,-0.004834
29.105,57.0394,-0.001208
29.121,57.1089,-0.001208
29.138,57.1796,-0.001208
29.162,57.2834,-0.003625
29.178,57.3525,-0.008459
29.194,57.4204,-0.006042
29.210,57.4895,0.002417
29.227,57.5593,0.002417
29.242,57.6271,-0.003625
29.258,57.6962,0.000000
29.274,57.7635,-0.004834
29.290,57.8342,-0.001208
29.307,57.9033,-0.002417
29.322,57.9694,-0.003625
29.338,58.0385,0.002417
29.354,58.1083,-0.008459
29.370,58.1748,-0.007251
29.386,58.2444,0.001208
29.402,58.3121,0.004834
29.420,58.3920,-0.004834
29.434,58.4490,-0.004834
29.450,58.5211,-0.007251
29.466,58.5871,-0.001208
29.484,58.6656,-0.001208
29.498,58.7235,0.000000
29.514,58.7943,0.002417
29.530,58.8616,-0.006042
29.546,58.9311,-0.003625
29.562,59.0028,0.001208
29.578,59.0672,-0.007251
29.594,59.1366,0.000000
29.610,59.2040,-0.002417
29.626,59.2739,-0.003625
29.642,59.3442,-0.007251
29.658,59.4098,-0.002417
29.674,59.4815,-0.001208
29.697,59.5780,-0.002417
29.713,59.6483,0.001208
29.729,59.7144,-0.006042
29.745,59.7826,-0.001208
29.761,59.8533,-0.007251
29.777,59.9220,-0.002417
29.795,60.0014,-0.002417
29.809,60.0588,-0.010876
29.825,60.1297,-0.010876
29.841,60.1982,-0.007251
29.857,60.2665,-0.009668
29.873,60.3312,-0.008459
29.889,60.4008,-0.007251
29.905,60.4690,-0.013293
29.921,60.5371,-0.014501
29.938,60.6152,-0.010876
29.954,60.6829,-0.016918
29.970,60.7503,-0.013293
29.985,60.8113,-0.013293
30.003,60.8919,-0.019335
30.017,60.9490,-0.018127
30.033,61.0184,-0.020544
30.049,61.0863,-0.020544
30.066,61.1622,-0.027794
30.081,61.2278,-0.029003
30.097,61.2934,-0.035045
30.113,61.3620,-0.038670
30.130,61.4362,-0.047129
30.145,61.4970,-0.047129
30.161,61.4999,-0.019335
30.177,61.4999,-0.039879
30.193,61.4999,-0.047129
30.209,61.4999,-0.047129
30.227,61.4999,-0.043504
30.251,61.4999,-0.039879
30.267,61.4999,-0.031420
30.283,61.4999,-0.029003
30.298,61.4999,-0.035045
30.316,61.4999,-0.035045
30.331,61.4999,-0.039879
30.349,61.4999,-0.035045
30.363,61.4999,-0.035045
30.380,61.4999,-0.025377
30.394,61.4999,-0.026586
30.411,61.4999,-0.032628
30.427,61.4999,-0.037462
30.444,61.4999,-0.032628
30.461,61.4999,-0.029003
30.476,61.4999,-0.030211
30.492,61.4999,-0.026586
30.506,61.4999,-0.029003
30.524,61.4999,-0.027794
30.538,61.4999,-0.032628
30.554,61.4999,-0.027794
30.573,61.4999,-0.027794
30.586,61.4999,-0.027794
30.603,61.4999,-0.031420
30.618,61.4999,-0.033837
30.634,61.4999,-0.035045
30.652,61.4999,-0.030211
30.666,61.4999,-0.030211
30.682,61.4999,-0.031420
30.698,61.4999,-0.031420
30.715,61.4999,-0.030211
30.730,61.4999,-0.029003
30.747,61.4999,-0.024169
30.775,61.4999,-0.030211
30.791,61.4999,-0.031420
30.807,61.4999,-0.027794
30.823,61.4999,-0.027794
30.840,61.4999,-0.030211
30.855,61.4999,-0.025377
30.874,61.4999,-0.027794
30.887,61.4999,-0.027794
30.903,61.4999,-0.027794
30.919,61.4999,-0.020544
30.936,61.4999,-0.020544
30.951,61.4999,-0.018127
30.967,61.4999,-0.021752
30.984,61.4999,-0.020544
30.999,61.4999,-0.026586
31.016,61.4999,-0.026586
31.033,61.4999,-0.027794
31.048,61.4999,-0.024169
31.063,61.4999,-0.025377
31.080,61.4999,-0.022961
31.095,61.4999,-0.031420
31.111,61.4999,-0.024169
31.127,61.4999,-0.022961
31.143,61.4999,-0.022961
31.160,61.4999,-0.026586
31.175,61.4999,-0.026586
31.192,61.4999,-0.026586
31.209,61.4999,-0.019335
31.224,61.4999,-0.019335
31.240,61.4999,-0.026586
31.255,61.4999,-0.020544
31.272,61.4999,-0.025377
31.287,61.4999,-0.024169
31.304,61.4999,-0.021752
31.327,61.4999,-0.020544
31.343,61.4999,-0.020544
31.360,61.4999,-0.026586
31.375,61.4999,-0.026586
31.392,61.4999,-0.025377
31.408,61.4999,-0.025377
31.427,61.4999,-0.015710
31.439,61.4999,-0.014501
31.455,61.4999,-0.014501
31.471,61.4999,-0.022961
31.487,61.4999,-0.018127
31.503,61.4999,-0.021752
31.519,61.4999,-0.021752
31.535,61.4999,-0.024169
31.551,61.4999,-0.014501
31.568,61.4999,-0.016918
31.583,61.4999,-0.022961
31.599,61.4999,-0.022961
31.615,61.4999,-0.029003
31.631,61.4999,-0.025377
31.647,61.4999,-0.022961
31.663,61.4999,-0.019335
31.679,61.4999,-0.025377
31.696,61.4999,-0.022961
31.711,61.4999,-0.026586
31.727,61.4999,-0.022961
31.743,61.4999,-0.024169
31.761,61.4999,-0.026586
31.776,61.4999,-0.026586
31.791,61.4999,-0.024169
31.808,61.4999,-0.021752
31.823,61.4999,-0.022961
31.839,61.4999,-0.016918
31.855,61.4999,-0.025377
31.876,61.4999,-0.025377
31.892,61.4999,-0.020544
31.908,61.4999,-0.025377
31.924,61.4999,-0.025377
31.941,61.4999,-0.022961
31.956,61.4999,-0.022961
31.973,61.4999,-0.021752
31.987,61.4999,-0.019335
32.004,61.4999,-0.016918
32.021,61.4999,-0.015710
32.036,61.4999,-0.019335
32.052,61.4999,-0.019335
32.068,61.4999,-0.019335
32.087,61.4999,-0.027794
32.100,61.4999,-0.019335
32.116,61.4999,-0.019335
32.132,61.4999,-0.019335
32.149,61.4999,-0.020544
32.164,61.4999,-0.019335
32.180,61.4999,-0.021752
32.196,61.4999,-0.024169
32.212,61.4999,-0.021752
32.230,61.4999,-0.020544
32.244,61.4999,-0.025377
32.260,61.4999,-0.022961
32.276,61.4999,-0.022961
32.293,61.4999,-0.019335
32.309,61.4999,-0.024169
32.324,61.4999,-0.019335
32.340,61.4999,-0.020544
32.358,61.4999,-0.026586
32.372,61.4999,-0.027794
32.388,61.4999,-0.020544
32.404,61.4999,-0.016918
32.427,61.4999,-0.021752
32.443,61.4999,-0.025377
32.458,61.4999,-0.020544
32.474,61.4999,-0.022961
32.491,61.4999,-0.016918
32.507,61.4999,-0.016918
32.524,61.4999,-0.018127
32.538,61.4999,-0.024169
32.555,61.4999,-0.024169
32.572,61.4999,-0.024169
32.587,61.4999,-0.022961
32.602,61.4999,-0.018127
32.619,61.4999,-0.019335
32.634,61.4999,-0.022961
32.652,61.4999,-0.019335
32.666,61.4999,-0.021752
32.683,61.4999,-0.024169
32.698,61.4999,-0.021752
32.717,61.4999,-0.019335
32.731,61.4999,-0.019335
32.747,61.4999,-0.018127
32.763,61.4999,-0.018127
32.779,61.4999,-0.020544
32.795,61.4999,-0.016918
32.813,61.4999,-0.016918
32.828,61.4999,-0.016918
32.846,61.4999,-0.016918
32.858,61.4999,-0.022961
32.875,61.4999,-0.022961
32.890,61.4999,-0.027794
32.906,61.4999,-0.019335
32.922,61.4999,-0.024169
32.938,61.4999,-0.020544
32.955,61.4999,-0.021752
32.970,61.4999,-0.010876
32.994,61.4999,-0.016918
33.009,61.4999,-0.018127
33.025,61.4999,-0.019335
33.041,61.4999,-0.021752
33.058,61.4999,-0.020544
33.073,61.4999,-0.025377
33.090,61.4999,-0.024169
33.105,61.4999,-0.024169
33.122,61.4999,-0.026586
33.137,61.4999,-0.016918
33.153,61.4999,-0.016918
33.169,61.4999,-0.018127
33.185,61.4999,-0.014501
33.201,61.4999,-0.018127
33.217,61.4999,-0.024169
33.234,61.4999,-0.024169
33.250,61.4999,-0.019335
33.266,61.4999,-0.022961
33.281,61.4999,-0.016918
33.299,61.4999,-0.012084
33.313,61.4999,-0.014501
33.329,61.4999,-0.015710
33.345,61.4999,-0.018127
33.364,61.4999,-0.018127
33.377,61.4999,-0.022961
33.393,61.4999,-0.022961
33.409,61.4999,-0.019335
33.427,61.4999,-0.016918
33.442,61.4999,-0.018127
33.458,61.4999,-0.015710
33.473,61.4999,-0.014501
33.490,61.4999,-0.019335
33.505,61.4999,-0.020544
33.524,61.4999,-0.010876
33.547,61.4999,-0.018127
33.563,61.4999,-0.018127
33.579,61.4999,-0.022961
33.595,61.4999,-0.020544
33.613,61.4999,-0.016918
33.628,61.4999,-0.020544
33.643,61.4999,-0.020544
33.659,61.4999,-0.019335
33.677,61.4999,-0.016918
33.691,61.4999,-0.019335
33.709,61.4999,-0.020544
33.723,61.4999,-0.019335
33.739,61.4999,-0.013293
33.756,61.4999,-0.013293
33.771,61.4999,-0.014501
33.790,61.4999,-0.014501
33.803,61.4999,-0.015710
33.819,61.4999,-0.021752
33.835,61.4999,-0.020544
33.852,61.4999,-0.019335
33.867,61.4999,-0.019335
33.883,61.4999,-0.020544
33.899,61.4999,-0.018127
33.915,61.4999,-0.021752
33.931,61.4999,-0.022961
33.947,61.4999,-0.020544
33.963,61.4999,-0.022961
33.980,61.4999,-0.013293
33.996,61.4999,-0.019335
34.011,61.4999,-0.014501
34.027,61.4999,-0.018127
34.044,61.4999,-0.020544
34.060,61.4999,-0.018127
34.078,61.4999,-0.018127
34.102,61.4999,-0.016918
34.118,61.4999,-0.012084
34.134,61.4999,-0.018127
34.150,61.4999,-0.018127
34.166,61.4999,-0.012084
34.182,61.4999,-0.012084
34.201,61.4999,-0.021752
34.214,61.4999,-0.022961
34.230,61.4999,-0.022961
34.246,61.4999,-0.015710
34.262,61.4999,-0.015710
34.277,61.4999,-0.020544
34.294,61.4999,-0.012084
34.310,61.4999,-0.012084
34.326,61.4999,-0.013293
34.343,61.4999,-0.019335
34.359,61.4999,-0.019335
34.374,61.4999,-0.016918
34.390,61.4999,-0.015710
34.406,61.4999,-0.013293
34.422,61.4999,-0.014501
34.438,61.4999,-0.016918
34.454,61.4999,-0.016918
34.471,61.4999,-0.012084
34.486,61.4999,-0.008459
34.502,61.4999,-0.016918
34.518,61.4999,-0.018127
34.534,61.4999,-0.018127
34.550,61.4999,-0.019335
34.569,61.4999,-0.012084
34.582,61.4999,-0.013293
34.598,61.4999,-0.019335
34.614,61.4999,-0.019335
34.630,61.4999,-0.019335
34.654,61.4999,-0.021752
34.670,61.4999,-0.016918
34.686,61.4999,-0.015710
34.702,61.4999,-0.014501
34.719,61.4999,-0.019335
34.734,61.4999,-0.018127
34.750,61.4999,-0.022961
34.766,61.4999,-0.020544
34.782,61.4999,-0.020544
34.798,61.4999,-0.016918
34.815,61.4999,-0.016918
34.829,61.4999,-0.015710
34.846,61.4999,-0.015710
34.862,61.4999,-0.016918
34.877,61.4999,-0.015710
34.897,61.4999,-0.018127
34.909,61.4999,-0.019335
34.926,61.4999,-0.015710
34.941,61.4999,-0.014501
34.960,61.4999,-0.014501
34.974,61.4999,-0.015710
34.990,61.4999,-0.018127
35.005,61.4999,-0.015710
35.021,61.4999,-0.016918
35.038,61.4999,-0.019335
35.053,61.4999,-0.015710
35.069,61.4999,-0.020544
35.086,61.4999,-0.016918
35.101,61.4999,-0.019335
35.118,61.4999,-0.019335
35.133,61.4999,-0.020544
35.150,61.4999,-0.016918
35.167,61.4999,-0.015710
35.185,61.4999,-0.018127
35.208,61.4999,-0.018127
35.224,61.4999,-0.018127
35.240,61.4999,-0.012084
35.256,61.4999,-0.016918
35.274,61.4999,-0.018127
35.289,61.4999,-0.019335
35.305,61.4999,-0.019335
35.322,61.4999,-0.019335
35.337,61.4999,-0.015710
35.352,61.4999,-0.015710
35.369,61.4999,-0.018127
35.384,61.4999,-0.015710
35.400,61.4999,-0.014501
35.416,61.4999,-0.015710
35.432,61.4999,-0.015710
35.449,61.4999,-0.018127
35.465,61.4999,-0.016918
35.481,61.4999,-0.019335
35.496,61.4999,-0.013293
35.513,61.4999,-0.015710
35.529,61.4999,-0.022961
35.544,61.4999,-0.018127
35.560,61.4999,-0.021752
35.577,61.4999,-0.020544
35.593,61.4999,-0.019335
35.608,61.4999,-0.018127
35.624,61.4999,-0.018127
35.641,61.4999,-0.021752
35.657,61.4999,-0.021752
35.673,61.4999,-0.016918
35.688,61.4999,-0.018127
35.705,61.4999,-0.018127
35.720,61.4999,-0.015710
35.739,61.4999,-0.014501
35.762,61.4999,-0.014501
35.779,61.4999,-0.024169
35.794,61.4999,-0.018127
35.810,61.4999,-0.015710
35.827,61.4999,-0.026586
35.842,61.4999,-0.009668
35.862,61.4999,-0.009668
35.874,61.4999,-0.013293
35.890,61.4999,-0.016918
35.906,61.4999,-0.019335
35.924,61.4999,-0.019335
35.938,61.4999,-0.021752
35.954,61.4999,-0.021752
35.970,61.4999,-0.018127
35.986,61.4999,-0.024169
36.002,61.4999,-0.022961
36.018,61.4999,-0.020544
36.034,61.4999,-0.018127
36.050,61.4999,-0.014501
36.070,61.4999,-0.018127
36.082,61.4999,-0.020544
36.098,61.4999,-0.014501
36.114,61.4999,-0.020544
36.131,61.4999,-0.022961
36.146,61.4999,-0.022961
36.162,61.4999,-0.013293
36.178,61.4999,-0.015710
36.195,61.4999,-0.010876
36.210,61.4999,-0.014501
36.227,61.4999,-0.021752
36.242,61.4999,-0.020544
36.259,61.4999,-0.016918
36.274,61.4999,-0.019335
36.302,61.4999,-0.020544
36.318,61.4999,-0.021752
36.334,61.4999,-0.016918
36.350,61.4999,-0.019335
36.366,61.4999,-0.020544
36.382,61.4999,-0.018127
36.401,61.4999,-0.014501
36.414,61.4999,-0.014501
36.430,61.4999,-0.013293
36.446,61.4999,-0.012084
36.463,61.4999,-0.014501
36.478,61.4999,-0.020544
36.495,61.4999,-0.020544
36.510,61.4999,-0.018127
36.526,61.4999,-0.009668
36.542,61.4999,-0.015710
36.558,61.4999,-0.016918
36.574,61.4999,-0.014501
36.590,61.4999,-0.014501
36.611,61.4999,-0.014501
36.624,61.4999,-0.016918
36.639,61.4999,-0.016918
36.655,61.4999,-0.014501
36.670,61.4999,-0.016918
36.687,61.4999,-0.013293
36.702,61.4999,-0.016918
36.718,61.4999,-0.019335
36.734,61.4999,-0.020544
36.750,61.4999,-0.018127
36.767,61.4999,-0.019335
36.782,61.4999,-0.016918
36.799,61.4999,-0.015710
36.815,61.4999,-0.018127
36.830,61.4999,-0.018127
36.858,61.4999,-0.020544
36.873,61.4999,-0.021752
36.889,61.4999,-0.016918
36.905,61.4999,-0.012084
36.923,61.4999,-0.015710
36.938,61.4999,-0.015710
36.957,61.4999,-0.015710
36.970,61.4999,-0.015710
36.985,61.4999,-0.015710
37.001,61.4999,-0.014501
37.017,61.4999,-0.019335
37.034,61.4999,-0.019335
37.051,61.4999,-0.020544
37.067,61.4999,-0.019335
37.081,61.4999,-0.015710
37.097,61.4999,-0.016918
37.113,61.4999,-0.016918
37.130,61.4999,-0.021752
37.145,61.4999,-0.015710
37.163,61.4999,-0.019335
37.178,61.4999,-0.018127
37.193,61.4999,-0.018127
37.209,61.4999,-0.012084
37.226,61.4999,-0.014501
37.243,61.4999,-0.019335
37.257,61.4999,-0.016918
37.273,61.4999,-0.016918
37.291,61.4999,-0.018127
37.306,61.4999,-0.014501
37.323,61.4999,-0.014501
37.337,61.4999,-0.010876
37.353,61.4999,-0.010876
37.369,61.4999,-0.012084
37.385,61.4999,-0.022961
37.409,61.4999,-0.019335
37.427,61.4999,-0.016918
37.440,61.4999,-0.015710
37.457,61.4999,-0.016918
37.473,61.4999,-0.016918
37.488,61.4999,-0.019335
37.505,61.4999,-0.019335
37.520,61.4999,-0.021752
37.537,61.4999,-0.020544
37.552,61.4999,-0.019335
37.568,61.4999,-0.012084
37.584,61.4999,-0.009668
37.599,61.4999,-0.014501
37.616,61.4999,-0.016918
37.632,61.4999,-0.020544
37.649,61.4999,-0.013293
37.664,61.4999,-0.012084
37.680,61.4999,-0.016918
37.696,61.4999,-0.018127
37.713,61.4999,-0.018127
37.728,61.4999,-0.020544
37.744,61.4999,-0.022961
37.760,61.4999,-0.019335
37.777,61.4999,-0.013293
37.792,61.4999,-0.013293
37.808,61.4999,-0.019335
37.825,61.4999,-0.019335
37.840,61.4999,-0.013293
37.856,61.4999,-0.015710
37.872,61.4999,-0.015710
37.890,61.4999,-0.016918
37.905,61.4999,-0.018127
37.920,61.4999,-0.020544
37.949,61.4999,-0.016918
37.965,61.4999,-0.016918
37.981,61.4999,-0.018127
37.997,61.4999,-0.019335
38.014,61.4999,-0.019335
38.029,61.4999,-0.015710
38.045,61.4999,-0.015710
38.061,61.4999,-0.016918
38.077,61.4999,-0.018127
38.093,61.4999,-0.018127
38.108,61.4999,-0.009668
38.127,61.4999,-0.009668
38.141,61.4999,-0.018127
38.157,61.4999,-0.021752
38.173,61.4999,-0.015710
38.189,61.4999,-0.020544
38.205,61.4999,-0.015710
38.221,61.4999,-0.013293
38.237,61.4999,-0.015710
38.253,61.4999,-0.015710
38.270,61.4999,-0.016918
38.285,61.4999,-0.016918
38.301,61.4999,-0.016918
38.317,61.4999,-0.014501
38.333,61.4999,-0.009668
38.350,61.4999,-0.013293
38.365,61.4999,-0.012084
38.381,61.4999,-0.018127
38.398,61.4999,-0.019335
38.416,61.4999,-0.015710
38.428,61.4999,-0.014501
38.446,61.4999,-0.014501
38.461,61.4999,-0.012084
38.478,61.4999,-0.012084
38.503,61.4999,-0.012084
38.518,61.4999,-0.019335
38.534,61.4999,-0.013293
38.550,61.4999,-0.019335
38.567,61.4999,-0.008459
38.582,61.4999,-0.012084
38.598,61.4999,-0.014501
38.614,61.4999,-0.016918
38.631,61.4999,-0.016918
38.646,61.4999,-0.016918
38.664,61.4999,-0.016918
38.678,61.4999,-0.015710
38.694,61.4999,-0.018127
38.710,61.4999,-0.015710
38.726,61.4999,-0.014501
38.742,61.4999,-0.015710
38.758,61.4999,-0.020544
38.774,61.4999,-0.020544
38.790,61.4999,-0.018127
38.806,61.4999,-0.022961
38.822,61.4999,-0.013293
38.838,61.4999,-0.013293
38.853,61.4999,-0.016918
38.875,61.4999,-0.016918
38.892,61.4999,-0.016918
38.902,61.4999,-0.020544
38.918,61.4999,-0.020544
38.933,61.4999,-0.020544
38.949,61.4999,-0.012084
38.965,61.4999,-0.016918
38.981,61.4999,-0.016918
38.998,61.4999,-0.018127
39.013,61.4999,-0.016918
39.030,61.4999,-0.015710
39.059,61.4999,-0.014501
39.074,61.4999,-0.018127
39.091,61.4999,-0.024169
39.106,61.4999,-0.016918
39.123,61.4999,-0.021752
39.139,61.4999,-0.021752
39.155,61.4999,-0.019335
39.170,61.4999,-0.015710
39.187,61.4999,-0.014501
39.202,61.4999,-0.014501
39.219,61.4999,-0.018127
39.235,61.4999,-0.018127
39.250,61.4999,-0.012084
39.267,61.4999,-0.014501
39.282,61.4999,-0.018127
39.305,61.4999,-0.018127
39.329,61.4999,-0.021752
39.347,61.4999,-0.018127
39.363,61.4999,-0.012084
39.379,61.4999,-0.010876
39.395,61.4999,-0.012084
39.410,61.4999,-0.015710
39.427,61.4999,-0.016918
39.443,61.4999,-0.015710
39.459,61.4999,-0.014501
39.474,61.4999,-0.015710
39.491,61.4999,-0.013293
39.506,61.4999,-0.015710
39.523,61.4999,-0.015710
39.538,61.4999,-0.018127
39.555,61.4999,-0.018127
39.570,61.4999,-0.016918
39.588,61.4999,-0.016918
39.612,61.4999,-0.015710
39.628,61.4999,-0.013293
39.644,61.4999,-0.013293
39.660,61.4999,-0.019335
39.678,61.4999,-0.018127
39.694,61.4999,-0.015710
39.708,61.4999,-0.018127
39.726,61.4999,-0.018127
39.742,61.4999,-0.012084
39.757,61.4999,-0.013293
39.775,61.4999,-0.013293
39.788,61.4999,-0.018127
39.804,61.4999,-0.018127
39.820,61.4999,-0.015710
39.839,61.4999,-0.019335
39.852,61.4999,-0.019335
39.869,61.4999,-0.016918
39.885,61.4999,-0.014501
39.900,61.4999,-0.016918
39.917,61.4999,-0.013293
39.932,61.4999,-0.013293
39.948,61.4999,-0.015710
39.972,61.4999,-0.015710
39.995,61.4999,-0.010876
40.012,61.4999,-0.015710
40.028,61.4999,-0.021752
40.044,61.4999,-0.021752
40.062,61.4999,-0.014501
40.076,61.4999,-0.014501
40.092,61.4999,-0.016918
40.110,61.4999,-0.012084
40.124,61.4999,-0.012084
40.140,61.4999,-0.016918
40.156,61.4999,-0.015710
40.180,61.4999,-0.015710
40.196,61.4999,-0.015710
40.211,61.4999,-0.013293
40.227,61.4999,-0.015710
40.243,61.4999,-0.015710
40.259,61.4999,-0.019335
40.275,61.4999,-0.019335
40.291,61.4999,-0.015710
40.316,61.4999,-0.012084
40.338,61.4999,-0.021752
40.355,61.4999,-0.019335
40.372,61.4999,-0.014501
40.388,61.4999,-0.021752
40.403,61.4999,-0.016918
40.419,61.4999,-0.014501
40.437,61.4999,-0.014501
40.451,61.4999,-0.015710
40.467,61.4999,-0.018127
40.483,61.4999,-0.018127
40.500,61.4999,-0.024169
40.515,61.4999,-0.024169
40.530,61.4999,-0.015710
40.547,61.4999,-0.014501
40.564,61.4999,-0.014501
40.579,61.4999,-0.012084
40.595,61.4999,-0.016918
40.611,61.4999,-0.019335
40.627,61.4999,-0.021752
40.643,61.4999,-0.010876
40.659,61.4999,-0.021752
40.675,61.4999,-0.015710
40.691,61.4999,-0.020544
40.707,61.4999,-0.015710
40.731,61.4999,-0.018127
40.746,61.4999,-0.018127
40.762,61.4999,-0.010876
40.780,61.4999,-0.010876
40.794,61.4999,-0.010876
40.811,61.4999,-0.021752
40.826,61.4999,-0.021752
40.843,61.4999,-0.020544
40.858,61.4999,-0.012084
40.874,61.4999,-0.012084
40.890,61.4999,-0.014501
40.906,61.4999,-0.014501
40.922,61.4999,-0.020544
40.938,61.4999,-0.022961
40.955,61.4999,-0.015710
40.970,61.4999,-0.010876
40.986,61.4999,-0.018127
41.003,61.4999,-0.018127
41.019,61.4999,-0.015710
41.033,61.4999,-0.019335
41.050,61.4999,-0.012084
41.067,61.4999,-0.014501
41.081,61.4999,-0.012084
41.098,61.4999,-0.014501
41.116,61.4999,-0.014501
41.129,61.4999,-0.015710
41.146,61.4999,-0.022961
41.161,61.4999,-0.018127
41.179,61.4999,-0.022961
41.194,61.4999,-0.008459
41.211,61.4999,-0.013293
41.226,61.4999,-0.015710
41.254,61.4999,-0.013293
41.269,61.4999,-0.016918
41.287,61.4999,-0.016918
41.302,61.4999,-0.019335
41.318,61.4999,-0.014501
41.333,61.4999,-0.019335
41.349,61.4999,-0.015710
41.366,61.4999,-0.015710
41.381,61.4999,-0.012084
41.399,61.4999,-0.019335
41.414,61.4999,-0.020544
41.429,61.4999,-0.015710
41.446,61.4999,-0.010876
41.462,61.4999,-0.010876
41.477,61.4999,-0.013293
41.493,61.4999,-0.016918
41.509,61.4999,-0.016918
41.527,61.4999,-0.014501
41.544,61.4999,-0.014501
41.558,61.4999,-0.009668
41.574,61.4999,-0.009668
41.590,61.4851,-0.010876
41.605,61.4178,-0.010876
41.621,61.3504,0.003625
41.637,61.2812,0.010876
41.655,61.2025,0.010876
41.670,61.1390,0.016918
41.685,61.0711,0.014501
41.701,60.9998,0.026586
41.718,60.9281,0.032628
41.735,60.8532,0.041087
41.749,60.7916,0.053172
41.778,60.6637,0.066465
41.795,60.5929,0.071298
41.811,60.5224,0.072507
41.827,60.4498,0.090634
41.842,60.3837,0.088217
41.858,60.3141,0.108760
41.874,60.2441,0.107552
41.891,60.1706,0.113594
41.907,60.1027,0.123262
41.924,60.0283,0.123262
41.938,59.9645,0.128095
41.955,59.8923,0.128095
41.970,59.8236,0.128095
41.986,59.7549,0.126887
42.002,59.6813,0.130512
42.018,59.6135,0.128095
42.034,59.5427,0.122053
42.050,59.4748,0.116011
42.066,59.4047,0.106343
42.082,59.3343,0.076132
42.098,59.2621,0.043504
42.114,59.1948,0.014501
42.132,59.1129,0.003625
42.146,59.0538,-0.002417
42.162,58.9842,0.000000
42.178,58.9146,0.006042
42.197,58.8327,0.001208
42.209,58.7746,0.003625
42.226,58.7046,0.004834
42.242,58.6346,0.004834
42.258,58.5632,0.001208
42.274,58.4932,-0.002417
42.290,58.4215,0.006042
42.314,58.3199,0.001208
42.331,58.2469,0.004834
42.346,58.1768,0.003625
42.362,58.1099,0.004834
42.378,58.0373,0.004834
42.394,57.9677,0.001208
42.410,57.8985,0.001208
42.426,57.8303,0.000000
42.443,57.7536,0.000000
42.458,57.6889,0.001208
42.474,57.6158,0.001208
42.490,57.5502,0.000000
42.506,57.4770,-0.001208
42.522,57.4097,-0.001208
42.540,57.3287,-0.001208
42.553,57.2706,0.002417
42.570,57.1992,0.003625
42.586,57.1297,0.002417
42.602,57.0570,0.001208
42.618,56.9870,0.004834
42.634,56.9204,0.004834
42.650,56.8474,0.003625
42.668,56.7638,0.006042
42.682,56.7105,0.001208
42.704,56.6132,-0.002417
42.727,56.5139,-0.001208
42.746,56.4273,0.000000
42.764,56.3467,-0.001208
42.779,56.2859,0.003625
42.794,56.2203,0.000000
42.809,56.1502,-0.003625
42.840,56.0190,0.003625
42.856,55.9486,-0.003625
42.872,55.8776,-0.003625
42.888,55.8093,0.006042
42.905,55.7350,0.006042
42.920,55.6693,0.000000
42.936,55.5940,-0.001208
42.952,55.5272,0.000000
42.968,55.4565,0.004834
42.984,55.4499,0.003625
43.000,55.4499,0.004834
43.016,55.4499,0.004834
43.032,55.4499,0.004834
43.048,55.4499,-0.002417
43.064,55.4499,-0.002417
43.080,55.4499,0.001208
43.096,55.4499,0.010876
43.112,55.4505,-0.001208
43.129,55.5053,-0.004834
43.144,55.5735,-0.004834
43.159,55.6419,0.002417
43.176,55.7110,-0.008459
43.192,55.7840,-0.010876
43.208,55.8558,0.001208
43.223,55.9206,-0.006042
43.240,55.9919,-0.007251
43.256,56.0642,-0.009668
43.271,56.1310,-0.007251
43.287,56.2016,-0.004834
43.304,56.2733,0.000000
43.319,56.3416,0.002417
43.336,56.4138,0.009668
43.365,56.5389,0.001208
43.379,56.6042,-0.004834
43.395,56.6741,-0.004834
43.411,56.7428,0.002417
43.427,56.8146,0.000000
43.443,56.8873,0.000000
43.461,56.9604,-0.003625
43.475,57.0229,-0.003625
43.491,57.0929,-0.004834
43.507,57.1639,0.000000
43.523,57.2330,0.000000
43.540,57.3096,0.002417
43.556,57.3752,0.001208
43.572,57.4465,0.007251
43.587,57.5130,-0.003625
43.603,57.5843,-0.002417
43.620,57.6561,-0.007251
43.635,57.7226,-0.002417
43.652,57.7967,-0.001208
43.668,57.8680,0.000000
43.685,57.9428,0.001208
43.700,58.0071,-0.003625
43.716,58.0753,-0.006042
43.731,58.1428,-0.002417
43.747,58.2128,0.000000
43.764,58.2849,0.000000
43.779,58.3536,0.001208
43.796,58.4251,-0.001208
43.811,58.4928,0.000000
43.828,58.5651,-0.003625
43.844,58.6347,-0.003625
43.860,58.7086,-0.003625
43.885,58.8166,-0.002417
43.901,58.8872,-0.006042
43.917,58.9594,-0.007251
43.933,59.0264,-0.007251
43.949,59.0963,-0.001208
43.965,59.1667,-0.003625
43.981,59.2372,-0.006042
43.998,59.3104,-0.006042
44.015,59.3878,-0.006042
44.029,59.4464,-0.004834
44.046,59.5229,-0.004834
44.062,59.5890,-0.001208
44.077,59.6560,-0.006042
44.093,59.7282,-0.006042
44.109,59.7960,-0.001208
44.130,59.8888,-0.006042
44.141,59.9369,-0.001208
44.157,60.0056,-0.012084
44.174,60.0792,-0.015710
44.189,60.1493,-0.004834
44.205,60.2161,-0.004834
44.221,60.2879,-0.013293
44.237,60.3558,-0.009668
44.253,60.4262,-0.009668
44.269,60.4975,-0.014501
44.286,60.5702,-0.014501
44.301,60.6393,-0.013293
44.317,60.7067,-0.016918
44.333,60.7772,-0.016918
44.349,60.8459,-0.020544
44.365,60.9198,-0.025377
44.382,60.9911,-0.025377
44.399,61.0652,-0.027794
44.423,61.1701,-0.024169
44.438,61.2362,-0.030211
44.454,61.3080,-0.030211
44.470,61.3750,-0.044713
44.489,61.4499,-0.033837
44.502,61.4499,-0.033837
44.518,61.4499,-0.041087
44.534,61.4499,-0.048338
44.551,61.4499,-0.048338
44.567,61.4499,-0.044713
44.583,61.4499,-0.044713
44.598,61.4499,-0.035045
44.614,61.4499,-0.044713
44.630,61.4499,-0.041087
44.646,61.4499,-0.038670
44.663,61.4499,-0.038670
44.678,61.4499,-0.027794
44.694,61.4499,-0.030211
44.710,61.4499,-0.027794
44.726,61.4499,-0.035045
44.742,61.4499,-0.037462
44.758,61.4499,-0.037462
44.774,61.4499,-0.033837
44.792,61.4499,-0.031420
44.806,61.4499,-0.027794
44.822,61.4499,-0.030211
44.838,61.4499,-0.036253
44.854,61.4499,-0.036253
44.870,61.4499,-0.027794
44.888,61.4499,-0.026586
44.902,61.4499,-0.024169
44.918,61.4499,-0.026586
44.935,61.4499,-0.026586
44.952,61.4499,-0.026586
44.976,61.4499,-0.027794
44.991,61.4499,-0.025377
45.007,61.4499,-0.029003
45.024,61.4499,-0.021752
45.040,61.4499,-0.021752
45.056,61.4499,-0.026586
45.072,61.4499,-0.024169
45.088,61.4499,-0.026586
45.104,61.4499,-0.025377
45.120,61.4499,-0.027794
45.136,61.4499,-0.027794
45.151,61.4499,-0.027794
45.168,61.4499,-0.022961
45.184,61.4499,-0.022961
45.200,61.4499,-0.024169
45.216,61.4499,-0.022961
45.232,61.4499,-0.020544
45.248,61.4499,-0.024169
45.264,61.4499,-0.024169
45.279,61.4499,-0.021752
45.296,61.4499,-0.024169
45.312,61.4499,-0.031420
45.328,61.4499,-0.029003
45.344,61.4499,-0.027794
45.359,61.4499,-0.027794
45.375,61.4499,-0.019335
45.392,61.4499,-0.024169
45.408,61.4499,-0.024169
45.426,61.4499,-0.024169
45.439,61.4499,-0.029003
45.455,61.4499,-0.029003
45.471,61.4499,-0.026586
45.487,61.4499,-0.019335
45.511,61.4499,-0.019335
45.526,61.4499,-0.022961
45.543,61.4499,-0.022961
45.558,61.4499,-0.020544
45.575,61.4499,-0.020544
45.590,61.4499,-0.016918
45.607,61.4499,-0.026586
45.622,61.4499,-0.020544
45.638,61.4499,-0.022961
45.654,61.4499,-0.022961
45.670,61.4499,-0.025377
45.686,61.4499,-0.030211
45.703,61.4499,-0.030211
45.718,61.4499,-0.022961
45.734,61.4499,-0.022961
45.751,61.4499,-0.026586
45.768,61.4499,-0.016918
45.782,61.4499,-0.022961
45.798,61.4499,-0.025377
45.814,61.4499,-0.025377
45.830,61.4499,-0.025377
45.848,61.4499,-0.022961
45.862,61.4499,-0.021752
45.878,61.4499,-0.020544
45.894,61.4499,-0.021752
45.912,61.4499,-0.029003
45.926,61.4499,-0.026586
45.943,61.4499,-0.025377
45.958,61.4499,-0.025377
45.975,61.4499,-0.022961
45.991,61.4499,-0.026586
46.009,61.4499,-0.021752
