Elapsed Time (s),Position (mm),Force (N)
-0.017,54.0999,-0.022961
0.000,54.0999,-0.021752
0.015,54.0999,-0.026586
0.031,54.0999,-0.026586
0.047,54.0999,-0.025377
0.064,54.0999,-0.024169
0.079,54.0999,-0.026586
0.097,54.0999,-0.030211
0.111,54.0999,-0.021752
0.128,54.0999,-0.021752
0.143,54.0999,-0.018127
0.160,54.0999,-0.018127
0.175,54.0999,-0.025377
0.192,54.0999,-0.021752
0.207,54.0999,-0.021752
0.224,54.0999,-0.021752
0.239,54.0999,-0.021752
0.255,54.0999,-0.025377
0.272,54.0999,-0.022961
0.288,54.0999,-0.020544
0.304,54.0999,-0.019335
0.319,54.0999,-0.015710
0.342,54.0999,-0.021752
0.367,54.0999,-0.029003
0.391,54.0999,-0.021752
0.413,54.0999,-0.020544
0.431,54.0999,-0.018127
0.448,54.0999,-0.024169
0.463,54.0999,-0.020544
0.479,54.0999,-0.024169
0.510,54.0999,-0.021752
0.526,54.0999,-0.015710
0.542,54.0999,-0.019335
0.558,54.0999,-0.012084
0.576,54.0999,-0.018127
0.590,54.0999,-0.021752
0.606,54.0999,-0.024169
0.622,54.0999,-0.027794
0.639,54.0999,-0.020544
0.654,54.0999,-0.020544
0.673,54.0999,-0.020544
0.686,54.0999,-0.018127
0.703,54.0999,-0.022961
0.718,54.0999,-0.022961
0.734,54.0999,-0.022961
0.750,54.0999,-0.022961
0.766,54.0999,-0.018127
0.782,54.0999,-0.018127
0.798,54.0999,-0.022961
0.822,54.0999,-0.020544
0.832,54.0999,-0.024169
0.847,54.0999,-0.020544
0.862,54.0999,-0.016918
0.878,54.0999,-0.016918
0.894,54.0999,-0.024169
0.910,54.0999,-0.025377
0.926,54.0999,-0.021752
0.944,54.0999,-0.018127
0.958,54.0999,-0.018127
0.974,54.0999,-0.018127
0.990,54.0999,-0.020544
1.006,54.0999,-0.020544
1.021,54.0999,-0.014501
1.038,54.0999,-0.013293
1.065,54.0999,-0.020544
1.082,54.0999,-0.022961
1.098,54.0999,-0.021752
1.113,54.0999,-0.016918
1.130,54.0999,-0.016918
1.146,54.0999,-0.015710
1.163,54.0999,-0.016918
1.177,54.0999,-0.016918
1.199,54.0999,-0.024169
1.210,54.0999,-0.022961
1.225,54.0999,-0.024169
1.241,54.0999,-0.016918
1.258,54.0999,-0.019335
1.273,54.0999,-0.019335
1.289,54.0999,-0.019335
1.305,54.0999,-0.016918
1.321,54.0999,-0.020544
1.338,54.0999,-0.019335
1.353,54.0999,-0.020544
1.377,54.0999,-0.022961
1.388,54.0999,-0.019335
1.402,54.0999,-0.020544
1.418,54.0999,-0.021752
1.434,54.0999,-0.022961
1.450,54.0999,-0.015710
1.466,54.0999,-0.016918
1.481,54.0999,-0.024169
1.499,54.0999,-0.020544
1.513,54.0999,-0.016918
1.530,54.0999,-0.021752
1.545,54.0999,-0.024169
1.564,54.0999,-0.019335
1.578,54.0999,-0.013293
1.594,54.0999,-0.016918
1.609,54.0999,-0.026586
1.632,54.0999,-0.026586
1.646,54.0999,-0.020544
1.663,54.0999,-0.020544
1.678,54.0999,-0.020544
1.701,54.0999,-0.020544
1.711,54.0999,-0.018127
1.727,54.0999,-0.021752
1.742,54.0999,-0.016918
1.759,54.0999,-0.021752
1.774,54.0999,-0.016918
1.790,54.0999,-0.015710
1.807,54.0999,-0.021752
1.823,54.0999,-0.015710
1.839,54.0999,-0.025377
1.854,54.0999,-0.021752
1.871,54.0999,-0.021752
1.886,54.0999,-0.018127
1.903,54.0999,-0.014501
1.918,54.0999,-0.016918
1.935,54.0999,-0.012084
1.951,54.0999,-0.013293
1.966,54.0999,-0.018127
1.983,54.0999,-0.016918
1.998,54.0999,-0.016918
2.014,54.0999,-0.020544
2.030,54.0999,-0.012084
2.055,54.0999,-0.013293
2.066,54.0999,-0.020544
2.079,54.0999,-0.015710
2.095,54.0999,-0.015710
2.111,54.0999,-0.016918
2.127,54.0999,-0.020544
2.142,54.0999,-0.016918
2.158,54.0999,-0.013293
2.174,54.0999,-0.012084
2.190,54.0999,-0.012084
2.206,54.0999,-0.016918
2.221,54.0999,-0.016918
2.239,54.0999,-0.016918
2.254,54.0999,-0.021752
2.270,54.0999,-0.021752
2.286,54.0999,-0.014501
2.302,54.0999,-0.016918
2.318,54.0999,-0.015710
2.334,54.0999,-0.018127
2.350,54.0999,-0.016918
2.366,54.0999,-0.018127
2.382,54.0999,-0.015710
2.398,54.0999,-0.010876
2.414,54.0999,-0.021752
2.430,54.0999,-0.021752
2.446,54.0999,-0.019335
2.463,54.0999,-0.020544
2.478,54.0999,-0.020544
2.495,54.0999,-0.019335
2.517,54.0999,-0.020544
2.541,54.0999,-0.018127
2.558,54.0999,-0.018127
2.578,54.0999,-0.014501
2.590,54.0999,-0.016918
2.606,54.0999,-0.020544
2.621,54.0999,-0.020544
2.642,54.0999,-0.016918
2.654,54.0999,-0.016918
2.670,54.0999,-0.018127
2.686,54.0999,-0.018127
2.709,54.0999,-0.018127
2.724,54.0999,-0.018127
2.740,54.0999,-0.015710
2.756,54.0999,-0.018127
2.771,54.0999,-0.020544
2.788,54.0999,-0.018127
2.804,54.0999,-0.018127
2.820,54.0999,-0.015710
2.836,54.0999,-0.012084
2.852,54.0999,-0.010876
2.868,54.0999,-0.014501
2.884,54.0999,-0.015710
2.900,54.0999,-0.019335
2.916,54.0999,-0.015710
2.932,54.0999,-0.015710
2.948,54.0999,-0.014501
2.964,54.0999,-0.014501
2.980,54.0999,-0.019335
2.996,54.0999,-0.013293
3.015,54.0999,-0.014501
3.028,54.0999,-0.010876
3.044,54.0999,-0.019335
3.060,54.0999,-0.016918
3.077,54.0999,-0.018127
3.093,54.0999,-0.013293
3.108,54.0999,-0.013293
3.124,54.0999,-0.021752
3.140,54.0999,-0.021752
3.156,54.0999,-0.014501
3.171,54.0999,-0.016918
3.188,54.0999,-0.012084
3.204,54.0999,-0.015710
3.220,54.0999,-0.015710
3.236,54.0999,-0.018127
3.259,54.0999,-0.018127
3.274,54.0999,-0.020544
3.291,54.0999,-0.020544
3.306,54.0999,-0.015710
3.323,54.0999,-0.014501
3.339,54.0999,-0.013293
3.355,54.0999,-0.010876
3.371,54.0999,-0.015710
3.388,54.0999,-0.018127
3.403,54.0999,-0.013293
3.419,54.0999,-0.015710
3.435,54.0999,-0.015710
3.450,54.0999,-0.015710
3.467,54.0999,-0.019335
3.483,54.0999,-0.015710
3.498,54.0999,-0.019335
3.514,54.0999,-0.013293
3.530,54.0999,-0.012084
3.554,54.0999,-0.012084
3.569,54.0999,-0.014501
3.579,54.0999,-0.013293
3.594,54.0999,-0.013293
3.610,54.0999,-0.013293
3.626,54.0999,-0.016918
3.643,54.0999,-0.018127
3.658,54.0999,-0.013293
3.675,54.0999,-0.012084
3.692,54.0999,-0.014501
3.706,54.0999,-0.020544
3.722,54.0999,-0.015710
3.740,54.0999,-0.015710
3.755,54.0999,-0.018127
3.770,54.0999,-0.014501
3.797,54.0999,-0.015710
3.813,54.0999,-0.019335
3.829,54.0999,-0.016918
3.845,54.0999,-0.020544
3.864,54.0999,-0.012084
3.878,54.0999,-0.015710
3.894,54.0999,-0.015710
3.909,54.0999,-0.015710
3.926,54.0999,-0.013293
3.941,54.0999,-0.018127
3.958,54.0999,-0.018127
3.973,54.0999,-0.016918
3.989,54.0999,-0.016918
4.006,54.0999,-0.016918
4.021,54.0999,-0.008459
4.037,54.0999,-0.012084
4.053,54.0999,-0.012084
4.069,54.0999,-0.014501
4.085,54.0999,-0.020544
4.102,54.0999,-0.014501
4.118,54.0999,-0.012084
4.134,54.0999,-0.013293
4.149,54.0999,-0.019335
4.165,54.0999,-0.019335
4.181,54.0999,-0.018127
4.197,54.0999,-0.008459
4.213,54.0999,-0.013293
4.230,54.0999,-0.018127
4.245,54.0999,-0.019335
4.262,54.0999,-0.016918
4.277,54.0999,-0.010876
4.295,54.0999,-0.015710
4.309,54.0999,-0.020544
4.325,54.0999,-0.012084
4.352,54.0999,-0.014501
4.368,54.0999,-0.016918
4.384,54.0999,-0.018127
4.400,54.0999,-0.019335
4.418,54.0999,-0.012084
4.432,54.0999,-0.012084
4.448,54.0999,-0.012084
4.464,54.0999,-0.015710
4.483,54.0999,-0.015710
4.497,54.0999,-0.016918
4.512,54.0999,-0.021752
4.528,54.0999,-0.019335
4.545,54.0999,-0.010876
4.560,54.0999,-0.010876
4.576,54.0999,-0.012084
4.593,54.0999,-0.012084
4.608,54.0999,-0.014501
4.624,54.0999,-0.013293
4.640,54.0999,-0.018127
4.656,54.0999,-0.019335
4.673,54.0999,-0.015710
4.689,54.0999,-0.015710
4.704,54.0999,-0.015710
4.720,54.0999,-0.014501
4.737,54.0999,-0.019335
4.752,54.0999,-0.013293
4.768,54.0999,-0.019335
4.789,54.0999,-0.012084
4.803,54.0999,-0.012084
4.816,54.0999,-0.021752
4.832,54.0999,-0.013293
4.849,54.0999,-0.010876
4.864,54.0999,-0.015710
4.880,54.0999,-0.016918
4.895,54.0999,-0.015710
4.913,54.0999,-0.015710
4.928,54.0999,-0.014501
4.944,54.0999,-0.010876
4.960,54.0999,-0.021752
4.977,54.0999,-0.021752
4.992,54.0999,-0.019335
5.008,54.0999,-0.019335
5.024,54.0999,-0.010876
5.040,54.0999,-0.010876
5.056,54.0999,-0.018127
5.072,54.0999,-0.014501
5.088,54.0999,-0.015710
5.104,54.0999,-0.016918
5.120,54.0999,-0.013293
5.136,54.0999,-0.013293
5.153,54.0999,-0.013293
5.169,54.0999,-0.018127
5.184,54.0999,-0.015710
5.200,54.0999,-0.020544
5.217,54.0999,-0.015710
5.232,54.0999,-0.013293
5.248,54.0999,-0.016918
5.264,54.0999,-0.015710
5.280,54.0999,-0.010876
5.297,54.0999,-0.016918
5.313,54.0999,-0.019335
5.328,54.0999,-0.016918
5.344,54.0999,-0.010876
5.361,54.0999,-0.012084
5.377,54.0999,-0.012084
5.393,54.0999,-0.010876
5.412,54.0999,-0.010876
5.425,54.0999,-0.013293
5.441,54.0999,-0.013293
5.456,54.0999,-0.015710
5.472,54.0999,-0.016918
5.488,54.0999,-0.018127
5.504,54.0999,-0.013293
5.520,54.0999,-0.008459
5.535,54.0999,-0.015710
5.552,54.0999,-0.022961
5.568,54.0999,-0.022961
5.584,54.0999,-0.014501
5.600,54.0999,-0.012084
5.617,54.0999,-0.014501
5.632,54.0999,-0.013293
5.650,54.0999,-0.013293
5.664,54.0999,-0.015710
5.680,54.0999,-0.015710
5.696,54.0999,-0.015710
5.712,54.0999,-0.018127
5.729,54.0999,-0.010876
5.744,54.0999,-0.018127
5.759,54.0999,-0.018127
5.775,54.0999,-0.019335
5.794,54.0999,-0.019335
5.808,54.0999,-0.015710
5.824,54.0999,-0.015710
5.840,54.0999,-0.018127
5.856,54.0999,-0.015710
5.872,54.0999,-0.015710
5.888,54.0999,-0.012084
5.904,54.0999,-0.014501
5.920,54.0999,-0.014501
5.935,54.0999,-0.014501
5.958,54.0999,-0.012084
5.981,54.0999,-0.018127
6.003,54.0999,-0.013293
6.028,54.0999,-0.013293
6.043,54.0999,-0.013293
6.060,54.0999,-0.010876
6.075,54.0999,-0.013293
6.099,54.0999,-0.009668
6.121,54.0999,-0.019335
6.139,54.0999,-0.014501
6.158,54.0999,-0.010876
6.172,54.0999,-0.008459
6.187,54.0999,-0.010876
6.203,54.0999,-0.010876
6.222,54.0999,-0.019335
6.235,54.0999,-0.018127
6.252,54.0999,-0.024169
6.267,54.0999,-0.015710
6.284,54.0999,-0.015710
6.300,54.0999,-0.015710
6.315,54.0999,-0.012084
6.331,54.0999,-0.021752
6.348,54.0999,-0.019335
6.364,54.0999,-0.018127
6.382,54.0999,-0.018127
6.395,54.0999,-0.008459
6.412,54.0999,-0.016918
6.428,54.0999,-0.016918
6.443,54.0999,-0.009668
6.460,54.0999,-0.009668
6.478,54.0999,-0.016918
6.492,54.0999,-0.014501
6.507,54.0999,-0.010876
6.523,54.0999,-0.012084
6.541,54.0999,-0.009668
6.556,54.0999,-0.015710
6.571,54.0999,-0.014501
6.587,54.0999,-0.012084
6.608,54.0999,-0.013293
6.619,54.0999,-0.015710
6.635,54.0999,-0.019335
6.652,54.0999,-0.020544
6.668,54.0999,-0.012084
6.683,54.0999,-0.013293
6.699,54.0999,-0.012084
6.716,54.0999,-0.009668
6.731,54.0999,-0.013293
6.747,54.0999,-0.012084
6.763,54.0999,-0.014501
6.779,54.0999,-0.010876
6.796,54.0999,-0.018127
6.813,54.0999,-0.014501
6.827,54.0999,-0.009668
6.843,54.0999,-0.013293
6.859,54.0999,-0.009668
6.875,54.0999,-0.009668
6.891,54.0999,-0.013293
6.911,54.0999,-0.015710
6.923,54.0999,-0.013293
6.939,54.0999,-0.010876
6.956,54.0999,-0.012084
6.972,54.0999,-0.015710
6.987,54.0999,-0.019335
7.003,54.0999,-0.018127
7.019,54.0999,-0.016918
7.036,54.0999,-0.010876
7.051,54.0999,-0.013293
7.068,54.0999,-0.013293
7.083,54.0999,-0.009668
7.099,54.0999,-0.012084
7.115,54.0999,-0.018127
7.131,54.0999,-0.022961
7.147,54.0999,-0.019335
7.163,54.0999,-0.016918
7.179,54.0999,-0.009668
7.198,54.0999,-0.009668
7.211,54.0999,-0.013293
7.227,54.0999,-0.016918
7.243,54.0999,-0.015710
7.260,54.0999,-0.015710
7.275,54.0999,-0.014501
7.291,54.0999,-0.018127
7.307,54.0999,-0.013293
7.324,54.0999,-0.014501
7.339,54.0999,-0.014501
7.355,54.0999,-0.022961
7.371,54.0999,-0.026586
7.388,54.0999,-0.015710
7.402,54.0999,-0.013293
7.423,54.0999,-0.020544
7.435,54.0999,-0.019335
7.451,54.0999,-0.016918
7.467,54.0999,-0.013293
7.484,54.0999,-0.013293
7.499,54.0999,-0.019335
7.515,54.0999,-0.014501
7.531,54.0999,-0.009668
7.547,54.0999,-0.013293
7.563,54.0999,-0.013293
7.579,54.0999,-0.009668
7.595,54.0999,-0.014501
7.611,54.0999,-0.018127
7.627,54.0999,-0.012084
7.644,54.0999,-0.007251
7.669,54.0999,-0.009668
7.685,54.0999,-0.013293
7.701,54.0999,-0.020544
7.717,54.0999,-0.020544
7.733,54.0999,-0.014501
7.749,54.0999,-0.013293
7.767,54.0999,-0.014501
7.781,54.0999,-0.013293
7.806,54.0999,-0.014501
7.817,54.0999,-0.015710
7.829,54.0999,-0.015710
7.846,54.0999,-0.009668
7.860,54.0999,-0.012084
7.876,54.0999,-0.012084
7.892,54.0999,-0.018127
7.909,54.0999,-0.018127
7.927,54.0999,-0.012084
7.942,54.0999,-0.020544
7.957,54.0999,-0.014501
7.981,54.0999,-0.014501
8.004,54.0999,-0.009668
8.020,54.0999,-0.018127
8.039,54.0999,-0.014501
8.052,54.0999,-0.018127
8.069,54.0999,-0.012084
8.084,54.0999,-0.010876
8.101,54.0999,-0.012084
8.117,54.0999,-0.014501
8.133,54.0999,-0.015710
8.148,54.0999,-0.024169
8.166,54.0999,-0.016918
8.181,54.0999,-0.014501
8.197,54.0999,-0.014501
8.212,54.0999,-0.014501
8.236,54.0999,-0.013293
8.250,54.0999,-0.014501
8.267,54.0999,-0.016918
8.282,54.0999,-0.016918
8.300,54.0999,-0.015710
8.315,54.0999,-0.012084
8.331,54.0999,-0.015710
8.346,54.0999,-0.019335
8.362,54.0999,-0.013293
8.379,54.0999,-0.016918
8.394,54.0999,-0.010876
8.410,54.0999,-0.012084
8.427,54.0999,-0.009668
8.442,54.0999,-0.010876
8.458,54.0999,-0.010876
8.474,54.0999,-0.018127
8.491,54.0999,-0.018127
8.506,54.0999,-0.012084
8.522,54.0999,-0.012084
8.539,54.0999,-0.018127
8.554,54.0999,-0.015710
8.570,54.0999,-0.015710
8.586,54.0999,-0.014501
8.603,54.0999,-0.018127
8.619,54.0999,-0.020544
8.635,54.0999,-0.020544
8.650,54.0999,-0.020544
8.668,54.0999,-0.014501
8.683,54.0999,-0.015710
8.700,54.0999,-0.013293
8.714,54.0999,-0.016918
8.731,54.0999,-0.020544
8.746,54.0999,-0.013293
8.762,54.0999,-0.016918
8.778,54.0999,-0.020544
8.801,54.0999,-0.020544
8.816,54.0999,-0.012084
8.832,54.0999,-0.018127
8.848,54.0999,-0.018127
8.865,54.0999,-0.014501
8.880,54.0999,-0.012084
8.897,54.0999,-0.019335
8.912,54.0999,-0.012084
8.932,54.0999,-0.012084
8.944,54.0999,-0.020544
8.960,54.0999,-0.012084
8.976,54.0999,-0.014501
8.992,54.0999,-0.009668
9.009,54.0999,-0.009668
9.025,54.0999,-0.012084
9.040,54.0999,-0.007251
9.058,54.0999,-0.012084
9.073,54.0999,-0.018127
9.089,54.0999,-0.018127
9.105,54.0999,-0.006042
9.120,54.0999,-0.006042
9.136,54.0999,-0.016918
9.152,54.0999,-0.016918
9.169,54.0999,-0.016918
9.185,54.0999,-0.021752
9.200,54.0999,-0.013293
9.217,54.0999,-0.010876
9.233,54.0999,-0.010876
9.248,54.0999,-0.015710
9.264,54.0999,-0.013293
9.286,54.0999,-0.016918
9.297,54.0999,-0.012084
9.312,54.0999,-0.015710
9.334,54.0999,-0.014501
9.357,54.0999,-0.014501
9.372,54.0999,-0.012084
9.388,54.0999,-0.012084
9.404,54.0999,-0.010876
9.421,54.0999,-0.010876
9.437,54.0999,-0.010876
9.453,54.0999,-0.014501
9.468,54.0999,-0.014501
9.484,54.0999,-0.018127
9.501,54.0999,-0.018127
9.516,54.0999,-0.013293
9.532,54.0999,-0.013293
9.549,54.0999,-0.013293
9.564,54.0999,-0.013293
9.581,54.0999,-0.012084
9.596,54.0999,-0.009668
9.614,54.0999,-0.013293
9.628,54.0999,-0.010876
9.644,54.0999,-0.018127
9.660,54.0999,-0.018127
9.677,54.0999,-0.015710
9.692,54.0999,-0.013293
9.707,54.0999,-0.013293
9.724,54.0999,-0.014501
9.740,54.0999,-0.016918
9.756,54.0999,-0.014501
9.772,54.0999,-0.014501
9.787,54.0999,-0.015710
9.804,54.0999,-0.019335
9.820,54.0999,-0.013293
9.838,54.0999,-0.015710
9.852,54.0999,-0.020544
9.868,54.0999,-0.016918
9.884,54.0999,-0.009668
9.906,54.0999,-0.012084
9.922,54.0999,-0.007251
9.938,54.0999,-0.007251
9.954,54.0999,-0.010876
9.970,54.0999,-0.018127
9.985,54.0999,-0.015710
10.002,54.0999,-0.021752
10.018,54.0999,-0.020544
10.034,54.0999,-0.010876
10.050,54.0999,-0.010876
10.066,54.0999,-0.016918
10.082,54.0999,-0.014501
10.098,54.0999,-0.021752
10.114,54.0999,-0.019335
10.129,54.0999,-0.019335
10.146,54.0999,-0.013293
10.162,54.0999,-0.007251
10.178,54.0999,-0.007251
10.194,54.0999,-0.020544
10.210,54.0999,-0.016918
10.227,54.0999,-0.018127
10.242,54.0999,-0.015710
10.258,54.0999,-0.015710
10.274,54.0999,-0.015710
10.290,54.0999,-0.015710
10.305,54.0999,-0.010876
10.325,54.0999,-0.020544
10.338,54.0999,-0.022961
10.353,54.0999,-0.015710
10.369,54.0999,-0.015710
10.386,54.0999,-0.016918
10.402,54.0999,-0.014501
10.419,54.0999,-0.013293
10.443,54.0999,-0.018127
10.463,54.0999,-0.019335
10.475,54.0999,-0.013293
10.490,54.0999,-0.013293
10.508,54.0999,-0.013293
10.522,54.0999,-0.013293
10.538,54.0999,-0.012084
10.554,54.0999,-0.015710
10.571,54.0999,-0.015710
10.587,54.0999,-0.008459
10.603,54.0999,-0.013293
10.618,54.0999,-0.013293
10.635,54.0999,-0.014501
10.651,54.0999,-0.014501
10.666,54.0999,-0.010876
10.683,54.0999,-0.013293
10.698,54.0999,-0.008459
10.715,54.0999,-0.012084
10.730,54.0999,-0.009668
10.752,54.0999,-0.007251
10.765,54.0999,-0.014501
10.779,54.0999,-0.012084
10.795,54.0999,-0.007251
10.811,54.0999,-0.012084
10.826,54.0999,-0.010876
10.842,54.0999,-0.007251
10.858,54.0999,-0.008459
10.875,54.0999,-0.010876
10.891,54.0999,-0.018127
10.907,54.0999,-0.016918
10.922,54.0999,-0.019335
10.939,54.0999,-0.014501
10.955,54.0999,-0.013293
10.973,54.0999,-0.014501
10.996,54.0999,-0.013293
11.012,54.0999,-0.018127
11.028,54.0999,-0.016918
11.044,54.0999,-0.016918
11.063,54.0999,-0.010876
11.076,54.0999,-0.009668
11.093,54.0999,-0.015710
11.108,54.0999,-0.016918
11.125,54.0999,-0.015710
11.140,54.0999,-0.015710
11.156,54.0999,-0.013293
11.173,54.0410,0.088217
11.188,53.9057,0.088217
11.204,53.7721,0.016918
11.220,53.6282,0.030211
11.237,53.4887,0.041087
11.252,53.3525,0.056797
11.268,53.2216,0.083383
11.288,53.0441,0.083383
11.300,52.9399,0.102718
11.316,52.8037,0.117219
11.332,52.6693,0.117219
11.349,52.5203,0.147431
11.365,52.3876,0.161932
11.380,52.2506,0.165557
11.396,52.1187,0.175225
11.416,51.9413,0.180059
11.428,51.8380,0.182476
11.444,51.6967,0.164349
11.460,51.5682,0.099093
11.480,51.3968,0.099093
11.492,51.2848,0.027794
11.508,51.1495,0.006042
11.524,51.0143,0.003625
11.546,50.8264,0.007251
11.562,50.6852,0.007251
11.578,50.5507,0.008459
11.594,50.4138,0.001208
11.615,50.2225,0.006042
11.626,50.1337,0.004834
11.642,49.9993,0.003625
11.659,49.8546,0.003625
11.675,49.7039,0.003625
11.690,49.5823,0.004834
11.706,49.4393,-0.001208
11.722,49.3066,0.003625
11.739,49.1671,0.001208
11.754,49.0318,0.003625
11.770,48.8991,0.003625
11.787,48.7518,0.002417
11.802,48.6166,0.003625
11.817,48.4847,0.003625
11.834,48.3477,0.006042
11.850,48.2082,0.006042
11.866,48.0690,0.002417
11.882,48.0499,-0.060422
11.897,48.0499,0.009668
11.923,48.0499,0.009668
11.945,48.0499,-0.002417
11.964,48.0499,0.006042
11.978,48.0499,0.000000
11.994,48.0499,0.004834
12.011,48.0499,-0.004834
12.027,48.0499,0.004834
12.042,48.0499,-0.004834
12.060,48.0499,0.003625
12.089,48.0499,0.003625
12.105,48.0499,-0.004834
12.121,48.0499,0.004834
12.137,48.0499,-0.003625
12.153,48.0499,-0.001208
12.169,48.0499,0.000000
12.185,48.0499,-0.002417
12.201,48.0499,-0.003625
12.218,48.0499,0.001208
12.233,48.0499,0.000000
12.249,48.0499,-0.001208
12.265,48.0499,0.001208
12.282,48.0499,0.002417
12.297,48.0499,0.002417
12.312,48.0968,-0.002417
12.329,48.2347,-0.064048
12.344,48.3664,-0.004834
12.360,48.5035,-0.004834
12.377,48.6465,0.007251
12.393,48.7877,0.003625
12.408,48.9187,0.003625
12.424,49.0549,0.002417
12.446,49.2452,-0.010876
12.457,49.3340,-0.004834
12.473,49.4770,-0.004834
12.489,49.6148,-0.004834
12.505,49.7562,0.001208
12.521,49.8905,0.002417
12.540,50.0508,0.002417
12.552,50.1568,0.003625
12.569,50.3050,0.003625
12.585,50.4343,0.000000
12.601,50.5841,0.002417
12.625,50.7866,0.006042
12.642,50.9287,0.000000
12.657,51.0614,-0.003625
12.673,51.1992,-0.002417
12.690,51.3457,-0.010876
12.706,51.4793,-0.004834
12.722,51.6205,0.001208
12.738,51.7593,0.001208
12.754,51.8962,0.001208
12.770,52.0350,-0.001208
12.785,52.1643,-0.004834
12.802,52.3090,-0.003625
12.818,52.4459,-0.003625
12.833,52.5769,-0.010876
12.850,52.7268,-0.010876
12.866,52.8587,-0.009668
12.882,52.9947,-0.013293
12.898,53.1421,-0.013293
12.914,53.2730,-0.022961
12.930,53.4127,-0.022961
12.945,53.5419,-0.032628
12.961,53.6823,-0.032628
12.978,53.8270,-0.032628
12.994,53.9597,-0.038670
13.009,54.0499,-0.033837
13.026,54.0499,0.049546
13.042,54.0499,-0.051963
13.058,54.0499,-0.036253
13.073,54.0499,-0.036253
13.090,54.0499,-0.036253
13.105,54.0499,-0.044713
13.121,54.0499,-0.042296
13.148,54.0499,-0.033837
13.162,54.0499,-0.038670
13.178,54.0499,-0.039879
13.194,54.0499,-0.031420
13.212,54.0499,-0.038670
13.227,54.0499,-0.033837
13.243,54.0499,-0.037462
13.258,54.0499,-0.030211
13.275,54.0499,-0.037462
13.290,54.0499,-0.037462
13.307,54.0499,-0.025377
13.325,54.0499,-0.021752
13.338,54.0499,-0.029003
13.355,54.0499,-0.030211
13.370,54.0499,-0.030211
13.386,54.0499,-0.024169
13.403,54.0499,-0.024169
13.418,54.0499,-0.020544
13.434,54.0499,-0.031420
13.459,54.0499,-0.031420
13.481,54.0499,-0.025377
13.499,54.0499,-0.025377
13.514,54.0499,-0.025377
13.530,54.0499,-0.022961
13.547,54.0499,-0.026586
13.562,54.0499,-0.025377
13.578,54.0499,-0.025377
13.594,54.0499,-0.025377
13.611,54.0499,-0.024169
13.626,54.0499,-0.027794
13.644,54.0499,-0.021752
13.659,54.0499,-0.021752
13.674,54.0499,-0.030211
13.690,54.0499,-0.021752
13.711,54.0499,-0.021752
13.727,54.0499,-0.019335
13.743,54.0499,-0.025377
13.759,54.0499,-0.026586
13.776,54.0499,-0.029003
13.792,54.0499,-0.026586
13.807,54.0499,-0.018127
13.823,54.0499,-0.022961
13.841,54.0499,-0.024169
13.855,54.0499,-0.022961
13.871,54.0499,-0.021752
13.886,54.0499,-0.026586
13.903,54.0499,-0.016918
13.919,54.0499,-0.016918
13.934,54.0499,-0.020544
13.951,54.0499,-0.025377
13.968,54.0499,-0.025377
13.983,54.0499,-0.018127
13.999,54.0499,-0.018127
14.015,54.0499,-0.021752
14.038,54.0499,-0.020544
14.050,54.0499,-0.019335
14.063,54.0499,-0.015710
14.079,54.0499,-0.029003
14.095,54.0499,-0.024169
14.111,54.0499,-0.018127
14.127,54.0499,-0.015710
14.144,54.0499,-0.020544
14.161,54.0499,-0.020544
14.176,54.0499,-0.018127
14.191,54.0499,-0.025377
14.208,54.0499,-0.024169
14.223,54.0499,-0.020544
14.239,54.0499,-0.019335
14.270,54.0499,-0.020544
14.285,54.0499,-0.022961
14.301,54.0499,-0.020544
14.317,54.0499,-0.024169
14.336,54.0499,-0.016918
14.349,54.0499,-0.019335
14.365,54.0499,-0.018127
14.381,54.0499,-0.012084
14.399,54.0499,-0.012084
14.412,54.0499,-0.019335
14.429,54.0499,-0.026586
14.444,54.0499,-0.022961
14.461,54.0499,-0.021752
14.477,54.0499,-0.021752
14.494,54.0499,-0.016918
14.509,54.0499,-0.020544
14.529,54.0499,-0.021752
14.540,54.0499,-0.021752
14.557,54.0499,-0.016918
14.572,54.0499,-0.015710
14.589,54.0499,-0.018127
14.604,54.0499,-0.020544
14.620,54.0499,-0.018127
14.637,54.0499,-0.019335
14.653,54.0499,-0.025377
14.669,54.0499,-0.020544
14.684,54.0499,-0.016918
14.701,54.0499,-0.024169
14.716,54.0499,-0.013293
14.733,54.0499,-0.013293
14.749,54.0499,-0.018127
14.765,54.0499,-0.015710
14.781,54.0499,-0.021752
14.798,54.0499,-0.016918
14.825,54.0499,-0.020544
14.841,54.0499,-0.019335
14.857,54.0499,-0.015710
14.873,54.0499,-0.021752
14.890,54.0499,-0.022961
14.906,54.0499,-0.021752
14.924,54.0499,-0.024169
14.938,54.0499,-0.024169
14.954,54.0499,-0.021752
14.970,54.0499,-0.020544
14.985,54.0499,-0.013293
15.001,54.0499,-0.018127
15.017,54.0499,-0.022961
15.034,54.0499,-0.020544
15.049,54.0499,-0.013293
15.067,54.0499,-0.015710
15.082,54.0499,-0.020544
15.097,54.0499,-0.021752
15.113,54.0499,-0.021752
15.130,54.0499,-0.021752
15.146,54.0499,-0.024169
15.162,54.0499,-0.020544
15.177,54.0499,-0.013293
15.194,54.0499,-0.010876
15.210,54.0499,-0.021752
15.226,54.0499,-0.016918
15.241,54.0499,-0.020544
15.258,54.0499,-0.013293
15.274,54.0499,-0.013293
15.290,54.0499,-0.018127
15.305,54.0499,-0.015710
15.321,54.0499,-0.019335
15.338,54.0499,-0.021752
15.353,54.0499,-0.018127
15.377,54.0499,-0.021752
15.392,54.0499,-0.013293
15.408,54.0499,-0.015710
15.424,54.0499,-0.018127
15.440,54.0499,-0.026586
15.457,54.0499,-0.019335
15.475,54.0499,-0.018127
15.488,54.0499,-0.014501
15.504,54.0499,-0.018127
15.520,54.0499,-0.016918
15.538,54.0499,-0.016918
15.552,54.0499,-0.014501
15.568,54.0499,-0.014501
15.584,54.0499,-0.020544
15.600,54.0499,-0.020544
15.616,54.0499,-0.012084
15.632,54.0499,-0.016918
15.648,54.0499,-0.014501
15.664,54.0499,-0.018127
15.685,54.0499,-0.015710
15.696,54.0499,-0.019335
15.712,54.0499,-0.021752
15.731,54.0499,-0.015710
15.750,54.0499,-0.012084
15.772,54.0499,-0.022961
15.792,54.0499,-0.015710
15.808,54.0499,-0.020544
15.824,54.0499,-0.016918
15.840,54.0499,-0.010876
15.860,54.0499,-0.016918
15.872,54.0499,-0.015710
15.888,54.0499,-0.015710
15.907,54.0499,-0.021752
15.931,54.0499,-0.022961
15.947,54.0499,-0.020544
15.963,54.0499,-0.016918
15.979,54.0499,-0.018127
15.996,54.0499,-0.015710
16.011,54.0499,-0.022961
16.027,54.0499,-0.022961
16.043,54.0499,-0.016918
16.059,54.0499,-0.014501
16.076,54.0499,-0.015710
16.091,54.0499,-0.014501
16.107,54.0499,-0.021752
16.124,54.0499,-0.013293
16.139,54.0499,-0.015710
16.155,54.0499,-0.018127
16.172,54.0499,-0.015710
16.187,54.0499,-0.015710
16.203,54.0499,-0.013293
16.219,54.0499,-0.016918
16.241,54.0499,-0.022961
16.253,54.0499,-0.015710
16.268,54.0499,-0.015710
16.283,54.0499,-0.014501
16.299,54.0499,-0.016918
16.315,54.0499,-0.022961
16.331,54.0499,-0.016918
16.347,54.0499,-0.016918
16.364,54.0499,-0.019335
16.379,54.0499,-0.021752
16.395,54.0499,-0.022961
16.411,54.0499,-0.022961
16.427,54.0499,-0.018127
16.445,54.0499,-0.013293
16.470,54.0499,-0.014501
16.486,54.0499,-0.014501
16.502,54.0499,-0.016918
16.518,54.0499,-0.016918
16.535,54.0499,-0.015710
16.550,54.0499,-0.015710
16.565,54.0499,-0.013293
16.582,54.0499,-0.010876
16.599,54.0499,-0.013293
16.614,54.0499,-0.018127
16.630,54.0499,-0.019335
16.646,54.0499,-0.020544
16.663,54.0499,-0.013293
16.678,54.0499,-0.013293
16.694,54.0499,-0.010876
16.710,54.0499,-0.020544
16.726,54.0499,-0.019335
16.741,54.0499,-0.021752
16.758,54.0499,-0.016918
16.774,54.0499,-0.015710
16.789,54.0499,-0.015710
16.806,54.0499,-0.015710
16.822,54.0499,-0.014501
16.840,54.0499,-0.014501
16.854,54.0499,-0.014501
16.869,54.0499,-0.020544
16.886,54.0499,-0.019335
16.902,54.0499,-0.012084
16.918,54.0499,-0.014501
16.933,54.0499,-0.015710
16.950,54.0499,-0.015710
16.966,54.0499,-0.014501
16.982,54.0499,-0.014501
16.999,54.0499,-0.018127
17.026,54.0499,-0.012084
17.042,54.0499,-0.020544
17.058,54.0499,-0.016918
17.074,54.0499,-0.020544
17.091,54.0499,-0.019335
17.107,54.0499,-0.015710
17.122,54.0499,-0.014501
17.139,54.0499,-0.014501
17.154,54.0499,-0.013293
17.171,54.0499,-0.014501
17.186,54.0499,-0.019335
17.203,54.0499,-0.015710
17.218,54.0499,-0.014501
17.235,54.0499,-0.014501
17.250,54.0499,-0.015710
17.269,54.0499,-0.015710
17.282,54.0499,-0.019335
17.298,54.0499,-0.019335
17.314,54.0499,-0.018127
17.331,54.0499,-0.018127
17.346,54.0499,-0.014501
17.362,54.0499,-0.010876
17.378,54.0499,-0.013293
17.395,54.0499,-0.012084
17.410,54.0499,-0.012084
17.428,54.0499,-0.021752
17.442,54.0499,-0.012084
17.459,54.0499,-0.012084
17.475,54.0499,-0.016918
17.492,54.0499,-0.016918
17.506,54.0499,-0.016918
17.522,54.0499,-0.016918
17.539,54.0499,-0.016918
17.554,54.0499,-0.013293
17.578,54.0499,-0.010876
17.597,54.0499,-0.016918
17.610,54.0499,-0.016918
17.626,54.0499,-0.014501
17.641,54.0499,-0.020544
17.658,54.0499,-0.020544
17.674,54.0499,-0.018127
17.689,54.0499,-0.018127
17.706,54.0499,-0.014501
17.721,54.0499,-0.018127
17.737,54.0499,-0.018127
17.754,54.0499,-0.024169
17.769,54.0499,-0.014501
17.785,54.0499,-0.020544
17.801,54.0499,-0.016918
17.823,54.0499,-0.016918
17.834,54.0499,-0.013293
17.850,54.0499,-0.013293
17.865,54.0499,-0.015710
17.887,54.0499,-0.015710
17.899,54.0499,-0.013293
17.914,54.0499,-0.018127
17.929,54.0499,-0.014501
17.945,54.0499,-0.013293
17.962,54.0499,-0.014501
17.977,54.0499,-0.021752
17.993,54.0499,-0.018127
18.010,54.0499,-0.018127
18.025,54.0499,-0.015710
18.041,54.0499,-0.014501
18.058,54.0499,-0.016918
18.073,54.0499,-0.021752
18.089,54.0499,-0.013293
18.121,54.0499,-0.014501
18.136,54.0499,-0.010876
18.152,54.0499,-0.016918
18.168,54.0499,-0.016918
18.184,54.0499,-0.016918
18.200,54.0499,-0.020544
18.216,54.0499,-0.018127
18.231,54.0499,-0.009668
18.249,54.0499,-0.009668
18.265,54.0499,-0.014501
18.281,54.0499,-0.015710
18.296,54.0499,-0.015710
18.316,54.0499,-0.014501
18.329,54.0499,-0.015710
18.344,54.0499,-0.014501
18.360,54.0499,-0.010876
18.376,54.0499,-0.014501
18.392,54.0499,-0.008459
18.408,54.0499,-0.014501
18.424,54.0499,-0.012084
18.441,54.0499,-0.014501
18.456,54.0499,-0.015710
18.472,54.0499,-0.016918
18.488,54.0499,-0.013293
18.504,54.0499,-0.014501
18.520,54.0499,-0.012084
18.536,54.0499,-0.015710
18.552,54.0499,-0.018127
18.571,54.0499,-0.018127
18.584,54.0499,-0.012084
18.600,54.0499,-0.009668
18.617,54.0499,-0.016918
18.632,54.0499,-0.014501
18.648,54.0499,-0.018127
18.664,54.0499,-0.016918
18.685,54.0499,-0.015710
18.701,54.0499,-0.018127
18.717,54.0499,-0.015710
18.733,54.0499,-0.015710
18.753,54.0499,-0.009668
18.764,54.0499,-0.009668
18.780,54.0499,-0.018127
18.796,54.0499,-0.015710
18.813,54.0499,-0.010876
18.829,54.0499,-0.010876
18.844,54.0499,-0.014501
18.861,54.0499,-0.009668
18.877,54.0499,-0.007251
18.893,54.0499,-0.014501
18.910,54.0499,-0.014501
18.924,54.0499,-0.018127
18.941,54.0499,-0.020544
18.957,54.0499,-0.016918
18.972,54.0499,-0.013293
18.989,54.0499,-0.013293
19.005,54.0499,-0.014501
19.020,54.0499,-0.012084
19.036,54.0499,-0.012084
19.053,54.0499,-0.010876
19.068,54.0499,-0.010876
19.084,54.0499,-0.014501
19.100,54.0499,-0.014501
19.117,54.0499,-0.014501
19.132,54.0499,-0.015710
19.149,54.0499,-0.015710
19.170,54.0499,-0.013293
19.181,54.0499,-0.015710
19.197,54.0499,-0.010876
19.213,54.0499,-0.009668
19.237,54.0499,-0.018127
19.252,54.0499,-0.016918
19.269,54.0499,-0.016918
19.284,54.0499,-0.010876
19.302,54.0499,-0.010876
19.316,54.0499,-0.014501
19.332,54.0499,-0.018127
19.348,54.0499,-0.019335
19.365,54.0499,-0.014501
19.381,54.0499,-0.014501
19.397,54.0499,-0.010876
19.412,54.0499,-0.018127
19.430,54.0499,-0.018127
19.444,54.0499,-0.010876
19.460,54.0499,-0.012084
19.476,54.0499,-0.016918
19.494,54.0499,-0.019335
19.509,54.0499,-0.022961
19.525,54.0499,-0.021752
19.540,54.0499,-0.015710
19.558,54.0499,-0.015710
19.573,54.0499,-0.022961
19.591,54.0499,-0.022961
19.604,54.0499,-0.016918
19.620,54.0499,-0.016918
19.637,54.0499,-0.014501
19.652,54.0499,-0.004834
19.671,54.0499,-0.007251
19.685,54.0499,-0.014501
19.700,54.0499,-0.019335
19.716,54.0499,-0.020544
19.734,54.0499,-0.014501
19.749,54.0499,-0.018127
19.765,54.0499,-0.014501
19.780,54.0499,-0.015710
19.796,54.0499,-0.018127
19.812,54.0499,-0.016918
19.828,54.0499,-0.015710
19.844,54.0499,-0.008459
19.861,54.0499,-0.009668
19.877,54.0499,-0.009668
19.892,54.0499,-0.013293
19.909,54.0499,-0.013293
19.924,54.0499,-0.015710
19.940,54.0499,-0.016918
19.956,54.0499,-0.014501
19.977,54.0499,-0.018127
19.988,54.0499,-0.016918
20.004,54.0499,-0.012084
20.020,54.0499,-0.012084
20.037,54.0499,-0.013293
20.052,54.0499,-0.013293
20.068,54.0499,-0.012084
20.085,54.0499,-0.013293
20.100,54.0499,-0.013293
20.116,54.0499,-0.015710
20.132,54.0499,-0.015710
20.148,54.0499,-0.021752
20.164,54.0499,-0.018127
20.180,54.0499,-0.015710
20.197,54.0499,-0.008459
20.212,54.0499,-0.008459
20.228,54.0499,-0.010876
20.244,54.0499,-0.012084
20.264,54.0499,-0.013293
20.277,54.0499,-0.021752
20.293,54.0499,-0.013293
20.308,54.0499,-0.019335
20.336,54.0499,-0.014501
20.351,54.0499,-0.015710
20.367,54.0499,-0.014501
20.383,54.0499,-0.020544
20.400,54.0499,-0.020544
20.416,54.0499,-0.021752
20.431,54.0499,-0.018127
20.447,54.0499,-0.014501
20.463,54.0499,-0.020544
20.480,54.0499,-0.020544
20.495,54.0499,-0.021752
20.511,54.0499,-0.020544
20.530,54.0499,-0.018127
20.543,54.0499,-0.009668
20.560,54.0499,-0.010876
20.576,54.0499,-0.012084
20.591,54.0499,-0.010876
20.607,54.0499,-0.014501
20.623,54.0499,-0.016918
20.639,54.0499,-0.016918
20.655,54.0499,-0.016918
20.671,54.0499,-0.016918
20.687,54.0499,-0.015710
20.704,54.0499,-0.021752
20.720,54.0499,-0.020544
20.735,54.0499,-0.015710
20.751,54.0499,-0.014501
20.767,54.0499,-0.013293
20.783,54.0499,-0.013293
20.799,54.0499,-0.018127
20.819,54.0499,-0.014501
20.831,54.0499,-0.014501
20.847,54.0499,-0.014501
20.863,54.0499,-0.018127
20.887,54.0499,-0.018127
20.902,54.0499,-0.013293
20.918,54.0499,-0.013293
20.934,54.0499,-0.020544
20.950,54.0499,-0.019335
20.965,54.0499,-0.008459
20.982,54.0499,-0.010876
20.998,54.0499,-0.016918
21.014,54.0499,-0.013293
21.030,54.0499,-0.014501
21.046,54.0499,-0.010876
21.062,54.0499,-0.014501
21.077,54.0499,-0.015710
21.093,54.0499,-0.016918
21.110,54.0499,-0.014501
21.125,54.0499,-0.014501
21.142,54.0499,-0.014501
21.157,54.0499,-0.014501
21.173,54.0499,-0.008459
21.189,54.0499,-0.018127
21.207,54.0499,-0.018127
21.222,54.0499,-0.010876
21.238,54.0499,-0.010876
21.254,54.0499,-0.008459
21.269,54.0499,-0.008459
21.285,54.0499,-0.016918
21.301,54.0499,-0.009668
21.325,54.0499,-0.010876
21.336,54.0499,-0.010876
21.350,54.0499,-0.010876
21.366,54.0499,-0.009668
21.382,54.0499,-0.008459
21.397,54.0499,-0.018127
21.413,54.0499,-0.010876
21.445,54.0499,-0.016918
21.461,54.0499,-0.015710
21.476,54.0499,-0.007251
21.492,54.0499,-0.013293
21.510,54.0499,-0.014501
21.524,54.0499,-0.016918
21.540,54.0499,-0.015710
21.556,54.0499,-0.012084
21.573,54.0499,-0.015710
21.589,54.0499,-0.015710
21.608,54.0499,-0.015710
21.620,54.0499,-0.016918
21.636,54.0499,-0.014501
21.653,54.0499,-0.010876
21.668,54.0499,-0.010876
21.684,54.0499,-0.009668
21.700,54.0499,-0.015710
21.716,54.0499,-0.015710
21.732,54.0499,-0.013293
21.749,54.0499,-0.013293
21.765,54.0499,-0.019335
21.781,54.0499,-0.018127
21.796,54.0499,-0.014501
21.814,54.0499,-0.015710
21.828,54.0499,-0.010876
21.844,54.0499,-0.014501
21.860,54.0499,-0.016918
21.878,54.0499,-0.016918
21.892,54.0499,-0.010876
21.911,54.0499,-0.010876
21.925,54.0499,-0.018127
21.941,54.0499,-0.013293
21.957,54.0499,-0.016918
21.986,54.0499,-0.018127
22.002,54.0499,-0.018127
22.018,54.0499,-0.018127
22.034,54.0499,-0.013293
22.052,54.0499,-0.003625
22.068,54.0499,-0.010876
22.082,54.0499,-0.019335
22.098,54.0499,-0.014501
22.114,54.0499,-0.016918
22.130,54.0499,-0.016918
22.146,54.0499,-0.010876
22.162,54.0499,-0.015710
22.178,54.0499,-0.015710
22.194,54.0499,-0.018127
22.211,54.0499,-0.018127
22.226,54.0499,-0.013293
22.242,54.0499,-0.009668
22.259,54.0499,-0.014501
22.274,54.0499,-0.013293
22.291,54.0499,-0.012084
22.306,54.0499,-0.013293
22.323,54.0499,-0.012084
22.338,54.0499,-0.012084
22.354,54.0499,-0.013293
22.370,54.0499,-0.018127
22.387,54.0499,-0.013293
22.403,54.0499,-0.013293
22.418,54.0499,-0.009668
22.434,54.0499,-0.006042
22.450,54.0499,-0.006042
22.466,54.0499,-0.015710
22.483,54.0499,-0.013293
22.508,54.0499,-0.014501
22.524,54.0499,-0.013293
22.540,54.0499,-0.015710
22.556,54.0499,-0.015710
22.572,54.0499,-0.013293
22.589,54.0499,-0.012084
22.606,54.0499,-0.014501
22.621,54.0499,-0.014501
22.636,54.0499,-0.015710
22.652,54.0499,-0.015710
22.668,54.0499,-0.014501
22.684,54.0499,-0.012084
22.700,54.0499,-0.012084
22.716,54.0499,-0.013293
22.732,54.0499,-0.014501
22.748,54.0499,-0.012084
22.764,54.0499,-0.015710
22.780,54.0499,-0.013293
22.798,54.0499,-0.009668
22.813,54.0499,-0.012084
22.828,54.0499,-0.007251
22.844,54.0499,-0.015710
22.860,54.0499,-0.014501
22.877,54.0499,-0.009668
22.892,54.0499,-0.014501
22.908,54.0499,-0.008459
22.925,54.0499,-0.012084
22.940,54.0499,-0.013293
22.956,54.0499,-0.015710
22.972,54.0499,-0.010876
22.989,54.0499,-0.010876
23.004,54.0499,-0.013293
23.020,54.0499,-0.013293
23.047,54.0499,-0.012084
23.062,54.0499,-0.013293
23.079,54.0499,-0.013293
23.095,54.0499,-0.014501
23.112,54.0499,-0.013293
23.126,54.0499,-0.015710
23.143,54.0499,-0.012084
23.158,54.0499,-0.014501
23.176,54.0499,-0.014501
23.191,54.0499,-0.012084
23.210,54.0499,-0.012084
23.223,54.0499,-0.018127
23.238,54.0499,-0.018127
23.255,54.0499,-0.016918
23.272,54.0499,-0.009668
23.287,54.0499,-0.009668
23.303,54.0499,-0.009668
23.319,54.0499,-0.009668
23.336,54.0499,-0.010876
23.350,54.0499,-0.015710
23.366,54.0499,-0.013293
23.382,54.0499,-0.013293
23.398,54.0499,-0.013293
23.414,54.0499,-0.009668
23.430,54.0499,-0.010876
23.446,54.0499,-0.012084
23.462,54.0499,-0.014501
23.479,54.0499,-0.016918
23.494,54.0499,-0.014501
23.510,54.0499,-0.015710
23.526,54.0499,-0.012084
23.543,54.0499,-0.010876
23.559,54.0499,-0.010876
23.575,54.0499,-0.012084
23.590,54.0499,-0.016918
23.606,54.0499,-0.013293
23.623,54.0499,-0.013293
23.638,54.0499,-0.010876
23.653,54.0499,-0.013293
23.671,54.0499,-0.013293
23.686,54.0499,-0.019335
23.702,54.0499,-0.013293
23.718,54.0499,-0.014501
23.735,54.0499,-0.008459
23.751,54.0499,0.000000
23.768,54.0499,-0.014501
23.782,54.0499,-0.015710
23.799,54.0499,-0.015710
23.815,54.0499,-0.013293
23.830,54.0499,-0.013293
23.846,54.0499,-0.015710
23.869,54.0499,-0.014501
23.895,54.0499,-0.013293
23.910,54.0499,-0.010876
23.928,54.0499,-0.013293
23.942,54.0499,-0.013293
23.958,54.0499,-0.006042
23.978,54.0499,-0.007251
23.990,54.0499,-0.014501
24.007,54.0499,-0.012084
24.022,54.0499,-0.013293
24.039,54.0499,-0.013293
24.054,54.0499,-0.014501
24.070,54.0499,-0.018127
24.086,54.0499,-0.013293
24.102,54.0499,-0.013293
24.119,54.0499,-0.020544
24.135,54.0499,-0.016918
24.162,54.0499,-0.012084
24.178,54.0499,-0.009668
24.194,54.0499,-0.008459
24.210,54.0499,-0.008459
24.227,54.0499,-0.013293
24.243,54.0499,-0.016918
24.261,54.0499,-0.016918
24.274,54.0499,-0.007251
24.291,54.0499,-0.015710
24.308,54.0499,-0.015710
24.322,54.0499,-0.014501
24.338,54.0499,-0.014501
24.355,54.0499,-0.020544
24.370,54.0499,-0.022961
24.386,54.0499,-0.013293
24.402,54.0499,-0.010876
24.418,54.0499,-0.010876
24.434,54.0499,-0.008459
24.450,54.0499,-0.010876
24.475,54.0499,-0.018127
24.496,54.0499,-0.014501
24.514,54.0499,-0.013293
24.531,54.0499,-0.010876
24.547,54.0499,-0.010876
24.562,54.0499,-0.019335
24.578,54.0499,-0.016918
24.596,54.0499,-0.016918
24.610,54.0499,-0.014501
24.626,54.0499,-0.009668
24.643,54.0499,-0.012084
24.657,54.0499,-0.012084
24.675,54.0499,-0.015710
24.691,54.0499,-0.012084
24.715,54.0499,-0.012084
24.731,54.0499,-0.010876
24.747,54.0499,-0.016918
24.762,54.0499,-0.015710
24.780,53.9755,0.030211
24.795,53.8505,0.097884
24.811,53.7110,0.008459
24.827,53.5739,0.007251
24.846,53.3990,0.024169
24.859,53.2949,0.056797
24.874,53.1595,0.066465
24.891,53.0242,0.093050
24.908,52.8753,0.093050
24.922,52.7478,0.119636
24.940,52.5996,0.124470
24.955,52.4677,0.140180
24.970,52.3281,0.146222
24.987,52.1964,0.165557
25.002,52.0611,0.182476
25.019,51.9137,0.182476
25.035,51.7751,0.175225
25.051,51.6398,0.175225
25.066,51.5097,0.134138
25.083,51.3693,0.030211
25.098,51.2322,0.012084
25.114,51.0962,0.007251
25.132,50.9436,0.007251
25.146,50.8205,0.004834
25.163,50.6773,0.006042
25.178,50.5448,0.003625
25.196,50.3966,0.007251
25.211,50.2656,0.007251
25.227,50.1268,0.007251
25.242,49.9934,0.008459
25.267,49.7840,0.003625
25.281,49.6564,0.003625
25.297,49.5195,0.003625
25.313,49.3824,0.004834
25.330,49.2343,0.004834
25.345,49.1008,0.000000
25.361,48.9672,0.002417
25.377,48.8310,0.001208
25.393,48.6889,-0.001208
25.410,48.5511,-0.001208
25.425,48.4175,0.001208
25.441,48.2797,0.004834
25.457,48.1392,0.001208
25.473,48.0100,-0.001208
25.489,47.9999,-0.099093
25.506,47.9999,0.003625
25.522,47.9999,-0.010876
25.538,47.9999,-0.010876
25.553,47.9999,0.000000
25.570,47.9999,0.000000
25.586,47.9999,0.000000
25.604,47.9999,0.004834
25.617,47.9999,0.000000
25.634,47.9999,-0.001208
25.650,47.9999,-0.002417
25.667,47.9999,-0.001208
25.682,47.9999,0.003625
25.698,47.9999,0.003625
25.714,47.9999,0.002417
25.729,47.9999,0.001208
25.746,47.9999,0.009668
25.761,47.9999,0.004834
25.777,47.9999,0.001208
25.800,47.9999,-0.002417
25.816,47.9999,0.006042
25.833,47.9999,0.000000
25.848,47.9999,-0.003625
25.865,47.9999,0.007251
25.880,47.9999,0.007251
25.898,47.9999,0.002417
25.913,48.0571,-0.088217
25.928,48.1838,-0.088217
25.944,48.3199,0.013293
25.960,48.4578,-0.009668
25.976,48.5956,0.008459
25.993,48.7369,0.007251
26.008,48.8704,0.007251
26.027,49.0333,0.001208
26.040,49.1470,-0.007251
26.056,49.2900,0.000000
26.072,49.4219,0.007251
26.088,49.5640,0.004834
26.105,49.7028,0.008459
26.120,49.8397,0.002417
26.136,49.9750,0.000000
26.153,50.1189,0.003625
26.169,50.2584,0.001208
26.185,50.3963,0.006042
26.201,50.5324,-0.001208
26.216,50.6659,-0.002417
26.232,50.8030,-0.001208
26.248,50.9373,-0.001208
26.266,51.0907,-0.008459
26.281,51.2217,-0.004834
26.298,51.3716,-0.001208
26.322,51.5740,-0.001208
26.338,51.7196,0.001208
26.354,51.8541,-0.007251
26.370,51.9885,-0.002417
26.387,52.1392,-0.003625
26.402,52.2684,-0.003625
26.418,52.4055,-0.003625
26.434,52.5398,-0.013293
26.450,52.6777,-0.013293
26.466,52.8190,-0.012084
26.481,52.9526,-0.021752
26.498,53.0912,-0.021752
26.514,53.2335,-0.016918
26.530,53.3678,-0.022961
26.546,53.5040,-0.024169
26.563,53.6487,-0.031420
26.578,53.7849,-0.038670
26.594,53.9235,-0.043504
26.610,53.9999,0.053172
26.628,53.9999,0.053172
26.642,53.9999,-0.048338
26.658,53.9999,-0.037462
26.674,53.9999,-0.047129
26.691,53.9999,-0.045921
26.707,53.9999,-0.039879
26.723,53.9999,-0.033837
26.738,53.9999,-0.047129
26.754,53.9999,-0.038670
26.770,53.9999,-0.035045
26.788,53.9999,-0.035045
26.801,53.9999,-0.033837
26.819,53.9999,-0.033837
26.834,53.9999,-0.030211
26.851,53.9999,-0.033837
26.875,53.9999,-0.030211
26.891,53.9999,-0.026586
26.907,53.9999,-0.032628
26.923,53.9999,-0.029003
26.942,53.9999,-0.033837
26.955,53.9999,-0.029003
26.971,53.9999,-0.035045
26.987,53.9999,-0.032628
27.003,53.9999,-0.029003
27.019,53.9999,-0.024169
27.035,53.9999,-0.021752
27.051,53.9999,-0.024169
27.067,53.9999,-0.024169
27.083,53.9999,-0.030211
27.098,53.9999,-0.024169
27.114,53.9999,-0.026586
27.130,53.9999,-0.026586
27.146,53.9999,-0.022961
27.163,53.9999,-0.027794
27.179,53.9999,-0.027794
27.195,53.9999,-0.024169
27.210,53.9999,-0.027794
27.229,53.9999,-0.025377
27.243,53.9999,-0.022961
27.258,53.9999,-0.024169
27.274,53.9999,-0.016918
27.291,53.9999,-0.020544
27.307,53.9999,-0.020544
27.323,53.9999,-0.021752
27.338,53.9999,-0.026586
27.355,53.9999,-0.026586
27.371,53.9999,-0.020544
27.388,53.9999,-0.018127
27.416,53.9999,-0.019335
27.433,53.9999,-0.022961
27.448,53.9999,-0.020544
27.464,53.9999,-0.019335
27.481,53.9999,-0.019335
27.496,53.9999,-0.020544
27.513,53.9999,-0.020544
27.529,53.9999,-0.024169
27.545,53.9999,-0.022961
27.561,53.9999,-0.022961
27.580,53.9999,-0.022961
27.592,53.9999,-0.027794
27.608,53.9999,-0.021752
27.625,53.9999,-0.018127
27.640,53.9999,-0.018127
27.656,53.9999,-0.024169
27.673,53.9999,-0.022961
27.688,53.9999,-0.022961
27.704,53.9999,-0.020544
27.721,53.9999,-0.015710
27.736,53.9999,-0.018127
27.752,53.9999,-0.024169
27.768,53.9999,-0.019335
27.785,53.9999,-0.020544
27.800,53.9999,-0.020544
27.816,53.9999,-0.026586
27.832,53.9999,-0.018127
27.848,53.9999,-0.018127
27.865,53.9999,-0.019335
27.880,53.9999,-0.019335
27.896,53.9999,-0.015710
27.913,53.9999,-0.022961
27.928,53.9999,-0.022961
27.944,53.9999,-0.015710
27.972,53.9999,-0.018127
27.988,53.9999,-0.018127
28.004,53.9999,-0.022961
28.020,53.9999,-0.021752
28.037,53.9999,-0.021752
28.052,53.9999,-0.019335
28.069,53.9999,-0.025377
28.084,53.9999,-0.019335
28.100,53.9999,-0.019335
28.117,53.9999,-0.022961
28.133,53.9999,-0.024169
28.148,53.9999,-0.015710
28.169,53.9999,-0.015710
28.180,53.9999,-0.018127
28.196,53.9999,-0.018127
28.214,53.9999,-0.010876
28.228,53.9999,-0.015710
28.245,53.9999,-0.021752
28.260,53.9999,-0.019335
28.278,53.9999,-0.021752
28.292,53.9999,-0.022961
28.308,53.9999,-0.024169
28.324,53.9999,-0.018127
28.345,53.9999,-0.018127
28.356,53.9999,-0.016918
28.373,53.9999,-0.020544
28.388,53.9999,-0.016918
28.404,53.9999,-0.018127
28.420,53.9999,-0.015710
28.436,53.9999,-0.019335
28.452,53.9999,-0.019335
28.468,53.9999,-0.015710
28.484,53.9999,-0.025377
28.500,53.9999,-0.021752
28.524,53.9999,-0.015710
28.540,53.9999,-0.019335
28.556,53.9999,-0.018127
28.572,53.9999,-0.021752
28.593,53.9999,-0.018127
28.604,53.9999,-0.021752
28.620,53.9999,-0.021752
28.637,53.9999,-0.022961
28.652,53.9999,-0.021752
28.668,53.9999,-0.018127
28.685,53.9999,-0.019335
28.700,53.9999,-0.018127
28.716,53.9999,-0.020544
28.732,53.9999,-0.019335
28.751,53.9999,-0.016918
28.764,53.9999,-0.018127
28.780,53.9999,-0.020544
28.796,53.9999,-0.016918
28.813,53.9999,-0.021752
28.828,53.9999,-0.021752
28.847,53.9999,-0.022961
28.861,53.9999,-0.024169
28.877,53.9999,-0.026586
28.892,53.9999,-0.018127
28.909,53.9999,-0.015710
28.924,53.9999,-0.013293
28.940,53.9999,-0.015710
28.957,53.9999,-0.020544
28.972,53.9999,-0.015710
28.989,53.9999,-0.014501
29.004,53.9999,-0.013293
29.021,53.9999,-0.016918
29.036,53.9999,-0.024169
29.052,53.9999,-0.021752
29.068,53.9999,-0.018127
29.083,53.9999,-0.015710
29.099,53.9999,-0.013293
29.116,53.9999,-0.019335
29.132,53.9999,-0.019335
29.150,53.9999,-0.018127
29.165,53.9999,-0.014501
29.180,53.9999,-0.022961
29.196,53.9999,-0.019335
29.212,53.9999,-0.015710
29.228,53.9999,-0.015710
29.243,53.9999,-0.014501
29.260,53.9999,-0.014501
29.276,53.9999,-0.019335
29.292,53.9999,-0.019335
29.308,53.9999,-0.019335
29.323,53.9999,-0.012084
29.339,53.9999,-0.012084
29.356,53.9999,-0.019335
29.371,53.9999,-0.015710
29.388,53.9999,-0.010876
29.403,53.9999,-0.012084
29.420,53.9999,-0.020544
29.435,53.9999,-0.016918
29.452,53.9999,-0.019335
29.467,53.9999,-0.020544
29.484,53.9999,-0.019335
29.499,53.9999,-0.018127
29.519,53.9999,-0.022961
29.531,53.9999,-0.021752
29.547,53.9999,-0.019335
29.563,53.9999,-0.015710
29.582,53.9999,-0.019335
29.595,53.9999,-0.022961
29.612,53.9999,-0.016918
29.628,53.9999,-0.014501
29.649,53.9999,-0.019335
29.665,53.9999,-0.018127
29.681,53.9999,-0.019335
29.697,53.9999,-0.020544
29.714,53.9999,-0.016918
29.730,53.9999,-0.021752
29.745,53.9999,-0.018127
29.762,53.9999,-0.018127
29.781,53.9999,-0.015710
29.793,53.9999,-0.014501
29.809,53.9999,-0.014501
29.825,53.9999,-0.015710
29.841,53.9999,-0.013293
29.857,53.9999,-0.016918
29.875,53.9999,-0.016918
29.890,53.9999,-0.016918
29.906,53.9999,-0.012084
29.921,53.9999,-0.015710
29.937,53.9999,-0.019335
29.954,53.9999,-0.018127
29.973,53.9999,-0.021752
29.985,53.9999,-0.020544
30.002,53.9999,-0.012084
30.018,53.9999,-0.012084
30.033,53.9999,-0.016918
30.053,53.9999,-0.012084
30.066,53.9999,-0.016918
30.082,53.9999,-0.019335
30.097,53.9999,-0.016918
30.115,53.9999,-0.021752
30.129,53.9999,-0.009668
30.145,53.9999,-0.012084
30.161,53.9999,-0.015710
30.182,53.9999,-0.018127
30.198,53.9999,-0.015710
30.215,53.9999,-0.020544
30.230,53.9999,-0.016918
30.247,53.9999,-0.014501
30.262,53.9999,-0.013293
30.279,53.9999,-0.013293
30.294,53.9999,-0.018127
30.310,53.9999,-0.018127
30.327,53.9999,-0.016918
30.342,53.9999,-0.016918
30.359,53.9999,-0.014501
30.374,53.9999,-0.018127
30.390,53.9999,-0.016918
30.406,53.9999,-0.020544
30.425,53.9999,-0.018127
30.438,53.9999,-0.014501
30.454,53.9999,-0.015710
30.470,53.9999,-0.015710
30.489,53.9999,-0.019335
30.502,53.9999,-0.018127
30.518,53.9999,-0.018127
30.534,53.9999,-0.018127
30.551,53.9999,-0.018127
30.566,53.9999,-0.016918
30.583,53.9999,-0.008459
30.598,53.9999,-0.013293
30.616,53.9999,-0.014501
30.631,53.9999,-0.013293
30.647,53.9999,-0.014501
30.662,53.9999,-0.022961
30.679,53.9999,-0.022961
30.695,53.9999,-0.019335
30.710,53.9999,-0.015710
30.735,53.9999,-0.016918
30.750,53.9999,-0.020544
30.766,53.9999,-0.024169
30.782,53.9999,-0.020544
30.798,53.9999,-0.014501
30.814,53.9999,-0.019335
30.830,53.9999,-0.016918
30.846,53.9999,-0.009668
30.862,53.9999,-0.016918
30.878,53.9999,-0.018127
30.894,53.9999,-0.015710
30.913,53.9999,-0.015710
30.926,53.9999,-0.010876
30.942,53.9999,-0.014501
30.958,53.9999,-0.015710
30.978,53.9999,-0.015710
30.995,53.9999,-0.014501
31.005,53.9999,-0.013293
31.022,53.9999,-0.012084
31.039,53.9999,-0.013293
31.054,53.9999,-0.014501
31.070,53.9999,-0.014501
31.086,53.9999,-0.019335
31.104,53.9999,-0.016918
31.118,53.9999,-0.016918
31.134,53.9999,-0.019335
31.150,53.9999,-0.016918
31.168,53.9999,-0.018127
31.182,53.9999,-0.015710
31.198,53.9999,-0.012084
31.216,53.9999,-0.015710
31.230,53.9999,-0.015710
31.246,53.9999,-0.014501
31.262,53.9999,-0.019335
31.286,53.9999,-0.014501
31.302,53.9999,-0.013293
31.317,53.9999,-0.014501
31.333,53.9999,-0.016918
31.351,53.9999,-0.015710
31.365,53.9999,-0.015710
31.381,53.9999,-0.013293
31.397,53.9999,-0.014501
31.418,53.9999,-0.014501
31.430,53.9999,-0.014501
31.445,53.9999,-0.013293
31.461,53.9999,-0.013293
31.479,53.9999,-0.012084
31.495,53.9999,-0.013293
31.512,53.9999,-0.013293
31.525,53.9999,-0.015710
31.542,53.9999,-0.015710
31.557,53.9999,-0.014501
31.573,53.9999,-0.016918
31.590,53.9999,-0.016918
31.605,53.9999,-0.018127
31.622,53.9999,-0.012084
31.637,53.9999,-0.007251
31.653,53.9999,-0.004834
31.670,53.9999,-0.015710
31.685,53.9999,-0.012084
31.701,53.9999,-0.016918
31.718,53.9999,-0.016918
31.734,53.9999,-0.013293
31.750,53.9999,-0.016918
31.765,53.9999,-0.021752
31.782,53.9999,-0.019335
31.798,53.9999,-0.019335
31.814,53.9999,-0.019335
31.829,53.9999,-0.016918
31.846,53.9999,-0.013293
31.862,53.9999,-0.010876
31.877,53.9999,-0.012084
31.893,53.9999,-0.016918
31.910,53.9999,-0.016918
31.926,53.9999,-0.015710
31.943,53.9999,-0.019335
31.957,53.9999,-0.019335
31.974,53.9999,-0.014501
31.989,53.9999,-0.014501
32.005,53.9999,-0.019335
32.021,53.9999,-0.013293
32.038,53.9999,-0.013293
32.053,53.9999,-0.018127
32.069,53.9999,-0.012084
32.086,53.9999,-0.008459
32.102,53.9999,-0.014501
32.118,53.9999,-0.016918
32.133,53.9999,-0.013293
32.150,53.9999,-0.013293
32.165,53.9999,-0.020544
32.181,53.9999,-0.016918
32.197,53.9999,-0.018127
32.214,53.9999,-0.019335
32.230,53.9999,-0.013293
32.246,53.9999,-0.015710
32.261,53.9999,-0.015710
32.278,53.9999,-0.015710
32.293,53.9999,-0.018127
32.311,53.9999,-0.018127
32.325,53.9999,-0.010876
32.341,53.9999,-0.016918
32.357,53.9999,-0.014501
32.374,53.9999,-0.015710
32.395,53.9999,-0.014501
32.411,53.9999,-0.014501
32.427,53.9999,-0.009668
32.443,53.9999,-0.016918
32.461,53.9999,-0.010876
32.475,53.9999,-0.014501
32.492,53.9999,-0.014501
32.508,53.9999,-0.014501
32.523,53.9999,-0.020544
32.540,53.9999,-0.018127
32.555,53.9999,-0.016918
32.572,53.9999,-0.009668
32.587,53.9999,-0.019335
32.603,53.9999,-0.019335
32.619,53.9999,-0.013293
32.636,53.9999,-0.015710
32.651,53.9999,-0.014501
32.668,53.9999,-0.015710
32.683,53.9999,-0.016918
32.699,53.9999,-0.013293
32.715,53.9999,-0.014501
32.731,53.9999,-0.013293
32.755,53.9999,-0.018127
32.767,53.9999,-0.014501
32.779,53.9999,-0.013293
32.796,53.9999,-0.014501
32.811,53.9999,-0.019335
32.828,53.9999,-0.015710
32.843,53.9999,-0.015710
32.859,53.9999,-0.016918
32.875,53.9999,-0.015710
32.891,53.9999,-0.014501
32.907,53.9999,-0.014501
32.923,53.9999,-0.013293
32.939,53.9999,-0.019335
32.955,53.9999,-0.020544
32.971,53.9999,-0.019335
32.987,53.9999,-0.021752
33.003,53.9999,-0.010876
33.020,53.9999,-0.012084
33.038,53.9999,-0.012084
33.051,53.9999,-0.019335
33.067,53.9999,-0.016918
33.083,53.9999,-0.018127
33.099,53.9999,-0.018127
33.115,53.9999,-0.013293
33.131,53.9999,-0.015710
33.147,53.9999,-0.015710
33.163,53.9999,-0.018127
33.179,53.9999,-0.018127
33.195,53.9999,-0.018127
33.211,53.9999,-0.016918
33.227,53.9999,-0.013293
33.244,53.9999,-0.018127
33.260,53.9999,-0.015710
33.276,53.9999,-0.013293
33.291,53.9999,-0.013293
33.309,53.9999,-0.013293
33.323,53.9999,-0.016918
33.339,53.9999,-0.015710
33.355,53.9999,-0.016918
33.371,53.9999,-0.014501
33.388,53.9999,-0.018127
33.403,53.9999,-0.019335
33.419,53.9999,-0.016918
33.435,53.9999,-0.019335
33.451,53.9999,-0.024169
33.467,53.9999,-0.010876
33.495,53.9999,-0.015710
33.511,53.9999,-0.015710
33.527,53.9999,-0.025377
33.543,53.9999,-0.015710
33.561,53.9999,-0.015710
33.576,53.9999,-0.018127
33.591,53.9999,-0.009668
33.606,53.9999,-0.008459
33.623,53.9999,-0.013293
33.640,53.9999,-0.015710
33.654,53.9999,-0.019335
33.671,53.9999,-0.012084
33.692,53.9999,-0.012084
33.703,53.9999,-0.014501
33.718,53.9999,-0.019335
33.736,53.9999,-0.016918
33.750,53.9999,-0.016918
33.767,53.9999,-0.015710
33.783,53.9999,-0.013293
33.800,53.9999,-0.013293
33.815,53.9999,-0.016918
33.831,53.9999,-0.014501
33.847,53.9999,-0.014501
33.863,53.9999,-0.013293
33.879,53.9999,-0.010876
33.894,53.9999,-0.010876
33.910,53.9999,-0.016918
33.927,53.9999,-0.016918
33.942,53.9999,-0.019335
33.958,53.9999,-0.018127
33.975,53.9999,-0.013293
33.991,53.9999,-0.013293
34.007,53.9999,-0.016918
34.023,53.9999,-0.014501
34.049,53.9999,-0.014501
34.065,53.9999,-0.016918
34.081,53.9999,-0.016918
34.097,53.9999,-0.010876
34.114,53.9999,-0.015710
34.130,53.9999,-0.018127
34.148,53.9999,-0.018127
34.161,53.9999,-0.015710
34.178,53.9999,-0.012084
34.193,53.9999,-0.020544
34.209,53.9999,-0.020544
34.225,53.9999,-0.013293
34.242,53.9999,-0.010876
34.258,53.9999,-0.008459
34.277,53.9999,-0.014501
34.289,53.9999,-0.014501
34.305,53.9999,-0.019335
34.321,53.9999,-0.015710
34.337,53.9999,-0.007251
34.354,53.9999,-0.014501
34.369,53.9999,-0.018127
34.385,53.9999,-0.013293
34.401,53.9999,-0.014501
34.418,53.9999,-0.019335
34.434,53.9999,-0.018127
34.449,53.9999,-0.014501
34.465,53.9999,-0.013293
34.482,53.9999,-0.010876
34.498,53.9999,-0.014501
34.514,53.9999,-0.014501
34.529,53.9999,-0.014501
34.547,53.9999,-0.019335
34.562,53.9999,-0.018127
34.578,53.9999,-0.018127
34.593,53.9999,-0.008459
34.609,53.9999,-0.008459
34.626,53.9999,-0.012084
34.641,53.9999,-0.012084
34.657,53.9999,-0.019335
34.674,53.9999,-0.016918
34.692,53.9999,-0.016918
34.707,53.9999,-0.012084
34.721,53.9999,-0.010876
34.737,53.9999,-0.007251
34.753,53.9999,-0.020544
34.769,53.9999,-0.015710
34.785,53.9999,-0.015710
34.802,53.9999,-0.015710
34.817,53.9999,-0.018127
34.834,53.9999,-0.013293
34.849,53.9999,-0.012084
34.867,53.9999,-0.012084
34.881,53.9999,-0.018127
34.897,53.9999,-0.012084
34.913,53.9999,-0.014501
34.930,53.9999,-0.014501
34.945,53.9999,-0.013293
34.961,53.9999,-0.007251
34.977,53.9999,-0.010876
34.994,53.9999,-0.016918
35.009,53.9999,-0.016918
35.027,53.9999,-0.014501
35.041,53.9999,-0.014501
35.058,53.9999,-0.015710
35.073,53.9999,-0.010876
35.089,53.9999,-0.003625
35.104,53.9999,-0.019335
35.131,53.9999,-0.014501
35.147,53.9999,-0.015710
35.164,53.9999,-0.019335
35.180,53.9999,-0.019335
35.195,53.9999,-0.014501
35.211,53.9999,-0.010876
35.227,53.9999,-0.013293
35.243,53.9999,-0.018127
35.259,53.9999,-0.018127
35.277,53.9999,-0.016918
35.291,53.9999,-0.013293
35.307,53.9999,-0.013293
35.323,53.9999,-0.014501
35.339,53.9999,-0.014501
35.355,53.9999,-0.013293
35.371,53.9999,-0.019335
35.387,53.9999,-0.016918
35.403,53.9999,-0.009668
35.419,53.9999,-0.010876
35.435,53.9999,-0.014501
35.451,53.9999,-0.018127
35.467,53.9999,-0.018127
35.486,53.9999,-0.014501
35.498,53.9999,-0.010876
35.515,53.9999,-0.016918
35.530,53.9999,-0.015710
35.549,53.9999,-0.015710
35.563,53.9999,-0.009668
35.578,53.9999,-0.009668
35.594,53.9999,-0.008459
35.610,53.9999,-0.008459
35.626,53.9999,-0.018127
35.642,53.9999,-0.018127
35.659,53.9999,-0.012084
35.674,53.9999,-0.015710
35.690,53.9999,-0.016918
35.708,53.9999,-0.016918
35.723,53.9999,-0.015710
35.739,53.9999,-0.015710
35.755,53.9999,-0.012084
35.771,53.9999,-0.012084
35.786,53.9999,-0.012084
35.802,53.9999,-0.012084
35.819,53.9999,-0.015710
35.835,53.9999,-0.013293
35.851,53.9999,-0.013293
35.867,53.9999,-0.008459
35.882,53.9999,-0.013293
35.899,53.9999,-0.013293
35.914,53.9999,-0.015710
35.930,53.9999,-0.015710
35.946,53.9999,-0.013293
35.964,53.9999,-0.008459
35.979,53.9999,-0.013293
35.994,53.9999,-0.020544
36.010,53.9999,-0.021752
36.032,53.9999,-0.013293
36.043,53.9999,-0.013293
36.058,53.9999,-0.015710
36.075,53.9999,-0.014501
36.091,53.9999,-0.010876
36.107,53.9999,-0.015710
36.123,53.9999,-0.015710
36.138,53.9999,-0.012084
36.158,53.9999,-0.016918
36.171,53.9999,-0.010876
36.187,53.9999,-0.010876
36.202,53.9999,-0.010876
36.224,53.9999,-0.009668
36.241,53.9999,-0.018127
36.257,53.9999,-0.016918
36.272,53.9999,-0.016918
36.289,53.9999,-0.013293
36.305,53.9999,-0.010876
36.320,53.9999,-0.018127
36.336,53.9999,-0.008459
36.354,53.9999,-0.010876
36.369,53.9999,-0.010876
36.385,53.9999,-0.019335
36.401,53.9999,-0.015710
36.417,53.9999,-0.012084
36.433,53.9999,-0.015710
36.448,53.9999,-0.015710
36.465,53.9999,-0.010876
36.481,53.9999,-0.015710
36.496,53.9999,-0.012084
36.514,53.9999,-0.015710
36.528,53.9999,-0.015710
36.545,53.9999,-0.012084
36.564,53.9999,-0.012084
36.577,53.9999,-0.016918
36.592,53.9999,-0.015710
36.608,53.9999,-0.015710
36.630,53.9999,-0.012084
36.641,53.9999,-0.010876
36.657,53.9999,-0.008459
36.673,53.9999,-0.012084
36.689,53.9999,-0.008459
36.704,53.9999,-0.009668
36.720,53.9999,-0.010876
36.751,53.9999,-0.016918
36.766,53.9999,-0.012084
36.782,53.9999,-0.013293
36.798,53.9999,-0.015710
36.818,53.9999,-0.015710
36.830,53.9999,-0.021752
36.846,53.9999,-0.015710
36.862,53.9999,-0.009668
36.879,53.9999,-0.006042
36.894,53.9999,-0.008459
36.910,53.9999,-0.010876
36.927,53.9999,-0.014501
36.942,53.9999,-0.009668
36.958,53.9999,-0.014501
36.974,53.9999,-0.019335
36.990,53.9999,-0.019335
37.006,53.9999,-0.012084
37.022,53.9999,-0.010876
37.038,53.9999,-0.010876
37.054,53.9999,-0.019335
37.070,53.9999,-0.019335
37.086,53.9999,-0.014501
37.106,53.9999,-0.013293
37.119,53.9999,-0.015710
37.134,53.9999,-0.018127
37.153,53.9999,-0.020544
37.167,53.9999,-0.014501
37.182,53.9999,-0.014501
37.198,53.9999,-0.018127
37.214,53.9999,-0.016918
37.231,53.9999,-0.014501
37.247,53.9999,-0.014501
37.262,53.9999,-0.016918
37.291,53.9999,-0.013293
37.310,53.9999,-0.010876
37.322,53.9999,-0.012084
37.338,53.9999,-0.015710
37.354,53.9999,-0.012084
37.370,53.9999,-0.013293
37.387,53.9999,-0.010876
37.402,53.9999,-0.010876
37.418,53.9999,-0.010876
37.434,53.9999,-0.015710
37.450,53.9999,-0.015710
37.466,53.9999,-0.012084
37.482,53.9999,-0.010876
37.498,53.9999,-0.013293
37.514,53.9999,-0.014501
37.530,53.9999,-0.014501
37.546,53.9999,-0.010876
37.562,53.9999,-0.014501
37.578,53.9999,-0.010876
37.594,53.9999,-0.012084
37.610,53.9999,-0.015710
37.626,53.9999,-0.018127
37.642,53.9999,-0.019335
37.658,53.9999,-0.008459
37.674,53.9999,-0.012084
37.690,53.9999,-0.006042
37.706,53.9999,-0.014501
37.722,53.9999,-0.018127
37.738,53.9999,-0.018127
37.753,53.9999,-0.010876
37.770,53.9999,-0.010876
37.786,53.9999,-0.014501
37.801,53.9999,-0.012084
37.825,53.9999,-0.013293
37.841,53.9999,-0.012084
37.856,53.9999,-0.008459
37.872,53.9999,-0.012084
37.889,53.9999,-0.019335
37.905,53.9999,-0.018127
37.920,53.9999,-0.008459
37.937,53.9999,-0.010876
37.953,53.9999,-0.009668
37.969,53.9999,-0.014501
37.985,53.9999,-0.012084
38.000,53.9999,-0.010876
38.016,53.9999,-0.008459
38.033,53.9999,-0.014501
38.049,53.9999,-0.013293
38.065,53.9999,-0.010876
38.080,53.9999,-0.009668
38.097,53.9999,-0.014501
38.112,53.9999,-0.018127
38.128,53.9999,-0.018127
38.144,53.9999,-0.015710
38.160,53.9999,-0.016918
38.177,53.9999,-0.012084
38.194,53.9999,-0.016918
38.209,53.9999,-0.016918
38.226,53.9999,-0.009668
38.242,53.9683,0.065256
38.257,53.8337,0.065256
38.273,53.7023,0.018127
38.288,53.5640,0.018127
38.304,53.4212,0.032628
38.321,53.2828,0.060422
38.337,53.1437,0.070090
38.352,53.0087,0.087008
38.369,52.8634,0.087008
38.384,52.7277,0.117219
38.400,52.5902,0.128095
38.416,52.4519,0.152264
38.432,52.3074,0.170391
38.448,52.1707,0.165557
38.464,52.0350,0.180059
38.480,51.8949,0.184892
38.496,51.7547,0.187309
38.513,51.6112,0.170391
38.528,51.4789,0.154681
38.544,51.3389,0.051963
38.560,51.1987,0.029003
38.576,51.0586,0.009668
38.592,50.9212,0.008459
38.609,50.7715,0.001208
38.625,50.6357,0.002417
38.640,50.5017,0.003625
38.656,50.3633,0.006042
38.673,50.2180,0.003625
38.688,50.0823,0.006042
38.705,49.9369,-0.001208
38.720,49.8081,0.002417
38.738,49.6506,0.006042
38.752,49.5296,0.001208
38.769,49.3817,-0.001208
38.784,49.2469,-0.001208
38.801,49.1032,0.003625
38.817,48.9657,0.001208
38.834,48.8179,0.000000
38.848,48.6951,0.000000
38.865,48.5480,0.003625
38.880,48.4132,0.003625
38.896,48.2782,0.002417
38.919,48.0746,0.006042
38.935,47.9525,0.006042
38.951,47.9499,-0.105135
38.967,47.9499,-0.016918
38.987,47.9499,-0.001208
38.999,47.9499,-0.006042
39.015,47.9499,0.003625
39.031,47.9499,0.004834
39.047,47.9499,0.006042
39.063,47.9499,0.001208
39.079,47.9499,0.000000
39.095,47.9499,-0.001208
39.111,47.9499,0.008459
39.127,47.9499,0.004834
39.148,47.9499,0.000000
39.161,47.9499,0.002417
39.175,47.9499,0.001208
39.192,47.9499,0.003625
39.213,47.9499,0.003625
39.224,47.9499,0.009668
39.239,47.9499,0.006042
39.255,47.9499,0.000000
39.271,47.9499,0.003625
39.287,47.9499,0.000000
39.303,47.9499,0.001208
39.319,47.9499,-0.001208
39.336,48.0265,-0.089425
39.351,48.1579,0.015710
39.367,48.2962,-0.007251
39.384,48.4476,-0.001208
39.399,48.5817,-0.001208
39.415,48.7175,-0.009668
39.431,48.8523,-0.001208
39.447,48.9916,0.003625
39.463,49.1360,0.003625
39.479,49.2727,-0.003625
39.495,49.4085,-0.001208
39.510,49.5476,-0.002417
39.527,49.6886,-0.001208
39.543,49.8340,0.006042
39.559,49.9653,0.001208
39.578,50.1341,0.001208
39.591,50.2500,-0.007251
39.607,50.3874,-0.002417
39.623,50.5223,-0.009668
39.639,50.6651,0.002417
39.655,50.8060,-0.004834
39.671,50.9444,-0.007251
39.687,51.0835,-0.007251
39.704,51.2315,-0.002417
39.719,51.3595,0.000000
39.735,51.4986,0.000000
39.751,51.6370,0.000000
39.767,51.7798,-0.004834
39.784,51.9241,-0.008459
39.800,52.0608,-0.008459
39.816,52.2097,-0.004834
39.831,52.3349,-0.008459
39.847,52.4785,-0.008459
39.863,52.6109,-0.013293
39.879,52.7552,-0.010876
39.895,52.8893,-0.013293
39.911,53.0276,-0.019335
39.932,53.2139,-0.019335
39.943,53.3131,-0.019335
39.958,53.4462,-0.024169
39.974,53.5846,-0.032628
39.997,53.7847,-0.045921
40.014,53.9251,-0.042296
40.030,53.9499,0.041087
40.045,53.9499,-0.060422
40.061,53.9499,-0.039879
40.078,53.9499,-0.038670
40.094,53.9499,-0.039879
40.110,53.9499,-0.039879
40.126,53.9499,-0.032628
40.142,53.9499,-0.042296
40.157,53.9499,-0.035045
40.175,53.9499,-0.039879
40.190,53.9499,-0.039879
40.206,53.9499,-0.032628
40.221,53.9499,-0.031420
40.237,53.9499,-0.031420
40.254,53.9499,-0.031420
40.269,53.9499,-0.032628
40.287,53.9499,-0.030211
40.301,53.9499,-0.031420
40.317,53.9499,-0.027794
40.333,53.9499,-0.033837
40.350,53.9499,-0.030211
40.366,53.9499,-0.027794
40.381,53.9499,-0.031420
40.398,53.9499,-0.024169
40.414,53.9499,-0.029003
40.430,53.9499,-0.029003
40.445,53.9499,-0.026586
40.462,53.9499,-0.025377
40.478,53.9499,-0.029003
40.494,53.9499,-0.018127
