Elapsed Time (s),Position (mm),Force (N)
-0.012,74.1515,-0.058174
0.096,74.1515,-0.058174
0.207,74.1515,-0.057156
0.317,74.1515,-0.057156
0.427,74.1515,-0.057156
0.536,74.1515,-0.056307
0.645,74.1515,-0.056307
0.755,74.1515,-0.055648
0.862,74.1515,-0.055648
0.972,74.1515,-0.055044
1.082,74.1515,-0.055044
1.192,74.1515,-0.055044
1.302,74.1515,-0.054507
1.410,74.1515,-0.053989
1.518,74.1515,-0.053989
1.628,74.1515,-0.053989
1.738,74.1515,-0.053527
1.847,74.1515,-0.053527
1.955,74.1515,-0.053112
2.065,74.1515,-0.053112
2.175,74.1515,-0.052716
2.283,74.1515,-0.052716
2.390,74.1515,-0.052716
2.500,74.1515,-0.052339
2.610,74.1515,-0.052339
2.719,74.1515,-0.052019
2.829,74.1515,-0.052019
2.939,74.1515,-0.051764
3.048,74.1515,-0.051764
3.157,74.1515,-0.051764
3.266,74.1515,-0.051425
3.377,74.1515,-0.051425
3.486,74.1515,-0.051171
3.594,74.1515,-0.051171
3.703,74.1515,-0.050982
3.812,74.1515,-0.050982
3.921,74.1515,-0.050614
4.029,74.1515,-0.050614
4.137,74.1470,-0.050614
4.247,74.1331,-0.050200
4.355,74.1124,-0.050200
4.465,74.0905,-0.045826
4.574,74.0685,-0.045826
4.681,74.0473,-0.033488
4.790,74.0252,-0.033488
4.899,74.0035,-0.033488
5.009,73.9816,-0.018559
5.119,73.9596,-0.018559
5.228,73.9377,-0.006051
5.338,73.9156,-0.006051
5.448,73.8939,0.005212
5.556,73.8722,0.005212
5.665,73.8503,0.016504
5.775,73.8284,0.016504
5.885,73.8065,0.016504
5.994,73.7846,0.028059
6.103,73.7627,0.028059
6.211,73.7412,0.040039
6.321,73.7193,0.040039
6.431,73.6973,0.052792
6.540,73.6755,0.052792
6.648,73.6537,0.052792
6.756,73.6321,0.066232
6.867,73.6101,0.066232
6.975,73.5884,0.080502
7.084,73.5666,0.080502
7.194,73.5447,0.095658
7.303,73.5230,0.095658
7.412,73.5010,0.095658
7.521,73.4792,0.111898
7.631,73.4573,0.111898
7.742,73.4350,0.129769
7.851,73.4133,0.129769
7.960,73.3916,0.149345
8.068,73.3699,0.149345
8.178,73.3478,0.170798
8.286,73.3263,0.170798
8.396,73.3043,0.170798
8.505,73.2825,0.194446
8.616,73.2604,0.194446
8.724,73.2386,0.220573
8.833,73.2167,0.220573
8.941,73.1953,0.249481
9.052,73.1731,0.249481
9.161,73.1514,0.281593
9.270,73.1294,0.281593
9.378,73.1078,0.281593
9.487,73.0860,0.315987
9.596,73.0642,0.315987
9.704,73.0426,0.351143
9.814,73.0207,0.351143
9.921,72.9993,0.351143
10.031,72.9774,0.382285
10.139,72.9555,0.382285
10.249,72.9336,0.406470
10.360,72.9115,0.406470
10.469,72.8894,0.425170
10.579,72.8676,0.425170
10.688,72.8458,0.436302
10.796,72.8243,0.436302
10.905,72.8025,0.436302
11.014,72.7807,0.436519
11.123,72.7587,0.436519
11.232,72.7371,0.420486
11.341,72.7154,0.420486
11.450,72.6935,0.389363
11.558,72.6719,0.389363
11.667,72.6498,0.332641
11.777,72.6281,0.332641
11.886,72.6062,0.332641
11.995,72.5845,0.155840
12.105,72.5625,0.155840
12.214,72.5407,0.012687
12.323,72.5190,0.012687
12.433,72.4968,0.007173
12.543,72.4750,0.007173
12.651,72.4533,0.007173
12.761,72.4313,0.006522
12.868,72.4097,0.006522
12.977,72.3880,0.006258
13.087,72.3662,0.006258
13.197,72.3439,0.006089
13.306,72.3222,0.006089
13.414,72.3007,0.005957
13.523,72.2789,0.005957
13.631,72.2573,0.005957
13.738,72.2360,0.005853
13.846,72.2141,0.005853
13.955,72.1924,0.005815
14.065,72.1704,0.005815
14.173,72.1489,0.005749
14.281,72.1271,0.005749
14.389,72.1057,0.005749
14.497,72.0840,0.005721
14.607,72.0621,0.005721
14.716,72.0401,0.005721
14.825,72.0184,0.005721
14.935,71.9965,0.005740
15.044,71.9746,0.005740
15.152,71.9531,0.005740
15.263,71.9309,0.005712
15.371,71.9093,0.005712
15.481,71.8872,0.005665
15.591,71.8653,0.005665
15.699,71.8436,0.005702
15.809,71.8217,0.005702
15.917,71.7999,0.005721
16.026,71.7783,0.005721
16.135,71.7565,0.005721
16.244,71.7347,0.005731
16.353,71.7130,0.005731
16.462,71.6910,0.005759
16.572,71.6691,0.005759
16.680,71.6476,0.005768
16.790,71.6255,0.005768
16.898,71.6041,0.005768
17.007,71.5822,0.005759
17.116,71.5603,0.005759
17.223,71.5390,0.005721
17.332,71.5170,0.005721
17.441,71.4954,0.005702
17.548,71.4740,0.005702
17.658,71.4518,0.005731
17.767,71.4302,0.005731
17.876,71.4082,0.005731
17.985,71.3864,0.005740
18.095,71.3645,0.005740
18.205,71.3424,0.005778
18.314,71.3208,0.005778
18.422,71.2992,0.005825
18.531,71.2774,0.005825
18.641,71.2553,0.005825
18.748,71.2337,0.005815
18.858,71.2120,0.005815
18.967,71.1901,0.005815
19.076,71.1682,0.005815
19.186,71.1464,0.005910
19.295,71.1246,0.005910
19.403,71.1088,0.005910
19.510,71.1019,0.005891
19.619,71.1015,0.005891
19.731,71.1015,0.005740
19.840,71.1015,0.005740
19.948,71.1015,0.005636
20.056,71.1023,0.005636
20.167,71.1107,0.005618
20.277,71.1282,0.005618
20.386,71.1500,0.005618
20.494,71.1716,0.005486
20.603,71.1934,0.005486
20.713,71.2155,0.005335
20.823,71.2372,0.005335
20.931,71.2590,0.005316
21.040,71.2806,0.005316
21.149,71.3024,0.005316
21.256,71.3241,0.005278
21.365,71.3457,0.005278
21.474,71.3676,0.005288
21.583,71.3893,0.005288
21.691,71.4110,0.005269
21.800,71.4327,0.005269
21.909,71.4547,0.005212
22.018,71.4763,0.005212
22.128,71.4985,0.005212
22.238,71.5203,0.005146
22.345,71.5418,0.005146
22.454,71.5636,0.005080
22.562,71.5852,0.005080
22.671,71.6070,0.005061
22.781,71.6291,0.005061
22.891,71.6508,0.005061
22.999,71.6725,0.005033
23.108,71.6944,0.005033
23.216,71.7162,0.005005
23.325,71.7378,0.005005
23.434,71.7595,0.004986
23.545,71.7817,0.004986
23.653,71.8034,0.004986
23.762,71.8251,0.004929
23.870,71.8468,0.004929
23.978,71.8684,0.004854
24.087,71.8901,0.004854
24.196,71.9121,0.004826
24.305,71.9337,0.004826
24.415,71.9557,0.004760
24.524,71.9774,0.004760
24.634,71.9995,0.004760
24.741,72.0210,0.004684
24.850,72.0429,0.004684
24.960,72.0646,0.004666
25.069,72.0865,0.004666
25.177,72.1082,0.004590
25.286,72.1299,0.004590
25.394,72.1516,0.004590
25.503,72.1735,0.004543
25.611,72.1950,0.004543
25.721,72.2169,0.004505
25.830,72.2386,0.004505
25.940,72.2606,0.004449
26.049,72.2827,0.004449
26.159,72.3045,0.004402
26.269,72.3265,0.004402
26.379,72.3486,0.004402
26.486,72.3699,0.004336
26.596,72.3921,0.004336
26.704,72.4134,0.004326
26.812,72.4350,0.004326
26.922,72.4570,0.004345
27.031,72.4789,0.004345
27.140,72.5008,0.004345
27.249,72.5226,0.004260
27.360,72.5447,0.004260
27.467,72.5662,0.004138
27.575,72.5878,0.004138
27.684,72.6096,0.004138
27.793,72.6313,0.004072
27.901,72.6529,0.004072
28.011,72.6749,0.003968
28.119,72.6967,0.003968
28.229,72.7184,0.003883
28.338,72.7402,0.003883
28.446,72.7618,0.003836
28.555,72.7837,0.003836
28.664,72.8056,0.003704
28.774,72.8276,0.003704
28.885,72.8496,0.003704
28.994,72.8717,0.003553
29.103,72.8933,0.003553
29.212,72.9150,0.003431
29.321,72.9368,0.003431
29.430,72.9586,0.003233
29.540,72.9808,0.003233
29.651,73.0028,0.003233
29.759,73.0245,0.003026
29.868,73.0463,0.003026
29.976,73.0679,0.002818
30.085,73.0897,0.002818
30.195,73.1118,0.002498
30.306,73.1339,0.002498
30.415,73.1557,0.002149
30.524,73.1774,0.002149
30.632,73.1991,0.002149
30.743,73.2213,0.001791
30.852,73.2430,0.001791
30.961,73.2649,0.001254
31.069,73.2866,0.001254
31.178,73.3081,0.000528
31.288,73.3305,0.000528
31.398,73.3523,0.000528
31.508,73.3742,-0.000358
31.614,73.3956,-0.000358
31.723,73.4172,-0.001527
31.832,73.4391,-0.001527
31.941,73.4608,-0.003073
32.050,73.4825,-0.003073
32.159,73.5046,-0.004929
32.268,73.5262,-0.004929
32.377,73.5481,-0.004929
32.486,73.5698,-0.007229
32.594,73.5915,-0.007229
32.703,73.6134,-0.010113
32.811,73.6349,-0.010113
32.921,73.6569,-0.013412
33.032,73.6790,-0.013412
33.141,73.7009,-0.013412
33.250,73.7228,-0.017145
33.359,73.7445,-0.017145
33.467,73.7662,-0.021320
33.576,73.7880,-0.021320
33.685,73.8097,-0.021320
33.795,73.8318,-0.025637
33.904,73.8534,-0.025637
34.012,73.8751,-0.030171
34.121,73.8969,-0.030171
34.231,73.9188,-0.030171
34.340,73.9408,-0.034780
34.449,73.9625,-0.039577
34.557,73.9841,-0.039577
34.665,74.0057,-0.044676
34.775,74.0276,-0.044676
34.883,74.0492,-0.044676
34.992,74.0710,-0.049945
35.101,74.0899,-0.049945
35.210,74.0998,-0.055403
35.319,74.1015,-0.055403
35.428,74.1015,-0.058899
35.536,74.1015,-0.058899
35.646,74.1015,-0.058899
35.756,74.1015,-0.058928
35.866,74.1015,-0.058928
35.977,74.1015,-0.057731
36.085,74.1015,-0.057731
36.193,74.1015,-0.056826
36.301,74.1015,-0.056826
36.410,74.1015,-0.056072
36.519,74.1015,-0.056072
36.628,74.1015,-0.056072
36.737,74.1015,-0.055440
36.847,74.1015,-0.055440
36.957,74.1015,-0.054828
37.066,74.1015,-0.054828
37.174,74.1015,-0.054366
37.285,74.1015,-0.054366
37.395,74.1015,-0.054366
37.504,74.1015,-0.053894
37.611,74.1015,-0.053894
37.719,74.1015,-0.053395
37.827,74.1015,-0.053395
37.936,74.1015,-0.053008
38.045,74.1015,-0.053008
38.156,74.1015,-0.052584
38.266,74.1015,-0.052584
38.376,74.1015,-0.052584
38.486,74.1015,-0.052207
38.596,74.1015,-0.052207
38.706,74.1015,-0.051925
38.815,74.1015,-0.051925
38.923,74.1015,-0.051632
39.031,74.1015,-0.051632
39.141,74.1015,-0.051632
39.250,74.1015,-0.051359
39.358,74.1015,-0.051359
39.469,74.1015,-0.051095
39.578,74.1015,-0.051095
39.686,74.1015,-0.050737
39.795,74.1015,-0.050737
39.903,74.0983,-0.050737
40.013,74.0860,-0.050313
40.123,74.0653,-0.050313
40.232,74.0436,-0.046769
40.339,74.0221,-0.046769
40.450,74.0001,-0.035364
40.559,73.9780,-0.035364
40.668,73.9563,-0.020312
40.778,73.9345,-0.020312
40.887,73.9125,-0.020312
40.996,73.8907,-0.007531
41.107,73.8686,-0.007531
41.216,73.8468,0.003732
41.322,73.8256,0.003732
41.432,73.8035,0.014911
41.542,73.7817,0.014911
41.650,73.7600,0.014911
41.761,73.7378,0.026523
41.870,73.7159,0.026523
41.978,73.6944,0.038512
42.088,73.6725,0.038512
42.196,73.6507,0.038512
42.306,73.6287,0.051171
42.414,73.6070,0.064555
42.522,73.5856,0.064555
42.632,73.5635,0.064555
42.742,73.5414,0.078683
42.849,73.5201,0.078683
42.959,73.4981,0.093773
43.067,73.4767,0.093773
43.177,73.4546,0.109787
43.284,73.4330,0.109787
43.395,73.4108,0.109787
43.503,73.3894,0.127233
43.612,73.3674,0.127233
43.721,73.3458,0.146556
43.830,73.3240,0.146556
43.939,73.3022,0.167668
44.047,73.2806,0.167668
44.155,73.2590,0.167668
44.264,73.2372,0.190968
44.373,73.2155,0.190968
44.481,73.1939,0.216794
44.590,73.1720,0.216794
44.701,73.1499,0.245466
44.810,73.1281,0.245466
44.919,73.1062,0.277578
45.027,73.0845,0.277578
45.137,73.0626,0.277578
45.246,73.0408,0.312433
45.357,73.0187,0.312433
45.464,72.9971,0.348580
45.573,72.9754,0.348580
45.682,72.9534,0.383086
45.791,72.9319,0.383086
45.901,72.9099,0.383086
46.008,72.8882,0.411174
46.118,72.8664,0.411174
46.228,72.8443,0.432051
46.337,72.8226,0.432051
46.445,72.8011,0.432051
46.555,72.7791,0.446406
46.664,72.7572,0.452137
46.773,72.7354,0.452137
46.881,72.7138,0.452137
46.991,72.6919,0.441910
47.100,72.6699,0.441910
47.210,72.6480,0.412889
47.319,72.6263,0.412889
47.427,72.6046,0.367553
47.536,72.5826,0.367553
47.645,72.5612,0.367553
47.754,72.5392,0.197424
47.864,72.5172,0.197424
47.975,72.4950,0.031471
48.082,72.4736,0.031471
48.191,72.4518,0.007861
48.300,72.4299,0.007861
48.409,72.4082,0.006777
48.519,72.3863,0.006777
48.628,72.3643,0.006777
48.738,72.3424,0.006409
48.848,72.3203,0.006409
48.956,72.2987,0.006164
49.066,72.2769,0.006164
49.174,72.2552,0.006004
49.283,72.2335,0.006004
49.391,72.2118,0.006004
49.499,72.1901,0.005947
49.608,72.1685,0.005947
49.717,72.1464,0.005891
49.828,72.1242,0.005891
49.939,72.1023,0.005834
50.048,72.0804,0.005834
50.158,72.0584,0.005834
50.266,72.0368,0.005778
50.375,72.0151,0.005778
50.483,71.9934,0.005778
50.592,71.9715,0.005759
50.698,71.9505,0.005740
50.804,71.9293,0.005740
50.912,71.9075,0.005721
51.022,71.8856,0.005721
51.132,71.8636,0.005721
51.241,71.8419,0.005759
51.349,71.8202,0.005759
51.459,71.7983,0.005797
51.568,71.7763,0.005797
51.678,71.7543,0.005768
51.786,71.7328,0.005768
51.895,71.7111,0.005768
52.004,71.6890,0.005749
52.113,71.6673,0.005749
52.224,71.6454,0.005787
52.333,71.6235,0.005787
52.442,71.6017,0.005815
52.549,71.5800,0.005815
52.655,71.5590,0.005815
52.765,71.5370,0.005778
52.874,71.5153,0.005778
52.984,71.4932,0.005778
53.093,71.4715,0.005778
53.203,71.4495,0.005778
53.312,71.4276,0.005778
53.422,71.4057,0.005797
53.532,71.3838,0.005797
53.641,71.3618,0.005797
53.750,71.3400,0.005863
53.861,71.3178,0.005863
53.971,71.2957,0.005863
54.081,71.2739,0.005863
54.190,71.2522,0.005863
54.299,71.2303,0.005863
54.408,71.2083,0.005891
54.517,71.1867,0.005891
54.626,71.1648,0.005891
54.737,71.1428,0.005910
54.847,71.1205,0.005910
54.957,71.0988,0.005929
55.066,71.0768,0.005929
55.177,71.0598,0.005929
55.289,71.0520,0.005929
55.400,71.0515,0.005929
55.508,71.0515,0.005825
55.618,71.0515,0.005825
55.727,71.0515,0.005749
55.837,71.0535,0.005749
55.945,71.0638,0.005712
56.053,71.0829,0.005712
56.163,71.1049,0.005589
56.271,71.1266,0.005589
56.380,71.1483,0.005589
56.489,71.1702,0.005504
56.599,71.1921,0.005504
56.707,71.2138,0.005457
56.816,71.2356,0.005457
56.924,71.2569,0.005429
57.033,71.2789,0.005429
57.142,71.3006,0.005429
57.250,71.3222,0.005382
57.359,71.3440,0.005382
57.467,71.3657,0.005316
57.576,71.3875,0.005316
57.686,71.4096,0.005241
57.796,71.4314,0.005241
57.905,71.4531,0.005241
58.015,71.4752,0.005175
58.125,71.4973,0.005175
58.232,71.5187,0.005175
58.341,71.5403,0.005175
58.450,71.5621,0.005165
58.561,71.5843,0.005165
58.669,71.6060,0.005071
58.778,71.6278,0.005071
58.887,71.6496,0.005071
58.995,71.6713,0.005024
59.105,71.6931,0.005024
59.213,71.7148,0.005014
59.325,71.7373,0.005014
59.432,71.7585,0.004986
59.541,71.7805,0.004986
59.651,71.8025,0.004986
59.761,71.8243,0.004920
59.871,71.8464,0.004920
59.980,71.8681,0.004882
60.089,71.8901,0.004882
60.199,71.9119,0.004882
60.309,71.9340,0.004882
60.418,71.9559,0.004779
60.526,71.9775,0.004779
60.637,71.9996,0.004779
60.747,72.0215,0.004722
60.857,72.0436,0.004722
60.968,72.0657,0.004713
61.078,72.0878,0.004713
61.188,72.1100,0.004609
61.297,72.1315,0.004609
61.405,72.1532,0.004581
61.513,72.1748,0.004581
61.622,72.1966,0.004581
61.732,72.2187,0.004562
61.842,72.2407,0.004562
61.952,72.2625,0.004468
62.061,72.2845,0.004468
62.169,72.3060,0.004421
62.277,72.3276,0.004421
62.388,72.3499,0.004421
62.497,72.3715,0.004373
62.606,72.3936,0.004373
62.717,72.4155,0.004336
62.827,72.4376,0.004336
62.937,72.4595,0.004270
63.045,72.4814,0.004270
63.155,72.5031,0.004270
63.263,72.5248,0.004157
63.372,72.5466,0.004157
63.481,72.5683,0.004062
63.590,72.5903,0.004062
63.699,72.6120,0.004062
63.808,72.6337,0.003968
63.916,72.6555,0.003893
64.025,72.6771,0.003893
64.133,72.6988,0.003893
64.242,72.7205,0.003846
64.350,72.7422,0.003846
64.459,72.7642,0.003761
64.570,72.7861,0.003761
64.679,72.8080,0.003638
64.788,72.8297,0.003638
64.896,72.8514,0.003638
65.006,72.8733,0.003497
65.114,72.8949,0.003497
65.223,72.9169,0.003271
65.332,72.9384,0.003271
65.439,72.9601,0.003092
65.549,72.9820,0.003092
65.659,73.0039,0.003092
65.768,73.0260,0.002950
65.877,73.0476,0.002950
65.986,73.0694,0.002649
66.095,73.0912,0.002649
66.205,73.1133,0.002300
66.315,73.1351,0.002300
66.423,73.1568,0.001857
66.534,73.1790,0.001857
66.644,73.2011,0.001857
66.752,73.2226,0.001291
66.861,73.2443,0.001291
66.970,73.2662,0.000547
67.079,73.2881,0.000547
67.187,73.3099,-0.000405
67.297,73.3315,-0.000405
67.407,73.3535,-0.001583
67.515,73.3752,-0.001583
67.625,73.3973,-0.001583
67.734,73.4189,-0.003110
67.844,73.4410,-0.003110
67.952,73.4626,-0.005005
68.061,73.4844,-0.005005
68.169,73.5060,-0.007239
68.277,73.5275,-0.007239
68.385,73.5491,-0.007239
68.495,73.5712,-0.010057
68.603,73.5929,-0.010057
68.711,73.6145,-0.013459
68.821,73.6363,-0.013459
68.930,73.6583,-0.017220
69.039,73.6800,-0.017220
69.147,73.7017,-0.017220
69.255,73.7231,-0.021339
69.364,73.7448,-0.021339
69.472,73.7664,-0.025665
69.581,73.7882,-0.025665
69.689,73.8099,-0.030180
69.799,73.8320,-0.030180
69.908,73.8537,-0.030180
70.017,73.8756,-0.034865
70.126,73.8974,-0.034865
70.235,73.9191,-0.039681
70.345,73.9412,-0.039681
70.453,73.9627,-0.044714
70.562,73.9847,-0.044714
70.672,74.0064,-0.050030
70.781,74.0282,-0.050030
70.891,74.0443,-0.050030
70.999,74.0512,-0.055431
71.108,74.0515,-0.055431
71.217,74.0515,-0.058805
71.325,74.0515,-0.058805
71.435,74.0515,-0.058890
71.544,74.0515,-0.058890
71.653,74.0515,-0.058890
71.763,74.0515,-0.057806
71.872,74.0515,-0.057806
71.981,74.0515,-0.056948
72.093,74.0515,-0.056948
72.203,74.0515,-0.056185
72.312,74.0515,-0.056185
72.422,74.0515,-0.055525
72.532,74.0515,-0.055525
72.640,74.0515,-0.055525
72.749,74.0515,-0.055007
72.859,74.0515,-0.055007
72.969,74.0515,-0.054498
73.079,74.0515,-0.054498
73.187,74.0515,-0.054017
73.295,74.0515,-0.054017
73.405,74.0515,-0.054017
73.515,74.0515,-0.053565
73.624,74.0515,-0.053565
73.731,74.0515,-0.053131
73.843,74.0515,-0.053131
73.952,74.0515,-0.052773
74.061,74.0515,-0.052773
74.171,74.0515,-0.052471
74.279,74.0515,-0.052471
74.389,74.0515,-0.052471
74.498,74.0515,-0.052141
74.607,74.0515,-0.052141
74.715,74.0515,-0.051840
74.825,74.0515,-0.051840
74.936,74.0515,-0.051491
75.044,74.0515,-0.051491
75.154,74.0515,-0.051001
75.265,74.0514,-0.051001
75.376,74.0456,-0.051001
75.483,74.0311,-0.050614
75.592,74.0096,-0.050614
75.700,73.9882,-0.045713
75.810,73.9662,-0.045713
75.918,73.9444,-0.032631
76.028,73.9226,-0.032631
76.137,73.9006,-0.032631
76.244,73.8793,-0.017644
76.353,73.8574,-0.017644
76.462,73.8357,-0.005250
76.571,73.8139,-0.005250
76.680,73.7921,0.006108
76.788,73.7705,0.006108
76.898,73.7484,0.006108
77.008,73.7265,0.017522
77.117,73.7046,0.017522
77.225,73.6831,0.029087
77.333,73.6616,0.029087
77.442,73.6397,0.041076
77.552,73.6176,0.041076
77.659,73.5963,0.041076
77.770,73.5742,0.053885
77.881,73.5520,0.053885
77.988,73.5304,0.067429
78.098,73.5086,0.067429
78.206,73.4870,0.081775
78.314,73.4653,0.081775
78.424,73.4435,0.096884
78.533,73.4215,0.096884
78.641,73.3999,0.096884
78.748,73.3786,0.113058
78.857,73.3565,0.113058
78.966,73.3349,0.130909
79.075,73.3132,0.130909
79.183,73.2913,0.150524
79.292,73.2698,0.150524
79.401,73.2480,0.150524
79.509,73.2264,0.171966
79.617,73.2047,0.171966
79.727,73.1826,0.195766
79.836,73.1609,0.195766
79.945,73.1392,0.222260
80.054,73.1173,0.222260
80.163,73.0954,0.251762
80.275,73.0731,0.251762
80.383,73.0514,0.251762
80.493,73.0295,0.284270
80.603,73.0076,0.284270
80.711,72.9859,0.319012
80.820,72.9641,0.319012
80.928,72.9424,0.354782
81.038,72.9204,0.354782
81.148,72.8985,0.354782
81.256,72.8769,0.386451
81.366,72.8548,0.386451
81.473,72.8335,0.410900
81.582,72.8118,0.410900
81.691,72.7900,0.429883
81.798,72.7685,0.429883
81.908,72.7463,0.443258
82.018,72.7246,0.443258
82.127,72.7025,0.443258
82.238,72.6806,0.448225
82.348,72.6585,0.448225
82.456,72.6368,0.435218
82.565,72.6151,0.435218
82.673,72.5935,0.402587
82.782,72.5718,0.402587
82.890,72.5501,0.402587
83.001,72.5278,0.347515
83.111,72.5060,0.347515
83.221,72.4840,0.167876
83.331,72.4621,0.167876
83.440,72.4402,0.015740
83.549,72.4184,0.015740
83.660,72.3962,0.007371
83.771,72.3738,0.007371
83.881,72.3519,0.007371
83.989,72.3305,0.006579
84.098,72.3084,0.006579
84.207,72.2867,0.006277
84.316,72.2649,0.006277
84.425,72.2432,0.006127
84.535,72.2213,0.006127
84.641,72.1999,0.006127
84.750,72.1783,0.005976
84.859,72.1562,0.005976
84.967,72.1348,0.005863
85.077,72.1127,0.005863
85.187,72.0909,0.005844
85.297,72.0689,0.005844
85.405,72.0472,0.005844
85.514,72.0254,0.005806
85.624,72.0034,0.005806
85.732,71.9817,0.005778
85.842,71.9598,0.005778
85.952,71.9377,0.005768
86.060,71.9161,0.005768
86.170,71.8942,0.005768
86.278,71.8725,0.005749
86.388,71.8504,0.005749
86.497,71.8287,0.005731
86.607,71.8068,0.005731
86.716,71.7850,0.005759
86.824,71.7634,0.005759
86.933,71.7414,0.005778
87.043,71.7195,0.005778
87.152,71.6978,0.005778
87.261,71.6760,0.005693
87.371,71.6540,0.005693
87.480,71.6322,0.005712
87.591,71.6100,0.005712
87.699,71.5883,0.005787
87.808,71.5666,0.005787
87.916,71.5450,0.005778
88.025,71.5232,0.005778
88.134,71.5015,0.005778
88.243,71.4794,0.005778
88.351,71.4580,0.005778
88.462,71.4358,0.005815
88.572,71.4138,0.005815
88.681,71.3920,0.005815
88.793,71.3697,0.005853
88.901,71.3481,0.005853
89.008,71.3264,0.005815
89.115,71.3053,0.005815
89.224,71.2833,0.005787
89.334,71.2614,0.005787
89.443,71.2396,0.005815
89.552,71.2176,0.005815
89.662,71.1958,0.005863
89.769,71.1743,0.005863
89.880,71.1522,0.005863
89.988,71.1303,0.005825
90.097,71.1088,0.005825
90.205,71.0870,0.005853
90.315,71.0652,0.005853
90.424,71.0434,0.005891
90.534,71.0216,0.005891
90.642,71.0073,0.005891
90.752,71.0016,0.005787
90.862,71.0014,0.005787
90.971,71.0054,0.005731
91.079,71.0183,0.005731
91.187,71.0386,0.005580
91.297,71.0608,0.005580
91.407,71.0828,0.005438
91.516,71.1046,0.005438
91.626,71.1266,0.005438
91.734,71.1482,0.005467
91.841,71.1696,0.005467
91.950,71.1914,0.005457
92.061,71.2135,0.005457
92.171,71.2357,0.005457
92.278,71.2570,0.005391
92.386,71.2786,0.005391
92.496,71.3005,0.005354
92.604,71.3222,0.005354
92.713,71.3439,0.005325
92.822,71.3656,0.005325
92.929,71.3871,0.005250
93.039,71.4092,0.005250
93.148,71.4311,0.005250
93.255,71.4523,0.005184
93.365,71.4745,0.005184
93.475,71.4963,0.005165
93.583,71.5180,0.005165
93.693,71.5399,0.005156
93.803,71.5620,0.005156
93.913,71.5840,0.005156
94.022,71.6057,0.005127
94.132,71.6276,0.005127
94.242,71.6497,0.005043
94.350,71.6714,0.005043
94.460,71.6932,0.004939
94.571,71.7156,0.004939
94.677,71.7366,0.004892
94.786,71.7583,0.004892
94.895,71.7804,0.004892
95.002,71.8019,0.004892
95.111,71.8237,0.004892
95.222,71.8457,0.004873
95.330,71.8674,0.004873
95.440,71.8893,0.004816
95.549,71.9110,0.004816
95.658,71.9328,0.004816
95.767,71.9547,0.004750
95.877,71.9766,0.004750
95.986,71.9986,0.004684
96.095,72.0203,0.004684
96.204,72.0422,0.004656
96.311,72.0634,0.004656
96.421,72.0856,0.004656
96.530,72.1074,0.004600
96.639,72.1292,0.004600
96.747,72.1508,0.004562
96.856,72.1723,0.004562
96.964,72.1940,0.004496
97.074,72.2160,0.004496
97.183,72.2379,0.004392
97.292,72.2597,0.004392
97.401,72.2815,0.004392
97.508,72.3031,0.004355
97.618,72.3250,0.004355
97.727,72.3468,0.004298
97.837,72.3687,0.004298
97.948,72.3909,0.004241
98.053,72.4121,0.004241
98.161,72.4335,0.004194
98.271,72.4556,0.004194
98.380,72.4772,0.004194
98.490,72.4991,0.004091
98.598,72.5210,0.004091
98.708,72.5428,0.003996
98.817,72.5646,0.003996
98.926,72.5863,0.003996
99.036,72.6085,0.003949
99.145,72.6305,0.003949
99.254,72.6522,0.003940
99.363,72.6739,0.003940
99.472,72.6956,0.003836
99.582,72.7178,0.003836
99.691,72.7395,0.003732
99.799,72.7611,0.003732
99.910,72.7833,0.003638
100.018,72.8049,0.003638
100.126,72.8267,0.003638
100.236,72.8486,0.003469
100.345,72.8703,0.003469
100.455,72.8923,0.003223
100.564,72.9141,0.003223
100.673,72.9357,0.002988
100.782,72.9577,0.002988
100.891,72.9794,0.002988
101.000,73.0012,0.002752
101.107,73.0226,0.002752
101.217,73.0450,0.002385
101.327,73.0667,0.002385
101.437,73.0886,0.002385
101.547,73.1107,0.001932
101.656,73.1324,0.001932
101.765,73.1544,0.001423
101.875,73.1763,0.001423
101.983,73.1979,0.000839
102.093,73.2200,0.000839
102.203,73.2418,0.000028
102.309,73.2631,0.000028
102.419,73.2850,-0.001084
102.528,73.3068,-0.001084
102.637,73.3287,-0.001084
102.748,73.3507,-0.002469
102.857,73.3726,-0.002469
102.965,73.3945,-0.004232
103.074,73.4162,-0.004232
103.183,73.4377,-0.006390
103.290,73.4593,-0.006390
103.397,73.4807,-0.006390
103.506,73.5025,-0.008992
103.616,73.5246,-0.008992
103.726,73.5465,-0.012102
103.836,73.5686,-0.012102
103.944,73.5902,-0.015722
104.053,73.6119,-0.015722
104.162,73.6337,-0.019718
104.271,73.6554,-0.019718
104.381,73.6775,-0.019718
104.491,73.6994,-0.023997
104.598,73.7208,-0.023997
104.708,73.7431,-0.023997
104.817,73.7646,-0.028465
104.926,73.7864,-0.033008
105.037,73.8087,-0.033008
105.146,73.8305,-0.033008
105.256,73.8526,-0.037758
105.365,73.8743,-0.037758
105.475,73.8961,-0.042801
105.583,73.9178,-0.042801
105.694,73.9399,-0.048022
105.804,73.9620,-0.048022
105.914,73.9832,-0.048022
106.022,73.9968,-0.053489
106.131,74.0014,-0.053489
106.241,74.0014,-0.058070
106.351,74.0014,-0.058070
106.461,74.0014,-0.059371
106.571,74.0014,-0.059371
106.680,74.0014,-0.058475
106.789,74.0014,-0.058475
106.898,74.0014,-0.058475
107.008,74.0014,-0.057523
107.118,74.0014,-0.057523
107.225,74.0014,-0.056760
107.334,74.0014,-0.056760
107.444,74.0014,-0.056138
107.554,74.0014,-0.056138
107.663,74.0014,-0.055459
107.773,74.0014,-0.055459
107.883,74.0014,-0.055459
107.993,74.0014,-0.054931
108.104,74.0014,-0.054931
108.213,74.0014,-0.054479
108.322,74.0014,-0.054479
108.431,74.0014,-0.054055
108.540,74.0014,-0.054055
108.649,74.0014,-0.054055
108.759,74.0014,-0.053640
108.868,74.0014,-0.053640
108.978,74.0014,-0.053188
109.089,74.0014,-0.053188
109.199,74.0014,-0.052820
109.308,74.0014,-0.052820
109.417,74.0014,-0.052452
109.527,74.0014,-0.052452
109.636,74.0014,-0.052452
109.748,74.0014,-0.052113
109.855,74.0014,-0.052113
109.964,74.0014,-0.051868
110.074,74.0014,-0.051868
110.183,74.0014,-0.051444
110.292,74.0014,-0.051444
110.402,73.9983,-0.051444
110.510,73.9864,-0.050954
110.619,73.9660,-0.050954
110.728,73.9444,-0.047824
110.838,73.9223,-0.047824
110.947,73.9006,-0.036646
111.055,73.8790,-0.036646
111.165,73.8571,-0.021349
111.274,73.8351,-0.021349
111.383,73.8134,-0.021349
111.495,73.7910,-0.008389
111.603,73.7695,-0.008389
111.711,73.7477,0.003110
111.820,73.7261,0.003110
111.929,73.7042,0.014402
112.038,73.6824,0.014402
112.148,73.6604,0.014402
112.258,73.6384,0.025892
112.367,73.6166,0.025892
112.476,73.5949,0.037777
112.586,73.5729,0.037777
112.695,73.5511,0.050360
112.802,73.5294,0.050360
112.913,73.5075,0.050360
113.022,73.4857,0.063678
113.129,73.4642,0.063678
113.239,73.4421,0.077675
113.348,73.4204,0.077675
113.458,73.3983,0.092510
113.568,73.3764,0.092510
113.675,73.3549,0.108298
113.784,73.3331,0.108298
113.894,73.3112,0.108298
114.002,73.2895,0.125565
114.111,73.2678,0.125565
114.221,73.2459,0.144708
114.330,73.2241,0.144708
114.438,73.2024,0.165604
114.547,73.1804,0.165604
114.657,73.1584,0.165604
114.766,73.1367,0.188828
114.875,73.1150,0.188828
114.985,73.0930,0.214739
115.093,73.0713,0.214739
115.203,73.0493,0.214739
115.312,73.0276,0.243477
115.422,73.0058,0.275061
115.528,72.9843,0.275061
115.637,72.9627,0.275061
115.746,72.9408,0.308814
115.856,72.9188,0.308814
115.965,72.8970,0.343735
116.075,72.8751,0.343735
116.184,72.8531,0.374782
116.293,72.8310,0.374782
116.403,72.8093,0.374782
116.512,72.7877,0.398779
116.621,72.7659,0.398779
116.731,72.7438,0.417498
116.841,72.7216,0.417498
116.951,72.6999,0.430845
117.061,72.6779,0.430845
117.169,72.6560,0.436726
117.280,72.6342,0.436726
117.388,72.6125,0.436726
117.497,72.5907,0.426914
117.608,72.5683,0.426914
117.715,72.5470,0.399486
117.825,72.5251,0.399486
117.933,72.5034,0.354584
118.043,72.4814,0.354584
118.153,72.4596,0.179167
118.263,72.4375,0.179167
118.373,72.4154,0.179167
118.483,72.3933,0.019972
118.594,72.3713,0.019972
118.703,72.3494,0.007550
118.813,72.3275,0.007550
118.922,72.3057,0.006683
119.030,72.2840,0.006683
119.142,72.2618,0.006683
119.250,72.2399,0.006268
119.359,72.2181,0.006268
119.469,72.1963,0.006061
119.577,72.1747,0.006061
119.687,72.1526,0.005957
119.796,72.1307,0.005957
119.904,72.1093,0.005957
120.011,72.0878,0.005881
120.122,72.0658,0.005881
120.231,72.0437,0.005797
120.339,72.0223,0.005797
120.448,72.0003,0.005768
120.558,71.9785,0.005768
120.666,71.9569,0.005787
120.776,71.9347,0.005787
120.884,71.9133,0.005787
120.992,71.8917,0.005768
121.101,71.8698,0.005768
121.210,71.8481,0.005787
121.319,71.8264,0.005787
121.429,71.8044,0.005787
121.536,71.7828,0.005759
121.645,71.7610,0.005759
121.753,71.7395,0.005721
121.864,71.7173,0.005721
121.973,71.6953,0.005693
122.083,71.6734,0.005693
122.192,71.6517,0.005721
122.302,71.6299,0.005721
122.410,71.6082,0.005749
122.518,71.5865,0.005749
122.628,71.5645,0.005749
122.737,71.5427,0.005721
122.847,71.5208,0.005721
122.957,71.4986,0.005731
123.066,71.4769,0.005731
123.174,71.4554,0.005759
123.284,71.4333,0.005759
123.395,71.4111,0.005759
123.506,71.3889,0.005759
123.615,71.3672,0.005759
123.725,71.3451,0.005768
123.835,71.3232,0.005768
123.944,71.3012,0.005787
124.053,71.2796,0.005787
124.160,71.2579,0.005787
124.269,71.2363,0.005815
124.378,71.2146,0.005815
124.488,71.1924,0.005825
124.595,71.1711,0.005825
124.706,71.1488,0.005825
124.815,71.1272,0.005815
124.925,71.1050,0.005853
125.035,71.0830,0.005853
125.146,71.0610,0.005853
125.253,71.0395,0.005844
125.363,71.0176,0.005844
125.472,70.9957,0.005825
125.581,70.9740,0.005825
125.691,70.9583,0.005834
125.799,70.9517,0.005834
125.908,70.9515,0.005712
126.020,70.9515,0.005712
126.129,70.9515,0.005712
126.239,70.9515,0.005655
126.348,70.9524,0.005655
126.458,70.9612,0.005712
126.568,70.9794,0.005712
126.676,71.0008,0.005712
126.783,71.0223,0.005608
126.893,71.0443,0.005608
127.003,71.0663,0.005438
127.111,71.0880,0.005438
127.219,71.1095,0.005382
127.327,71.1312,0.005382
127.437,71.1530,0.005391
127.544,71.1747,0.005391
127.654,71.1964,0.005391
127.762,71.2180,0.005335
127.871,71.2399,0.005335
127.981,71.2619,0.005259
128.090,71.2837,0.005259
128.199,71.3054,0.005259
128.308,71.3272,0.005259
128.418,71.3493,0.005259
128.527,71.3713,0.005269
128.637,71.3931,0.005269
128.746,71.4149,0.005193
128.855,71.4366,0.005193
128.965,71.4586,0.005156
129.073,71.4803,0.005156
129.182,71.5022,0.005127
129.291,71.5238,0.005127
129.400,71.5459,0.005127
129.509,71.5675,0.005043
129.618,71.5894,0.005043
129.726,71.6110,0.005071
129.836,71.6330,0.005071
129.946,71.6549,0.005005
130.054,71.6765,0.005005
130.164,71.6983,0.005005
130.272,71.7203,0.004845
130.382,71.7420,0.004845
130.492,71.7642,0.004826
130.599,71.7855,0.004826
130.710,71.8077,0.004873
130.819,71.8295,0.004873
130.928,71.8514,0.004769
131.036,71.8731,0.004769
131.144,71.8945,0.004769
131.254,71.9165,0.004703
131.361,71.9378,0.004703
131.471,71.9600,0.004666
131.581,71.9817,0.004666
131.690,72.0035,0.004647
131.798,72.0254,0.004647
131.908,72.0474,0.004647
132.018,72.0693,0.004647
132.128,72.0912,0.004647
132.234,72.1126,0.004581
132.342,72.1340,0.004581
132.452,72.1562,0.004524
132.561,72.1779,0.004524
132.670,72.1995,0.004486
132.780,72.2217,0.004486
132.888,72.2434,0.004486
132.997,72.2651,0.004421
133.107,72.2871,0.004421
133.216,72.3088,0.004317
133.324,72.3303,0.004317
133.433,72.3523,0.004251
133.542,72.3741,0.004251
133.650,72.3956,0.004251
133.761,72.4178,0.004194
133.868,72.4392,0.004194
133.977,72.4612,0.004157
134.086,72.4828,0.004157
134.195,72.5046,0.004062
134.304,72.5264,0.004062
134.414,72.5484,0.003959
134.524,72.5705,0.003959
134.634,72.5925,0.003959
134.742,72.6140,0.003893
134.852,72.6361,0.003893
134.960,72.6575,0.003761
135.069,72.6793,0.003761
135.178,72.7014,0.003591
135.287,72.7231,0.003591
135.397,72.7451,0.003591
135.505,72.7665,0.003487
135.615,72.7887,0.003487
135.724,72.8104,0.003365
135.833,72.8323,0.003365
135.942,72.8540,0.003186
136.051,72.8759,0.003186
136.162,72.8980,0.002894
136.271,72.9198,0.002894
136.379,72.9415,0.002894
136.487,72.9631,0.002601
136.595,72.9847,0.002601
136.706,73.0068,0.002309
136.816,73.0287,0.002309
136.925,73.0508,0.001847
137.034,73.0724,0.001847
137.143,73.0943,0.001847
137.252,73.1160,0.001301
137.361,73.1380,0.001301
137.471,73.1597,0.000632
137.581,73.1819,0.000632
137.691,73.2037,-0.000264
137.799,73.2254,-0.000264
137.907,73.2471,-0.000264
138.016,73.2688,-0.001433
138.125,73.2905,-0.001433
138.235,73.3126,-0.002922
138.343,73.3342,-0.002922
138.451,73.3559,-0.004826
138.558,73.3772,-0.004826
138.669,73.3994,-0.007163
138.778,73.4213,-0.007163
138.887,73.4432,-0.007163
138.998,73.4653,-0.009878
139.107,73.4870,-0.009878
139.217,73.5089,-0.013130
139.328,73.5311,-0.013130
139.434,73.5525,-0.016853
139.543,73.5743,-0.016853
139.651,73.5958,-0.016853
139.762,73.6180,-0.020924
139.871,73.6398,-0.020924
139.980,73.6616,-0.025270
140.087,73.6831,-0.025270
140.197,73.7050,-0.029756
140.306,73.7270,-0.029756
140.415,73.7486,-0.029756
140.525,73.7705,-0.034412
140.634,73.7925,-0.034412
140.742,73.8139,-0.039257
140.851,73.8359,-0.039257
140.960,73.8576,-0.044356
141.071,73.8798,-0.044356
141.181,73.9017,-0.049644
141.291,73.9237,-0.049644
141.400,73.9417,-0.049644
141.509,73.9505,-0.055167
141.617,73.9515,-0.055167
141.726,73.9515,-0.058956
141.835,73.9515,-0.058956
141.946,73.9515,-0.059267
142.054,73.9515,-0.059267
142.163,73.9515,-0.058221
142.271,73.9515,-0.058221
142.381,73.9515,-0.058221
142.490,73.9515,-0.057363
142.599,73.9515,-0.057363
142.708,73.9515,-0.056552
142.816,73.9515,-0.056552
142.927,73.9515,-0.055883
143.034,73.9515,-0.055883
143.144,73.9515,-0.055883
143.254,73.9515,-0.055289
143.361,73.9515,-0.055289
143.471,73.9515,-0.054780
143.581,73.9515,-0.054780
143.690,73.9515,-0.054337
143.797,73.9515,-0.054337
143.907,73.9515,-0.054337
144.016,73.9515,-0.053904
144.125,73.9515,-0.053904
144.237,73.9515,-0.053536
144.344,73.9515,-0.053536
144.453,73.9515,-0.053197
144.562,73.9515,-0.053197
144.670,73.9515,-0.053197
144.778,73.9515,-0.052839
144.888,73.9515,-0.052839
144.999,73.9515,-0.052481
145.108,73.9515,-0.052481
145.218,73.9515,-0.052151
145.326,73.9515,-0.052151
145.434,73.9515,-0.051821
145.543,73.9515,-0.051821
145.651,73.9515,-0.051821
145.759,73.9515,-0.051397
145.868,73.9481,-0.051397
145.978,73.9358,-0.051029
146.088,73.9154,-0.051029
146.197,73.8934,-0.051029
146.305,73.8717,-0.046835
146.415,73.8499,-0.034516
146.525,73.8278,-0.034516
146.635,73.8059,-0.034516
146.744,73.7839,-0.019379
146.855,73.7618,-0.019379
146.966,73.7396,-0.006645
147.075,73.7177,-0.006645
147.184,73.6960,0.004741
147.293,73.6743,0.004741
147.402,73.6526,0.004741
147.512,73.6305,0.015985
147.621,73.6087,0.015985
147.729,73.5871,0.027494
147.839,73.5651,0.027494
147.947,73.5434,0.039455
148.055,73.5218,0.039455
148.166,73.4998,0.052104
148.274,73.4781,0.052104
148.383,73.4564,0.052104
148.492,73.4344,0.065412
148.601,73.4127,0.065412
148.709,73.3911,0.079475
148.818,73.3692,0.079475
148.928,73.3472,0.094339
149.037,73.3255,0.094339
149.148,73.3032,0.094339
149.258,73.2812,0.110117
149.367,73.2595,0.110117
149.475,73.2379,0.127601
149.583,73.2162,0.127601
149.695,73.1938,0.147055
149.804,73.1721,0.147055
149.913,73.1504,0.147055
150.022,73.1284,0.168319
150.132,73.1065,0.168319
150.241,73.0847,0.192052
150.351,73.0627,0.192052
150.459,73.0409,0.218415
150.568,73.0193,0.218415
150.678,72.9973,0.247539
150.787,72.9755,0.247539
150.895,72.9539,0.247539
151.003,72.9321,0.279614
151.112,72.9105,0.279614
151.223,72.8883,0.313828
151.331,72.8665,0.313828
151.440,72.8449,0.313828
151.549,72.8230,0.348957
151.657,72.8015,0.348957
151.766,72.7796,0.379721
151.873,72.7581,0.379721
151.982,72.7363,0.403398
152.090,72.7149,0.403398
152.199,72.6930,0.422173
152.308,72.6714,0.422173
152.416,72.6495,0.434888
152.527,72.6274,0.434888
152.634,72.6060,0.434888
152.742,72.5845,0.439375
152.852,72.5626,0.439375
152.962,72.5406,0.427866
153.071,72.5187,0.427866
153.180,72.4969,0.427866
153.288,72.4753,0.398421
153.396,72.4536,0.398421
153.505,72.4320,0.349635
153.614,72.4101,0.349635
153.723,72.3883,0.172739
153.832,72.3666,0.172739
153.942,72.3444,0.017390
154.051,72.3228,0.017390
154.160,72.3010,0.007474
154.269,72.2790,0.007474
154.379,72.2570,0.007474
154.489,72.2351,0.006673
154.596,72.2136,0.006673
154.705,72.1918,0.006343
154.815,72.1699,0.006343
154.924,72.1482,0.006211
155.034,72.1262,0.006211
155.142,72.1045,0.006211
155.250,72.0830,0.006061
155.359,72.0610,0.006061
155.471,72.0388,0.005919
155.580,72.0167,0.005919
155.690,71.9949,0.005919
155.797,71.9735,0.005881
155.907,71.9516,0.005881
156.015,71.9299,0.005844
156.125,71.9078,0.005844
156.236,71.8857,0.005778
156.344,71.8641,0.005778
156.452,71.8426,0.005778
156.561,71.8207,0.005778
156.671,71.7985,0.005797
156.780,71.7768,0.005797
156.891,71.7546,0.005797
157.000,71.7330,0.005815
157.109,71.7111,0.005815
157.219,71.6891,0.005787
157.327,71.6676,0.005787
157.435,71.6457,0.005787
157.546,71.6238,0.005787
157.655,71.6021,0.005787
157.763,71.5804,0.005787
157.871,71.5588,0.005787
157.979,71.5370,0.005815
158.088,71.5153,0.005815
158.198,71.4933,0.005825
158.308,71.4715,0.005825
158.416,71.4497,0.005797
158.527,71.4273,0.005797
158.637,71.4055,0.005797
158.749,71.3829,0.005787
158.858,71.3613,0.005787
158.968,71.3394,0.005778
159.080,71.3169,0.005778
159.190,71.2949,0.005815
159.300,71.2730,0.005815
159.409,71.2510,0.005815
159.517,71.2294,0.005797
159.627,71.2076,0.005797
159.735,71.1859,0.005815
159.843,71.1643,0.005815
159.952,71.1426,0.005815
160.061,71.1206,0.005853
160.169,71.0993,0.005825
160.278,71.0773,0.005825
160.387,71.0555,0.005825
160.497,71.0336,0.005853
160.605,71.0120,0.005853
160.715,70.9899,0.005929
160.823,70.9682,0.005929
160.931,70.9466,0.005929
161.039,70.9252,0.005957
161.148,70.9089,0.005957
161.257,70.9018,0.005844
161.367,70.9015,0.005844
161.477,70.9015,0.005768
161.587,70.9015,0.005768
161.696,70.9015,0.005768
161.804,70.9027,0.005787
161.912,70.9119,0.005684
162.022,70.9302,0.005684
162.131,70.9519,0.005684
162.240,70.9738,0.005533
162.351,70.9960,0.005533
162.458,71.0174,0.005523
162.568,71.0394,0.005523
162.677,71.0613,0.005486
162.786,71.0829,0.005486
162.895,71.1050,0.005486
163.004,71.1266,0.005420
163.113,71.1485,0.005420
163.222,71.1704,0.005372
163.332,71.1923,0.005372
163.441,71.2141,0.005325
163.549,71.2356,0.005325
163.659,71.2575,0.005325
163.768,71.2794,0.005241
163.875,71.3008,0.005241
163.986,71.3229,0.005184
164.095,71.3447,0.005184
164.205,71.3669,0.005184
164.313,71.3885,0.005184
164.423,71.4105,0.005175
164.533,71.4323,0.005175
164.640,71.4537,0.005175
164.748,71.4755,0.005099
164.856,71.4972,0.005099
164.965,71.5189,0.005043
165.074,71.5406,0.005043
165.183,71.5624,0.004995
165.293,71.5845,0.004995
165.404,71.6068,0.004948
165.513,71.6285,0.004948
165.622,71.6502,0.004948
165.729,71.6718,0.004948
165.837,71.6934,0.004948
165.947,71.7153,0.004882
166.056,71.7369,0.004882
166.164,71.7586,0.004816
166.273,71.7805,0.004816
166.381,71.8020,0.004816
166.491,71.8240,0.004760
166.601,71.8462,0.004760
166.711,71.8680,0.004760
166.821,71.8899,0.004760
166.929,71.9118,0.004760
167.038,71.9335,0.004722
167.147,71.9553,0.004722
167.257,71.9771,0.004694
167.367,71.9992,0.004694
167.476,72.0210,0.004581
167.587,72.0431,0.004581
167.696,72.0651,0.004496
167.807,72.0873,0.004496
167.916,72.1092,0.004449
168.026,72.1310,0.004449
168.135,72.1527,0.004449
168.244,72.1747,0.004345
168.354,72.1965,0.004345
168.463,72.2184,0.004326
168.573,72.2404,0.004326
168.681,72.2620,0.004326
168.790,72.2837,0.004279
168.900,72.3058,0.004279
169.008,72.3276,0.004223
169.118,72.3493,0.004223
169.226,72.3709,0.004204
169.334,72.3926,0.004204
169.445,72.4147,0.004166
169.554,72.4368,0.004166
169.663,72.4583,0.004053
169.772,72.4802,0.004053
169.882,72.5022,0.004053
169.993,72.5243,0.003949
170.101,72.5461,0.003949
170.209,72.5677,0.003817
170.318,72.5893,0.003817
170.425,72.6109,0.003817
170.535,72.6328,0.003666
170.645,72.6547,0.003666
170.755,72.6767,0.003572
170.863,72.6986,0.003572
170.973,72.7203,0.003478
171.083,72.7422,0.003478
171.192,72.7642,0.003478
171.301,72.7859,0.003337
171.409,72.8078,0.003337
171.518,72.8294,0.003110
171.629,72.8516,0.003110
171.739,72.8737,0.002894
171.850,72.8958,0.002894
171.958,72.9173,0.002620
172.068,72.9393,0.002620
172.176,72.9609,0.002620
172.285,72.9828,0.002215
172.395,73.0048,0.002215
172.504,73.0266,0.001734
172.613,73.0486,0.001734
172.721,73.0700,0.001178
172.830,73.0918,0.001178
172.940,73.1138,0.000471
173.050,73.1358,0.000471
173.160,73.1578,-0.000528
173.269,73.1797,-0.000528
173.377,73.2012,-0.000528
173.485,73.2228,-0.001800
173.595,73.2449,-0.001800
173.705,73.2667,-0.003355
173.813,73.2884,-0.003355
173.922,73.3101,-0.005363
174.031,73.3320,-0.005363
174.140,73.3537,-0.005363
174.248,73.3755,-0.007729
174.358,73.3973,-0.007729
174.467,73.4190,-0.010651
174.576,73.4411,-0.010651
174.684,73.4626,-0.014072
174.793,73.4844,-0.014072
174.902,73.5061,-0.014072
175.012,73.5283,-0.017908
175.121,73.5499,-0.017908
175.231,73.5718,-0.022093
175.339,73.5938,-0.022093
175.449,73.6155,-0.026335
175.559,73.6377,-0.026335
175.668,73.6594,-0.026335
175.777,73.6813,-0.030868
175.885,73.7029,-0.030868
175.994,73.7244,-0.035562
176.103,73.7463,-0.035562
176.211,73.7679,-0.040482
176.321,73.7901,-0.040482
176.431,73.8121,-0.045572
176.539,73.8336,-0.045572
176.647,73.8551,-0.045572
176.758,73.8773,-0.050831
176.867,73.8937,-0.050831
176.978,73.9011,-0.056326
177.089,73.9015,-0.056326
177.199,73.9015,-0.059408
177.310,73.9015,-0.059408
177.420,73.9015,-0.059163
177.529,73.9015,-0.059163
177.638,73.9015,-0.059163
177.748,73.9015,-0.058126
177.860,73.9015,-0.058126
177.969,73.9015,-0.057288
178.076,73.9015,-0.057288
178.186,73.9015,-0.056581
178.297,73.9015,-0.056581
178.406,73.9015,-0.056581
178.515,73.9015,-0.055921
178.626,73.9015,-0.055921
178.735,73.9015,-0.055921
178.844,73.9015,-0.055337
178.953,73.9015,-0.054884
179.061,73.9015,-0.054884
179.169,73.9015,-0.054884
179.279,73.9015,-0.054441
179.386,73.9015,-0.054441
179.497,73.9015,-0.053989
179.606,73.9015,-0.053989
179.715,73.9015,-0.053612
179.824,73.9015,-0.053612
179.935,73.9015,-0.053188
180.045,73.9015,-0.053188
180.154,73.9015,-0.053188
180.263,73.9015,-0.052811
180.371,73.9015,-0.052811
180.480,73.9015,-0.052565
180.590,73.9015,-0.052565
180.699,73.9015,-0.052330
180.807,73.9015,-0.052330
180.917,73.9015,-0.051925
181.027,73.9015,-0.051925
181.137,73.9015,-0.051925
181.246,73.9012,-0.051510
181.356,73.8944,-0.051510
181.466,73.8784,-0.050982
181.575,73.8568,-0.050982
181.683,73.8351,-0.044987
181.791,73.8135,-0.044987
181.899,73.7920,-0.044987
182.009,73.7700,-0.031217
182.117,73.7483,-0.031217
182.225,73.7267,-0.016523
182.336,73.7045,-0.016523
182.444,73.6829,-0.004241
182.554,73.6609,-0.004241
182.663,73.6390,0.007097
182.772,73.6175,0.007097
182.881,73.5955,0.007097
182.991,73.5737,0.018351
183.098,73.5520,0.018351
183.210,73.5298,0.029945
183.319,73.5079,0.029945
183.428,73.4860,0.042028
183.537,73.4643,0.042028
183.646,73.4425,0.042028
183.756,73.4206,0.054733
183.863,73.3992,0.054733
183.972,73.3775,0.068070
184.080,73.3556,0.068070
184.191,73.3336,0.082142
184.301,73.3116,0.082142
184.411,73.2894,0.082142
184.521,73.2676,0.097100
184.631,73.2456,0.097100
184.740,73.2237,0.113237
184.849,73.2019,0.113237
184.959,73.1799,0.131117
185.069,73.1580,0.131117
185.179,73.1360,0.150844
185.288,73.1139,0.150844
185.399,73.0920,0.150844
185.509,73.0699,0.172749
185.620,73.0478,0.172749
185.729,73.0260,0.197189
185.839,73.0040,0.197189
185.948,72.9821,0.224108
186.056,72.9605,0.224108
186.167,72.9384,0.253920
186.277,72.9162,0.253920
186.386,72.8947,0.253920
186.497,72.8725,0.286325
186.605,72.8509,0.286325
186.713,72.8292,0.320417
186.822,72.8073,0.320417
186.931,72.7858,0.354499
187.038,72.7641,0.354499
187.148,72.7421,0.354499
187.259,72.7200,0.383604
187.367,72.6984,0.383604
187.477,72.6765,0.406301
187.585,72.6545,0.406301
187.694,72.6330,0.424464
187.803,72.6111,0.424464
187.912,72.5894,0.437320
188.022,72.5674,0.437320
188.131,72.5456,0.437320
188.240,72.5239,0.442852
188.349,72.5020,0.442852
188.457,72.4804,0.430826
188.567,72.4582,0.430826
188.675,72.4368,0.398082
188.785,72.4147,0.398082
188.894,72.3931,0.398082
189.002,72.3713,0.336836
189.111,72.3493,0.336836
189.222,72.3275,0.157753
189.330,72.3058,0.157753
189.439,72.2840,0.013808
189.548,72.2623,0.013808
189.657,72.2404,0.013808
189.765,72.2188,0.007295
189.874,72.1970,0.007295
189.984,72.1751,0.006588
190.095,72.1529,0.006588
190.204,72.1309,0.006287
190.314,72.1091,0.006287
190.423,72.0871,0.006079
190.532,72.0654,0.006079
190.641,72.0436,0.006079
190.748,72.0223,0.005976
190.857,72.0006,0.005976
190.964,71.9791,0.005919
191.073,71.9573,0.005919
191.182,71.9355,0.005844
191.291,71.9136,0.005844
191.400,71.8918,0.005844
191.510,71.8697,0.005815
191.619,71.8480,0.005815
191.728,71.8263,0.005825
191.837,71.8045,0.005825
191.944,71.7830,0.005787
192.054,71.7608,0.005787
192.163,71.7392,0.005815
192.272,71.7174,0.005815
192.380,71.6960,0.005815
192.489,71.6740,0.005759
192.597,71.6522,0.005759
192.706,71.6306,0.005712
192.816,71.6087,0.005712
192.927,71.5863,0.005787
193.036,71.5647,0.005787
193.145,71.5429,0.005787
193.255,71.5208,0.005778
193.364,71.4989,0.005778
193.472,71.4776,0.005731
193.581,71.4557,0.005731
193.691,71.4337,0.005731
193.799,71.4121,0.005731
193.907,71.3904,0.005731
194.016,71.3685,0.005740
194.125,71.3468,0.005740
194.235,71.3248,0.005749
194.345,71.3028,0.005749
194.454,71.2811,0.005844
194.563,71.2593,0.005844
194.672,71.2375,0.005863
194.782,71.2155,0.005863
194.891,71.1935,0.005863
194.999,71.1718,0.005834
195.109,71.1500,0.005834
195.217,71.1286,0.005891
195.326,71.1067,0.005891
195.436,71.0845,0.005919
195.542,71.0634,0.005919
195.652,71.0415,0.005919
195.763,71.0193,0.005938
195.871,70.9976,0.005938
195.981,70.9756,0.005929
196.091,70.9537,0.005929
196.202,70.9314,0.005853
196.309,70.9100,0.005853
196.418,70.8881,0.005844
196.529,70.8675,0.005844
196.638,70.8550,0.005844
196.748,70.8515,0.005834
196.858,70.8515,0.005834
196.969,70.8515,0.005768
197.079,70.8515,0.005768
197.188,70.8515,0.005759
197.298,70.8547,0.005759
197.407,70.8666,0.005731
197.517,70.8870,0.005731
197.626,70.9090,0.005731
197.734,70.9305,0.005589
197.842,70.9522,0.005589
197.951,70.9738,0.005589
198.060,70.9957,0.005486
198.169,71.0176,0.005467
198.277,71.0391,0.005467
198.387,71.0613,0.005467
198.497,71.0832,0.005467
198.606,71.1049,0.005467
198.715,71.1267,0.005401
198.824,71.1485,0.005401
198.934,71.1706,0.005335
199.043,71.1922,0.005335
199.151,71.2139,0.005335
199.259,71.2355,0.005241
199.368,71.2573,0.005241
199.477,71.2792,0.005193
199.586,71.3010,0.005193
199.696,71.3230,0.005175
199.806,71.3447,0.005175
199.913,71.3663,0.005175
200.022,71.3880,0.005118
200.131,71.4098,0.005118
200.240,71.4315,0.005127
200.349,71.4536,0.005127
200.459,71.4755,0.005071
200.568,71.4973,0.005071
200.677,71.5191,0.005024
200.787,71.5411,0.005024
200.896,71.5629,0.005024
201.006,71.5848,0.004995
201.116,71.6069,0.004995
201.225,71.6287,0.004948
201.333,71.6503,0.004948
201.443,71.6723,0.004901
201.552,71.6940,0.004901
201.663,71.7162,0.004854
201.771,71.7380,0.004854
201.880,71.7597,0.004854
201.990,71.7815,0.004816
202.100,71.8036,0.004816
202.209,71.8253,0.004788
202.318,71.8473,0.004788
202.428,71.8691,0.004713
202.537,71.8912,0.004713
202.644,71.9125,0.004713
202.755,71.9346,0.004675
202.865,71.9567,0.004675
202.975,71.9786,0.004647
203.084,72.0004,0.004647
203.193,72.0223,0.004590
203.303,72.0441,0.004590
203.412,72.0662,0.004590
203.522,72.0880,0.004552
203.630,72.1095,0.004552
203.738,72.1313,0.004496
203.846,72.1529,0.004496
203.955,72.1747,0.004364
204.064,72.1965,0.004364
204.174,72.2185,0.004298
204.283,72.2402,0.004298
204.394,72.2625,0.004298
204.503,72.2842,0.004232
204.612,72.3062,0.004232
204.721,72.3277,0.004119
204.831,72.3498,0.004119
204.938,72.3713,0.004119
205.047,72.3931,0.004109
205.156,72.4151,0.004109
205.265,72.4366,0.004034
205.373,72.4583,0.004034
205.484,72.4805,0.003930
205.592,72.5021,0.003930
205.702,72.5241,0.003836
205.811,72.5458,0.003836
205.919,72.5675,0.003751
206.028,72.5892,0.003751
206.137,72.6111,0.003751
206.247,72.6331,0.003591
206.355,72.6545,0.003591
206.464,72.6764,0.003403
206.573,72.6982,0.003403
206.681,72.7199,0.003271
206.791,72.7420,0.003271
206.901,72.7638,0.003271
207.010,72.7855,0.003082
207.119,72.8075,0.003082
207.229,72.8294,0.002837
207.339,72.8515,0.002837
207.448,72.8732,0.002507
207.556,72.8949,0.002507
207.664,72.9165,0.002111
207.773,72.9381,0.002111
207.881,72.9598,0.002111
207.990,72.9816,0.001640
208.098,73.0032,0.001640
208.206,73.0248,0.001009
208.315,73.0467,0.001009
208.423,73.0683,0.000226
208.532,73.0901,0.000226
208.641,73.1119,0.000226
208.751,73.1338,-0.000754
208.859,73.1556,-0.000754
208.967,73.1771,-0.002036
209.076,73.1988,-0.002036
209.183,73.2205,-0.003685
209.294,73.2424,-0.003685
209.402,73.2640,-0.003685
209.512,73.2859,-0.005759
209.622,73.3079,-0.005759
209.731,73.3300,-0.008228
209.840,73.3516,-0.008228
209.949,73.3734,-0.011245
210.058,73.3952,-0.011245
210.167,73.4170,-0.011245
210.277,73.4389,-0.014722
210.388,73.4611,-0.014722
210.495,73.4826,-0.018577
210.605,73.5048,-0.018577
210.713,73.5262,-0.022753
210.822,73.5481,-0.022753
210.932,73.5700,-0.027136
211.042,73.5919,-0.027136
211.151,73.6140,-0.027136
211.261,73.6357,-0.031726
211.371,73.6579,-0.031726
211.480,73.6796,-0.036439
211.591,73.7018,-0.036439
211.700,73.7235,-0.041321
211.809,73.7455,-0.041321
211.918,73.7673,-0.046514
212.027,73.7890,-0.046514
212.135,73.8104,-0.046514
212.245,73.8320,-0.051925
212.354,73.8463,-0.051925
212.463,73.8515,-0.057174
