Elapsed Time (s),Position (mm),Force (N)
-0.013,78.1515,-0.026806
0.095,78.1515,-0.026806
0.203,78.1515,-0.026806
0.315,78.1515,-0.025665
0.423,78.1515,-0.025665
0.534,78.1515,-0.024647
0.643,78.1515,-0.024647
0.751,78.1515,-0.023856
0.860,78.1515,-0.023856
0.970,78.1515,-0.023205
1.079,78.1515,-0.023205
1.187,78.1515,-0.023205
1.296,78.1515,-0.022583
1.405,78.1515,-0.022583
1.515,78.1515,-0.022084
1.624,78.1515,-0.022084
1.733,78.1515,-0.021603
1.842,78.1515,-0.021603
1.952,78.1515,-0.021603
2.062,78.1515,-0.021141
2.172,78.1515,-0.021141
2.283,78.1515,-0.020783
2.392,78.1515,-0.020783
2.502,78.1515,-0.020453
2.609,78.1515,-0.020453
2.718,78.1515,-0.020142
2.830,78.1515,-0.020142
2.938,78.1515,-0.020142
3.047,78.1515,-0.019765
3.157,78.1515,-0.019765
3.269,78.1515,-0.019511
3.378,78.1515,-0.019511
3.487,78.1515,-0.019416
3.597,78.1515,-0.019416
3.707,78.1515,-0.019416
3.820,78.1515,-0.019690
3.928,78.1515,-0.019690
4.038,78.1515,-0.020274
4.148,78.1483,-0.020274
4.257,78.1361,-0.020491
4.365,78.1162,-0.020491
4.474,78.0943,-0.015297
4.584,78.0724,-0.015297
4.694,78.0502,-0.015297
4.803,78.0286,-0.001612
4.912,78.0069,-0.001612
5.020,77.9852,0.013940
5.129,77.9634,0.013940
5.239,77.9412,0.013940
5.349,77.9195,0.027070
5.456,77.8979,0.027070
5.566,77.8759,0.039474
5.675,77.8541,0.039474
5.785,77.8321,0.052170
5.894,77.8102,0.052170
6.003,77.7885,0.052170
6.112,77.7669,0.065554
6.222,77.7448,0.079616
6.330,77.7233,0.079616
6.439,77.7014,0.079616
6.546,77.6798,0.094650
6.657,77.6579,0.094650
6.764,77.6364,0.111191
6.873,77.6145,0.111191
6.982,77.5927,0.129335
7.091,77.5711,0.129335
7.201,77.5491,0.129335
7.310,77.5272,0.149195
7.420,77.5051,0.149195
7.531,77.4829,0.170977
7.638,77.4616,0.170977
7.747,77.4397,0.195030
7.857,77.4177,0.195030
7.966,77.3961,0.195030
8.073,77.3746,0.221601
8.183,77.3524,0.221601
8.291,77.3311,0.250980
8.400,77.3093,0.250980
8.511,77.2869,0.283695
8.619,77.2654,0.283695
8.727,77.2438,0.320398
8.837,77.2217,0.320398
8.949,77.1994,0.320398
9.058,77.1774,0.361294
9.168,77.1555,0.361294
9.277,77.1336,0.406753
9.387,77.1118,0.406753
9.496,77.0900,0.457330
9.605,77.0682,0.457330
9.714,77.0463,0.457330
9.824,77.0245,0.513892
9.932,77.0027,0.513892
10.042,76.9809,0.577042
10.150,76.9590,0.577042
10.259,76.9373,0.646997
10.369,76.9154,0.646997
10.477,76.8938,0.724757
10.586,76.8720,0.724757
10.695,76.8503,0.724757
10.804,76.8283,0.810377
10.913,76.8066,0.810377
11.024,76.7844,0.903849
11.133,76.7627,0.903849
11.240,76.7411,1.005690
11.351,76.7190,1.005690
11.459,76.6975,1.005690
11.568,76.6755,1.115374
11.678,76.6534,1.115374
11.786,76.6320,1.231184
11.895,76.6103,1.231184
12.004,76.5883,1.335334
12.115,76.5661,1.335334
12.225,76.5442,1.335334
12.335,76.5222,0.832998
12.445,76.5003,0.832998
12.554,76.4783,0.147225
12.664,76.4565,0.147225
12.773,76.4347,0.008106
12.883,76.4126,0.008106
12.992,76.3907,0.008106
13.100,76.3692,0.007493
13.210,76.3471,0.007493
13.321,76.3249,0.007587
13.430,76.3032,0.007587
13.540,76.2811,0.007455
13.651,76.2592,0.007455
13.760,76.2373,0.007455
13.870,76.2153,0.007314
13.977,76.1938,0.007314
14.085,76.1722,0.007210
14.194,76.1503,0.007210
14.302,76.1288,0.007069
14.411,76.1071,0.007069
14.520,76.0853,0.006928
14.630,76.0631,0.006928
14.740,76.0410,0.006852
14.848,76.0197,0.006852
14.957,75.9977,0.006852
15.066,75.9759,0.006777
15.176,75.9538,0.006777
15.286,75.9321,0.006645
15.394,75.9104,0.006645
15.505,75.8883,0.006532
15.614,75.8665,0.006532
15.723,75.8447,0.006419
15.830,75.8232,0.006419
15.940,75.8013,0.006419
16.050,75.7789,0.006400
16.159,75.7575,0.006400
16.269,75.7354,0.006372
16.377,75.7140,0.006372
16.486,75.6920,0.006268
16.595,75.6703,0.006268
16.703,75.6487,0.006268
16.812,75.6268,0.006155
16.922,75.6049,0.006155
17.033,75.5827,0.006061
17.142,75.5609,0.006061
17.250,75.5392,0.006032
17.359,75.5173,0.006032
17.472,75.4948,0.006032
17.576,75.4741,0.005966
17.688,75.4518,0.005966
17.798,75.4297,0.005853
17.904,75.4085,0.005853
18.013,75.3865,0.005806
18.123,75.3647,0.005806
18.232,75.3429,0.005721
18.339,75.3213,0.005721
18.449,75.2995,0.005721
18.558,75.2776,0.005693
18.667,75.2558,0.005693
18.775,75.2342,0.005627
18.886,75.2120,0.005627
18.995,75.1903,0.005618
19.105,75.1682,0.005618
19.215,75.1462,0.005618
19.324,75.1246,0.005627
19.434,75.1086,0.005627
19.542,75.1019,0.005495
19.652,75.1015,0.005495
19.763,75.1015,0.005401
19.873,75.1015,0.005401
19.983,75.1015,0.005354
20.092,75.1015,0.005354
20.203,75.1015,0.005354
20.312,75.1045,0.005354
20.421,75.1162,0.005354
20.528,75.1359,0.005222
20.636,75.1575,0.005222
20.745,75.1793,0.005137
20.855,75.2012,0.005137
20.963,75.2227,0.005137
21.073,75.2448,0.005156
21.182,75.2667,0.005156
21.290,75.2883,0.005099
21.399,75.3103,0.005099
21.508,75.3318,0.005024
21.618,75.3538,0.005024
21.725,75.3752,0.004967
21.834,75.3971,0.004967
21.943,75.4189,0.004967
22.052,75.4406,0.004948
22.160,75.4623,0.004948
22.270,75.4844,0.004911
22.379,75.5061,0.004911
22.488,75.5279,0.004892
22.596,75.5495,0.004892
22.705,75.5713,0.004892
22.815,75.5932,0.004892
22.923,75.6149,0.004892
23.032,75.6366,0.004864
23.140,75.6583,0.004864
23.249,75.6801,0.004798
23.358,75.7018,0.004798
23.468,75.7239,0.004750
23.576,75.7455,0.004750
23.685,75.7674,0.004750
23.794,75.7891,0.004779
23.902,75.8106,0.004779
24.009,75.8321,0.004741
24.117,75.8536,0.004741
24.226,75.8756,0.004675
24.335,75.8973,0.004675
24.443,75.9188,0.004675
24.553,75.9408,0.004647
24.662,75.9626,0.004647
24.772,75.9846,0.004637
24.882,76.0066,0.004637
24.990,76.0282,0.004600
25.100,76.0503,0.004600
25.210,76.0721,0.004600
25.318,76.0938,0.004534
25.426,76.1154,0.004534
25.535,76.1372,0.004543
25.645,76.1593,0.004543
25.754,76.1813,0.004524
25.865,76.2031,0.004524
25.974,76.2251,0.004458
26.082,76.2468,0.004458
26.190,76.2682,0.004458
26.299,76.2902,0.004486
26.408,76.3117,0.004486
26.518,76.3338,0.004468
26.626,76.3555,0.004468
26.735,76.3774,0.004515
26.843,76.3989,0.004515
26.953,76.4209,0.004515
27.062,76.4425,0.004524
27.172,76.4645,0.004524
27.280,76.4862,0.004449
27.388,76.5080,0.004449
27.497,76.5295,0.004439
27.605,76.5511,0.004439
27.713,76.5727,0.004439
27.822,76.5948,0.004439
27.931,76.6162,0.004439
28.040,76.6384,0.004336
28.151,76.6604,0.004336
28.259,76.6822,0.004298
28.368,76.7037,0.004298
28.478,76.7257,0.004326
28.587,76.7477,0.004326
28.698,76.7696,0.004326
28.806,76.7915,0.004279
28.918,76.8138,0.004279
29.028,76.8356,0.004336
29.138,76.8577,0.004336
29.247,76.8796,0.004279
29.358,76.9018,0.004279
29.466,76.9234,0.004279
29.574,76.9450,0.004232
29.683,76.9668,0.004232
29.794,76.9889,0.004223
29.904,77.0111,0.004223
30.010,77.0322,0.004204
30.121,77.0544,0.004204
30.229,77.0761,0.004223
30.339,77.0982,0.004223
30.448,77.1198,0.004223
30.558,77.1417,0.004119
30.668,77.1637,0.004119
30.776,77.1852,0.004062
30.885,77.2073,0.004062
30.995,77.2291,0.004034
31.103,77.2507,0.004034
31.212,77.2727,0.004034
31.320,77.2941,0.003949
31.430,77.3162,0.003949
31.541,77.3383,0.003836
31.650,77.3602,0.003836
31.759,77.3821,0.003704
31.869,77.4040,0.003704
31.977,77.4256,0.003516
32.087,77.4476,0.003516
32.195,77.4690,0.003516
32.305,77.4911,0.003176
32.413,77.5129,0.003176
32.523,77.5347,0.002837
32.631,77.5563,0.002837
32.741,77.5783,0.002385
32.850,77.6002,0.002385
32.958,77.6218,0.002385
33.068,77.6438,0.001621
33.177,77.6657,0.001621
33.287,77.6875,0.000669
33.396,77.7094,0.000669
33.504,77.7309,-0.000594
33.613,77.7526,-0.000594
33.720,77.7741,-0.002366
33.830,77.7962,-0.002366
33.939,77.8180,-0.002366
34.050,77.8401,-0.004741
34.159,77.8620,-0.004741
34.268,77.8837,-0.007597
34.377,77.9057,-0.007597
34.488,77.9276,-0.011047
34.595,77.9491,-0.011047
34.704,77.9709,-0.011047
34.814,77.9929,-0.015090
34.922,78.0145,-0.015090
35.030,78.0362,-0.019341
35.140,78.0582,-0.019341
35.250,78.0799,-0.023733
35.358,78.0950,-0.023733
35.467,78.1014,-0.023733
35.575,78.1015,-0.027503
35.686,78.1015,-0.027503
35.794,78.1015,-0.028493
35.904,78.1015,-0.028493
36.013,78.1015,-0.027239
36.123,78.1015,-0.027239
36.234,78.1015,-0.025901
36.344,78.1015,-0.025901
36.454,78.1015,-0.025901
36.564,78.1015,-0.024864
36.672,78.1015,-0.024864
36.782,78.1015,-0.024063
36.892,78.1015,-0.024063
37.001,78.1015,-0.023337
37.111,78.1015,-0.023337
37.219,78.1015,-0.022687
37.329,78.1015,-0.022687
37.437,78.1015,-0.022687
37.546,78.1015,-0.022112
37.654,78.1015,-0.022112
37.763,78.1015,-0.021594
37.872,78.1015,-0.021594
37.982,78.1015,-0.021141
38.092,78.1015,-0.021141
38.202,78.1015,-0.021141
38.311,78.1015,-0.020726
38.420,78.1015,-0.020726
38.530,78.1015,-0.020368
38.639,78.1015,-0.020368
38.748,78.1015,-0.020368
38.857,78.1015,-0.020048
38.967,78.1015,-0.020048
39.076,78.1015,-0.019737
39.184,78.1015,-0.019737
39.294,78.1015,-0.019501
39.406,78.1015,-0.019501
39.516,78.1015,-0.019388
39.626,78.1015,-0.019388
39.736,78.1015,-0.019803
39.845,78.1015,-0.019803
39.954,78.1015,-0.019803
40.064,78.0982,-0.020453
40.173,78.0860,-0.020453
40.282,78.0657,-0.019539
40.391,78.0439,-0.019539
40.499,78.0224,-0.011226
40.608,78.0004,-0.011226
40.718,77.9785,0.004204
40.829,77.9564,0.004204
40.938,77.9345,0.004204
41.048,77.9125,0.018860
41.158,77.8906,0.018860
41.265,77.8691,0.031490
41.374,77.8472,0.031490
41.482,77.8258,0.043866
41.593,77.8035,0.043866
41.701,77.7818,0.043866
41.812,77.7596,0.056750
41.921,77.7380,0.056750
42.030,77.7161,0.070474
42.139,77.6944,0.070474
42.247,77.6727,0.084838
42.357,77.6507,0.084838
42.470,77.6280,0.084838
42.576,77.6068,0.100484
42.686,77.5848,0.100484
42.795,77.5631,0.117704
42.904,77.5413,0.117704
43.014,77.5195,0.136442
43.123,77.4974,0.136442
43.231,77.4760,0.156989
43.340,77.4541,0.156989
43.448,77.4324,0.156989
43.557,77.4107,0.179582
43.667,77.3886,0.179582
43.776,77.3669,0.204541
43.886,77.3449,0.204541
43.998,77.3227,0.204541
44.105,77.3011,0.232119
44.215,77.2791,0.232119
44.324,77.2573,0.262818
44.435,77.2351,0.262818
44.544,77.2134,0.297070
44.655,77.1911,0.297070
44.767,77.1689,0.335299
44.875,77.1470,0.335299
44.984,77.1255,0.377921
45.093,77.1034,0.377921
45.202,77.0818,0.377921
45.312,77.0597,0.425472
45.420,77.0382,0.425472
45.529,77.0163,0.478773
45.637,76.9945,0.478773
45.747,76.9728,0.537813
45.856,76.9510,0.537813
45.964,76.9293,0.537813
46.073,76.9076,0.602679
46.183,76.8855,0.602679
46.293,76.8636,0.674830
46.404,76.8413,0.674830
46.514,76.8195,0.755248
46.623,76.7974,0.755248
46.734,76.7752,0.843847
46.843,76.7536,0.843847
46.952,76.7318,0.843847
47.060,76.7101,0.940523
47.170,76.6883,0.940523
47.279,76.6665,1.045352
47.389,76.6444,1.045352
47.499,76.6222,1.157430
47.606,76.6010,1.157430
47.716,76.5789,1.157430
47.825,76.5571,1.270563
47.934,76.5354,1.270563
48.044,76.5134,1.129107
48.154,76.4913,1.129107
48.265,76.4693,0.472486
48.373,76.4474,0.472486
48.480,76.4261,0.009982
48.590,76.4041,0.009982
48.700,76.3822,0.009982
48.810,76.3602,0.007333
48.917,76.3387,0.007333
49.026,76.3170,0.007550
49.134,76.2954,0.007550
49.243,76.2734,0.007484
49.355,76.2511,0.007484
49.462,76.2298,0.007484
49.571,76.2081,0.007352
49.680,76.1862,0.007352
49.789,76.1643,0.007173
49.898,76.1426,0.007173
50.008,76.1207,0.007031
50.116,76.0988,0.007031
50.225,76.0772,0.006918
50.335,76.0550,0.006918
50.445,76.0333,0.006918
50.553,76.0116,0.006805
50.662,75.9899,0.006805
50.768,75.9686,0.006673
50.879,75.9464,0.006673
50.988,75.9245,0.006673
51.097,75.9028,0.006532
51.208,75.8806,0.006532
51.316,75.8589,0.006456
51.427,75.8367,0.006456
51.535,75.8153,0.006390
51.643,75.7935,0.006390
51.752,75.7719,0.006334
51.861,75.7500,0.006334
51.970,75.7282,0.006249
52.078,75.7065,0.006249
52.188,75.6844,0.006249
52.297,75.6626,0.006145
52.407,75.6408,0.006145
52.515,75.6191,0.006089
52.625,75.5971,0.006089
52.734,75.5753,0.006013
52.843,75.5537,0.006013
52.952,75.5318,0.006013
53.062,75.5098,0.005938
53.171,75.4881,0.005938
53.281,75.4660,0.005853
53.390,75.4442,0.005853
53.499,75.4222,0.005797
53.607,75.4009,0.005797
53.715,75.3793,0.005797
53.825,75.3571,0.005749
53.934,75.3354,0.005749
54.043,75.3136,0.005721
54.152,75.2917,0.005721
54.261,75.2701,0.005665
54.370,75.2480,0.005665
54.479,75.2265,0.005580
54.589,75.2042,0.005580
54.698,75.1825,0.005580
54.809,75.1603,0.005523
54.917,75.1389,0.005523
55.026,75.1170,0.005542
55.136,75.0951,0.005542
55.244,75.0736,0.005542
55.353,75.0581,0.005542
55.461,75.0518,0.005542
55.571,75.0515,0.005401
55.680,75.0515,0.005401
55.788,75.0515,0.005269
55.898,75.0515,0.005269
56.008,75.0515,0.005269
56.118,75.0544,0.005269
56.228,75.0662,0.005212
56.338,75.0865,0.005212
56.447,75.1082,0.005212
56.555,75.1298,0.005118
56.665,75.1519,0.005118
56.774,75.1736,0.005052
56.884,75.1957,0.005052
56.992,75.2174,0.005005
57.100,75.2388,0.005005
57.211,75.2610,0.005005
57.319,75.2826,0.004977
57.428,75.3046,0.004977
57.537,75.3261,0.004967
57.646,75.3480,0.004967
57.754,75.3697,0.004901
57.864,75.3917,0.004901
57.973,75.4134,0.004901
58.084,75.4355,0.004807
58.192,75.4572,0.004807
58.301,75.4791,0.004826
58.410,75.5009,0.004826
58.520,75.5228,0.004835
58.627,75.5442,0.004835
58.738,75.5665,0.004798
58.848,75.5883,0.004798
58.958,75.6104,0.004798
59.068,75.6323,0.004769
59.175,75.6538,0.004769
59.285,75.6758,0.004741
59.393,75.6973,0.004741
59.502,75.7192,0.004732
59.609,75.7406,0.004732
59.717,75.7622,0.004647
59.828,75.7844,0.004647
59.936,75.8061,0.004647
60.044,75.8276,0.004600
60.154,75.8496,0.004600
60.263,75.8713,0.004571
60.374,75.8938,0.004571
60.483,75.9154,0.004571
60.592,75.9371,0.004562
60.700,75.9589,0.004562
60.810,75.9809,0.004581
60.919,76.0026,0.004581
61.027,76.0243,0.004562
61.140,76.0470,0.004562
61.246,76.0680,0.004552
61.353,76.0894,0.004552
61.462,76.1113,0.004552
61.572,76.1332,0.004534
61.680,76.1550,0.004534
61.791,76.1769,0.004486
61.901,76.1989,0.004486
62.010,76.2208,0.004496
62.119,76.2427,0.004496
62.227,76.2641,0.004439
62.335,76.2857,0.004439
62.444,76.3075,0.004439
62.555,76.3297,0.004439
62.663,76.3513,0.004439
62.773,76.3734,0.004486
62.884,76.3956,0.004486
62.993,76.4174,0.004411
63.102,76.4392,0.004411
63.211,76.4609,0.004411
63.321,76.4829,0.004364
63.429,76.5047,0.004364
63.538,76.5263,0.004326
63.646,76.5481,0.004326
63.756,76.5701,0.004345
63.866,76.5919,0.004345
63.974,76.6137,0.004336
64.084,76.6356,0.004336
64.193,76.6574,0.004336
64.302,76.6791,0.004289
64.410,76.7008,0.004289
64.518,76.7224,0.004213
64.628,76.7443,0.004213
64.737,76.7662,0.004185
64.844,76.7875,0.004185
64.954,76.8095,0.004185
65.062,76.8310,0.004213
65.171,76.8530,0.004213
65.280,76.8748,0.004204
65.389,76.8965,0.004204
65.499,76.9187,0.004213
65.608,76.9404,0.004213
65.718,76.9622,0.004175
65.826,76.9840,0.004175
65.936,77.0059,0.004175
66.046,77.0279,0.004119
66.154,77.0497,0.004119
66.263,77.0713,0.004119
66.372,77.0931,0.004119
66.481,77.1152,0.004062
66.591,77.1369,0.004062
66.699,77.1585,0.004062
66.807,77.1803,0.003978
66.916,77.2020,0.003978
67.025,77.2238,0.003978
67.135,77.2458,0.003893
67.243,77.2675,0.003789
67.353,77.2893,0.003789
67.462,77.3111,0.003789
67.571,77.3330,0.003676
67.678,77.3543,0.003676
67.786,77.3760,0.003525
67.894,77.3976,0.003525
68.004,77.4196,0.003261
68.113,77.4412,0.003261
68.222,77.4632,0.002903
68.332,77.4850,0.002903
68.440,77.5068,0.002903
68.547,77.5283,0.002451
68.658,77.5502,0.002451
68.767,77.5722,0.001800
68.874,77.5934,0.001800
68.984,77.6154,0.000820
69.094,77.6377,0.000820
69.203,77.6593,0.000820
69.311,77.6808,-0.000434
69.419,77.7025,-0.000434
69.527,77.7241,-0.002055
69.636,77.7461,-0.002055
69.746,77.7679,-0.004251
69.856,77.7899,-0.004251
69.967,77.8121,-0.004251
70.075,77.8338,-0.007050
70.185,77.8558,-0.007050
70.294,77.8775,-0.010349
70.401,77.8989,-0.010349
70.510,77.9209,-0.014223
70.619,77.9425,-0.014223
70.727,77.9641,-0.014223
70.835,77.9858,-0.018389
70.944,78.0075,-0.018389
71.054,78.0295,-0.022696
71.164,78.0448,-0.022696
71.274,78.0514,-0.026815
71.385,78.0515,-0.026815
71.494,78.0515,-0.028427
71.602,78.0515,-0.028427
71.711,78.0515,-0.028427
71.821,78.0515,-0.027418
71.929,78.0515,-0.027418
72.040,78.0515,-0.026052
72.150,78.0515,-0.026052
72.261,78.0515,-0.024940
72.371,78.0515,-0.024940
72.481,78.0515,-0.024063
72.591,78.0515,-0.024063
72.698,78.0515,-0.024063
72.806,78.0515,-0.023328
72.918,78.0515,-0.023328
73.026,78.0515,-0.022649
73.135,78.0515,-0.022649
73.244,78.0515,-0.022055
73.352,78.0515,-0.022055
73.463,78.0515,-0.022055
73.574,78.0515,-0.021518
73.684,78.0515,-0.021518
73.792,78.0515,-0.021066
73.901,78.0515,-0.021066
74.010,78.0515,-0.020670
74.119,78.0515,-0.020670
74.229,78.0515,-0.020670
74.339,78.0515,-0.020331
74.449,78.0515,-0.020331
74.558,78.0515,-0.019972
74.665,78.0515,-0.019972
74.775,78.0515,-0.019680
74.885,78.0515,-0.019680
74.991,78.0515,-0.019435
75.100,78.0515,-0.019435
75.209,78.0515,-0.019435
75.318,78.0515,-0.019143
75.427,78.0515,-0.019143
75.536,78.0515,-0.019039
75.645,78.0515,-0.019039
75.755,78.0515,-0.019463
75.866,78.0515,-0.019463
75.976,78.0515,-0.020133
76.086,78.0470,-0.020133
76.196,78.0329,-0.020133
76.306,78.0117,-0.019379
76.414,77.9900,-0.019379
76.523,77.9682,-0.011245
76.632,77.9465,-0.011245
76.742,77.9245,0.004119
76.852,77.9026,0.004119
76.961,77.8806,0.004119
77.070,77.8589,0.018851
77.178,77.8374,0.018851
77.288,77.8152,0.031556
77.397,77.7936,0.031556
77.505,77.7717,0.044007
77.614,77.7502,0.044007
77.725,77.7281,0.057014
77.832,77.7064,0.057014
77.941,77.6848,0.057014
78.052,77.6624,0.070634
78.162,77.6407,0.070634
78.269,77.6191,0.084951
78.378,77.5971,0.084951
78.487,77.5755,0.100720
78.598,77.5533,0.100720
78.707,77.5315,0.100720
78.816,77.5097,0.117997
78.924,77.4881,0.117997
79.033,77.4664,0.136829
79.141,77.4447,0.136829
79.251,77.4227,0.157404
79.360,77.4008,0.157404
79.468,77.3793,0.157404
79.579,77.3571,0.180091
79.687,77.3356,0.180091
79.794,77.3142,0.205200
79.904,77.2920,0.205200
80.013,77.2704,0.232892
80.122,77.2486,0.232892
80.231,77.2267,0.263647
80.340,77.2050,0.263647
80.451,77.1829,0.263647
80.559,77.1612,0.298144
80.670,77.1389,0.298144
80.780,77.1169,0.336619
80.890,77.0950,0.336619
80.999,77.0731,0.379335
81.109,77.0513,0.379335
81.220,77.0290,0.427225
81.329,77.0071,0.427225
81.435,76.9861,0.427225
81.544,76.9642,0.480592
81.653,76.9424,0.480592
81.762,76.9206,0.539906
81.872,76.8984,0.539906
81.980,76.8768,0.539906
82.088,76.8555,0.605601
82.197,76.8335,0.605601
82.308,76.8114,0.678667
82.419,76.7891,0.678667
82.527,76.7674,0.759669
82.637,76.7456,0.759669
82.746,76.7239,0.848494
82.853,76.7022,0.848494
82.962,76.6806,0.848494
83.071,76.6588,0.945471
83.178,76.6374,0.945471
83.288,76.6155,0.945471
83.396,76.5937,1.049688
83.504,76.5722,1.161869
83.613,76.5502,1.161869
83.720,76.5288,1.161869
83.828,76.5075,1.280959
83.937,76.4856,1.280959
84.046,76.4635,1.393367
84.156,76.4418,1.393367
84.265,76.4200,0.941494
84.374,76.3982,0.941494
84.482,76.3766,0.223194
84.591,76.3548,0.223194
84.700,76.3330,0.223194
84.810,76.3110,0.007946
84.918,76.2893,0.007946
85.029,76.2672,0.007946
85.137,76.2455,0.007305
85.245,76.2241,0.007324
85.354,76.2021,0.007324
85.463,76.1803,0.007324
85.571,76.1587,0.007314
85.681,76.1367,0.007314
85.792,76.1147,0.007201
85.904,76.0922,0.007201
86.011,76.0709,0.007022
86.119,76.0491,0.007022
86.229,76.0272,0.007022
86.338,76.0054,0.006956
86.446,75.9838,0.006956
86.555,75.9620,0.006871
86.664,75.9402,0.006871
86.773,75.9185,0.006692
86.883,75.8964,0.006692
86.992,75.8747,0.006617
87.102,75.8526,0.006617
87.213,75.8304,0.006617
87.322,75.8087,0.006522
87.431,75.7869,0.006522
87.540,75.7652,0.006447
87.649,75.7432,0.006447
87.760,75.7209,0.006343
87.870,75.6991,0.006343
87.980,75.6771,0.006202
88.089,75.6550,0.006202
88.197,75.6336,0.006202
88.307,75.6116,0.006108
88.416,75.5899,0.006108
88.522,75.5686,0.005995
88.632,75.5468,0.005995
88.742,75.5247,0.005985
88.850,75.5030,0.005985
88.959,75.4812,0.005985
89.068,75.4593,0.006013
89.177,75.4376,0.006013
89.287,75.4156,0.005929
89.397,75.3935,0.005929
89.506,75.3719,0.005825
89.614,75.3503,0.005825
89.722,75.3286,0.005825
89.832,75.3067,0.005797
89.941,75.2847,0.005797
90.050,75.2629,0.005740
90.159,75.2413,0.005740
90.268,75.2195,0.005702
90.378,75.1974,0.005702
90.487,75.1756,0.005702
90.595,75.1539,0.005684
90.704,75.1323,0.005684
90.812,75.1106,0.005627
90.920,75.0890,0.005627
91.029,75.0673,0.005589
91.138,75.0453,0.005589
91.247,75.0239,0.005542
91.357,75.0083,0.005542
91.468,75.0017,0.005542
91.576,75.0014,0.005410
91.686,75.0017,0.005410
91.794,75.0080,0.005269
91.904,75.0234,0.005269
92.013,75.0451,0.005090
92.122,75.0669,0.005090
92.231,75.0887,0.005090
92.339,75.1103,0.005024
92.449,75.1324,0.005024
92.558,75.1542,0.005118
92.668,75.1761,0.005118
92.777,75.1980,0.005080
92.885,75.2196,0.005080
92.994,75.2413,0.004986
93.103,75.2631,0.004986
93.213,75.2851,0.004986
93.322,75.3070,0.004967
93.430,75.3286,0.004967
93.540,75.3507,0.004939
93.651,75.3728,0.004939
93.760,75.3946,0.004911
93.869,75.4164,0.004911
93.978,75.4381,0.004873
94.088,75.4603,0.004873
94.199,75.4823,0.004873
94.309,75.5044,0.004835
94.419,75.5263,0.004835
94.527,75.5479,0.004816
94.635,75.5696,0.004816
94.746,75.5918,0.004750
94.855,75.6135,0.004750
94.964,75.6354,0.004750
95.073,75.6571,0.004788
95.183,75.6791,0.004788
95.292,75.7009,0.004769
95.401,75.7228,0.004769
95.509,75.7443,0.004769
95.619,75.7663,0.004703
95.727,75.7880,0.004703
95.837,75.8101,0.004703
95.948,75.8321,0.004703
96.057,75.8539,0.004675
96.165,75.8756,0.004675
96.273,75.8970,0.004590
96.383,75.9192,0.004590
96.492,75.9409,0.004543
96.603,75.9631,0.004543
96.710,75.9846,0.004543
96.820,76.0064,0.004571
96.929,76.0284,0.004571
97.037,76.0501,0.004543
97.145,76.0715,0.004543
97.254,76.0932,0.004486
97.362,76.1149,0.004486
97.472,76.1369,0.004477
97.582,76.1589,0.004477
97.691,76.1808,0.004477
97.799,76.2022,0.004458
97.909,76.2244,0.004458
98.019,76.2463,0.004392
98.128,76.2681,0.004392
98.236,76.2898,0.004383
98.345,76.3116,0.004383
98.456,76.3338,0.004383
98.563,76.3550,0.004421
98.672,76.3769,0.004421
98.780,76.3987,0.004402
98.890,76.4206,0.004402
98.999,76.4422,0.004355
99.109,76.4643,0.004355
99.216,76.4857,0.004355
99.327,76.5080,0.004355
99.434,76.5294,0.004355
99.542,76.5509,0.004345
99.651,76.5726,0.004345
99.759,76.5943,0.004307
99.869,76.6162,0.004307
99.978,76.6381,0.004260
100.088,76.6601,0.004260
100.196,76.6816,0.004260
100.307,76.7038,0.004232
100.417,76.7260,0.004232
100.525,76.7476,0.004223
100.634,76.7693,0.004223
100.743,76.7911,0.004223
100.851,76.8126,0.004166
100.960,76.8346,0.004166
101.068,76.8561,0.004147
101.176,76.8778,0.004147
101.286,76.8997,0.004128
101.394,76.9214,0.004128
101.503,76.9431,0.004034
101.612,76.9649,0.004034
101.722,76.9869,0.004043
101.829,77.0083,0.004043
101.940,77.0305,0.004043
102.049,77.0524,0.004025
102.159,77.0742,0.004025
102.270,77.0964,0.003921
102.377,77.1179,0.003921
102.486,77.1396,0.003846
102.597,77.1620,0.003846
102.705,77.1834,0.003846
102.815,77.2056,0.003770
102.923,77.2270,0.003770
103.032,77.2489,0.003676
103.141,77.2706,0.003676
103.251,77.2926,0.003676
103.360,77.3146,0.003421
103.467,77.3359,0.003421
103.576,77.3576,0.003205
103.686,77.3796,0.003205
103.796,77.4018,0.002931
103.905,77.4235,0.002931
104.014,77.4452,0.002526
104.123,77.4670,0.002526
104.232,77.4887,0.002074
104.342,77.5108,0.002074
104.450,77.5325,0.002074
104.559,77.5542,0.001301
104.669,77.5762,0.001301
104.777,77.5980,0.000189
104.886,77.6197,0.000189
104.995,77.6415,-0.001291
105.105,77.6636,-0.001291
105.214,77.6852,-0.001291
105.323,77.7071,-0.003167
105.432,77.7290,-0.003167
105.541,77.7505,-0.005589
105.651,77.7726,-0.005589
105.759,77.7943,-0.008634
105.868,77.8160,-0.008634
105.978,77.8380,-0.012206
106.087,77.8601,-0.012206
106.196,77.8816,-0.012206
106.306,77.9037,-0.016231
106.417,77.9260,-0.016231
106.525,77.9475,-0.020500
106.634,77.9692,-0.020500
106.743,77.9887,-0.024930
106.852,77.9993,-0.024930
106.959,78.0014,-0.024930
107.068,78.0014,-0.028041
107.179,78.0014,-0.028041
107.287,78.0014,-0.028107
107.397,78.0014,-0.028107
107.506,78.0014,-0.026655
107.615,78.0014,-0.026655
107.724,78.0014,-0.025439
107.834,78.0014,-0.025439
107.943,78.0014,-0.025439
108.054,78.0014,-0.024515
108.163,78.0014,-0.024515
108.272,78.0014,-0.023771
108.380,78.0014,-0.023771
108.489,78.0014,-0.023007
108.597,78.0014,-0.023007
108.707,78.0014,-0.023007
108.816,78.0014,-0.022338
108.925,78.0014,-0.022338
109.034,78.0014,-0.021744
109.143,78.0014,-0.021744
109.252,78.0014,-0.021283
109.361,78.0014,-0.021283
109.471,78.0014,-0.021283
109.582,78.0014,-0.020877
109.692,78.0014,-0.020877
109.802,78.0014,-0.020406
109.912,78.0014,-0.020406
110.022,78.0014,-0.019963
110.132,78.0014,-0.019963
110.242,78.0014,-0.019643
110.352,78.0014,-0.019643
110.459,78.0014,-0.019643
110.569,78.0014,-0.019350
110.679,78.0014,-0.019350
110.788,78.0014,-0.019058
110.899,78.0014,-0.019058
111.008,78.0014,-0.019030
111.118,78.0014,-0.019030
111.227,78.0014,-0.019595
111.335,78.0014,-0.019595
111.444,78.0014,-0.019595
111.552,77.9964,-0.020180
111.662,77.9820,-0.020180
111.771,77.9606,-0.018587
111.879,77.9391,-0.018587
111.988,77.9172,-0.009143
112.097,77.8955,-0.009143
112.206,77.8737,-0.009143
112.314,77.8521,0.006598
112.423,77.8303,0.006598
112.532,77.8085,0.020962
112.642,77.7866,0.020962
112.750,77.7648,0.033460
112.860,77.7430,0.033460
112.970,77.7209,0.033460
113.080,77.6991,0.045892
113.191,77.6766,0.045892
113.300,77.6550,0.059097
113.409,77.6332,0.059097
113.517,77.6116,0.072981
113.624,77.5901,0.072981
113.735,77.5679,0.087581
113.843,77.5465,0.087581
113.953,77.5244,0.087581
114.061,77.5027,0.103585
114.172,77.4805,0.103585
114.280,77.4588,0.121069
114.390,77.4370,0.121069
114.499,77.4151,0.121069
114.607,77.3936,0.140127
114.714,77.3721,0.161061
114.824,77.3503,0.161061
114.933,77.3285,0.161061
115.042,77.3065,0.184172
115.151,77.2848,0.184172
115.259,77.2633,0.209725
115.370,77.2409,0.209725
115.478,77.2193,0.238039
115.588,77.1973,0.238039
115.696,77.1758,0.238039
115.805,77.1540,0.269585
115.914,77.1322,0.269585
116.024,77.1102,0.304817
116.133,77.0883,0.304817
116.241,77.0668,0.344112
116.349,77.0452,0.344112
116.459,77.0231,0.344112
116.569,77.0011,0.387997
116.679,76.9792,0.387997
116.786,76.9577,0.436867
116.897,76.9357,0.436867
117.004,76.9141,0.491252
117.112,76.8925,0.491252
117.221,76.8708,0.551622
117.330,76.8489,0.551622
117.440,76.8271,0.551622
117.548,76.8052,0.618523
117.658,76.7834,0.618523
117.766,76.7617,0.692965
117.876,76.7399,0.692965
117.986,76.7178,0.775060
118.093,76.6963,0.775060
118.203,76.6744,0.775060
118.312,76.6524,0.865045
118.421,76.6307,0.865045
118.531,76.6089,0.962513
118.640,76.5871,0.962513
118.748,76.5654,1.067719
118.857,76.5434,1.067719
118.968,76.5215,1.179137
119.077,76.4996,1.179137
119.187,76.4776,1.179137
119.295,76.4560,1.269960
119.405,76.4339,1.269960
119.513,76.4123,0.735200
119.622,76.3906,0.735200
119.731,76.3688,0.087468
119.840,76.3470,0.087468
119.951,76.3248,0.087468
120.061,76.3028,0.008332
120.171,76.2809,0.008332
120.280,76.2589,0.007748
120.389,76.2372,0.007748
120.500,76.2150,0.007748
120.608,76.1934,0.007484
120.717,76.1716,0.007484
120.826,76.1496,0.007276
120.936,76.1278,0.007276
121.045,76.1059,0.007078
121.154,76.0843,0.007078
121.261,76.0627,0.007078
121.370,76.0409,0.006965
121.481,76.0188,0.006852
121.588,75.9973,0.006852
121.698,75.9754,0.006852
121.807,75.9534,0.006749
121.917,75.9317,0.006749
122.026,75.9098,0.006635
122.135,75.8881,0.006635
122.246,75.8656,0.006504
122.356,75.8438,0.006504
122.466,75.8216,0.006438
122.574,75.8001,0.006438
122.684,75.7783,0.006438
122.793,75.7564,0.006409
122.902,75.7345,0.006409
123.011,75.7130,0.006277
123.120,75.6910,0.006277
123.231,75.6688,0.006249
123.339,75.6471,0.006249
123.447,75.6256,0.006249
123.556,75.6039,0.006202
123.663,75.5824,0.006202
123.773,75.5604,0.006089
123.883,75.5383,0.006089
123.993,75.5165,0.005995
124.102,75.4946,0.005995
124.210,75.4730,0.005995
124.319,75.4510,0.005881
124.429,75.4293,0.005881
124.539,75.4074,0.005834
124.648,75.3855,0.005834
124.757,75.3637,0.005834
124.866,75.3420,0.005797
124.975,75.3198,0.005759
125.083,75.2985,0.005759
125.192,75.2766,0.005759
125.302,75.2546,0.005721
125.410,75.2330,0.005721
125.520,75.2109,0.005702
125.631,75.1890,0.005702
125.740,75.1670,0.005646
125.848,75.1454,0.005646
125.957,75.1236,0.005646
126.066,75.1016,0.005533
126.175,75.0801,0.005533
126.284,75.0584,0.005533
126.393,75.0364,0.005533
126.504,75.0142,0.005552
126.613,74.9925,0.005552
126.722,74.9712,0.005552
126.829,74.9570,0.005533
126.937,74.9516,0.005533
127.047,74.9515,0.005363
127.158,74.9546,0.005363
127.269,74.9666,0.005250
127.377,74.9864,0.005250
127.485,75.0081,0.005231
127.594,75.0300,0.005231
127.704,75.0522,0.005231
127.814,75.0740,0.005127
127.924,75.0958,0.005127
128.034,75.1181,0.005099
128.144,75.1398,0.005099
128.252,75.1614,0.005071
128.360,75.1831,0.005071
128.470,75.2051,0.005071
128.579,75.2272,0.005061
128.689,75.2489,0.005061
128.797,75.2704,0.004995
128.906,75.2923,0.004995
129.016,75.3143,0.004882
129.126,75.3364,0.004882
129.234,75.3579,0.004882
129.342,75.3795,0.004882
129.452,75.4014,0.004882
129.559,75.4230,0.004873
129.670,75.4451,0.004873
129.778,75.4668,0.004835
129.888,75.4887,0.004835
129.996,75.5106,0.004779
130.105,75.5321,0.004779
130.215,75.5540,0.004779
130.324,75.5762,0.004732
130.435,75.5981,0.004732
130.544,75.6201,0.004722
130.654,75.6419,0.004722
130.764,75.6641,0.004713
130.873,75.6857,0.004713
130.982,75.7075,0.004703
131.092,75.7297,0.004703
131.199,75.7509,0.004703
131.308,75.7729,0.004684
131.417,75.7944,0.004684
131.525,75.8161,0.004656
131.635,75.8382,0.004656
131.745,75.8601,0.004618
131.853,75.8816,0.004618
131.963,75.9038,0.004618
132.073,75.9257,0.004600
132.183,75.9477,0.004600
132.291,75.9692,0.004515
132.400,75.9910,0.004515
132.509,76.0130,0.004486
132.616,76.0342,0.004486
132.725,76.0561,0.004486
132.835,76.0780,0.004486
132.943,76.0997,0.004486
133.052,76.1215,0.004468
133.162,76.1436,0.004468
133.273,76.1656,0.004449
133.383,76.1878,0.004449
133.494,76.2098,0.004449
133.604,76.2319,0.004458
133.713,76.2537,0.004458
133.822,76.2754,0.004534
133.932,76.2975,0.004534
134.040,76.3191,0.004477
134.147,76.3405,0.004477
134.258,76.3628,0.004364
134.366,76.3842,0.004364
134.475,76.4063,0.004355
134.584,76.4278,0.004355
134.694,76.4499,0.004355
134.802,76.4714,0.004373
134.909,76.4929,0.004373
135.020,76.5150,0.004345
135.129,76.5368,0.004345
135.239,76.5588,0.004251
135.346,76.5803,0.004251
135.455,76.6020,0.004251
135.564,76.6238,0.004270
135.674,76.6461,0.004270
135.784,76.6679,0.004232
135.893,76.6898,0.004232
136.002,76.7113,0.004175
136.111,76.7332,0.004175
136.219,76.7548,0.004166
136.329,76.7770,0.004166
136.436,76.7984,0.004166
136.546,76.8202,0.004100
136.655,76.8421,0.004100
136.764,76.8639,0.004072
136.873,76.8857,0.004072
136.983,76.9076,0.004015
137.092,76.9296,0.004015
137.202,76.9515,0.004015
137.312,76.9735,0.003968
137.421,76.9951,0.003968
137.528,77.0167,0.003902
137.638,77.0386,0.003902
137.745,77.0600,0.003808
137.855,77.0821,0.003808
137.965,77.1039,0.003808
138.074,77.1260,0.003704
138.184,77.1480,0.003704
138.293,77.1696,0.003657
138.400,77.1911,0.003657
138.510,77.2129,0.003657
138.618,77.2346,0.003563
138.727,77.2567,0.003289
138.836,77.2783,0.003289
138.946,77.3002,0.003289
139.055,77.3220,0.003035
139.164,77.3440,0.003035
139.273,77.3656,0.002715
139.383,77.3876,0.002715
139.492,77.4095,0.002177
139.602,77.4316,0.002177
139.712,77.4534,0.002177
139.822,77.4756,0.001593
139.932,77.4974,0.001593
140.042,77.5195,0.000754
140.151,77.5412,0.000754
140.260,77.5631,-0.000471
140.370,77.5851,-0.000471
140.480,77.6070,-0.002074
140.589,77.6290,-0.002074
140.698,77.6506,-0.002074
140.806,77.6724,-0.004204
140.915,77.6940,-0.004204
141.025,77.7161,-0.006928
141.134,77.7380,-0.006928
141.242,77.7595,-0.010208
141.352,77.7813,-0.010208
141.462,77.8036,-0.010208
141.572,77.8255,-0.013921
141.682,77.8474,-0.013921
141.792,77.8695,-0.018021
141.901,77.8912,-0.018021
142.010,77.9130,-0.022319
142.120,77.9341,-0.022319
142.230,77.9474,-0.022319
142.339,77.9515,-0.026608
142.449,77.9515,-0.026608
142.559,77.9515,-0.028700
142.669,77.9515,-0.028700
142.779,77.9515,-0.027861
142.888,77.9515,-0.027861
142.998,77.9515,-0.026391
143.108,77.9515,-0.026391
143.220,77.9515,-0.025166
143.329,77.9515,-0.025166
143.440,77.9515,-0.025166
143.548,77.9515,-0.024270
143.657,77.9515,-0.024270
143.766,77.9515,-0.023488
143.876,77.9515,-0.023488
143.986,77.9515,-0.022772
144.094,77.9515,-0.022772
144.206,77.9515,-0.022772
144.317,77.9515,-0.022187
144.426,77.9515,-0.022187
144.535,77.9515,-0.021612
144.644,77.9515,-0.021612
144.754,77.9515,-0.021094
144.866,77.9515,-0.021094
144.975,77.9515,-0.020698
145.086,77.9515,-0.020698
145.195,77.9515,-0.020698
145.304,77.9515,-0.020293
145.414,77.9515,-0.020293
145.524,77.9515,-0.019916
145.635,77.9515,-0.019916
145.746,77.9515,-0.019558
145.856,77.9515,-0.019558
145.967,77.9515,-0.019558
146.078,77.9515,-0.019218
146.187,77.9515,-0.019218
146.297,77.9515,-0.018964
146.406,77.9515,-0.018964
146.516,77.9515,-0.019002
146.626,77.9515,-0.019002
146.735,77.9515,-0.019577
146.844,77.9515,-0.019577
146.955,77.9515,-0.019577
147.063,77.9464,-0.020161
147.172,77.9322,-0.020161
147.278,77.9115,-0.018728
147.388,77.8896,-0.018728
147.498,77.8676,-0.009557
147.606,77.8460,-0.009557
147.716,77.8238,-0.009557
147.826,77.8020,0.006032
147.936,77.7799,0.006032
148.045,77.7580,0.020415
148.155,77.7362,0.020415
148.265,77.7143,0.032876
148.373,77.6926,0.032876
148.482,77.6708,0.045430
148.590,77.6491,0.045430
148.700,77.6273,0.045430
148.810,77.6052,0.058767
148.918,77.5836,0.058767
149.028,77.5614,0.072585
149.137,77.5397,0.072585
149.246,77.5181,0.087176
149.355,77.4962,0.087176
149.463,77.4746,0.087176
149.571,77.4529,0.103152
149.680,77.4312,0.103152
149.790,77.4091,0.120541
149.898,77.3875,0.120541
150.008,77.3656,0.139562
150.118,77.3435,0.139562
150.228,77.3217,0.160411
150.338,77.2996,0.160411
150.447,77.2776,0.160411
150.556,77.2561,0.183381
150.666,77.2339,0.183381
150.777,77.2118,0.208867
150.883,77.1906,0.208867
150.991,77.1691,0.237058
151.100,77.1473,0.237058
151.210,77.1252,0.237058
151.318,77.1036,0.268445
151.428,77.0814,0.268445
151.537,77.0597,0.303611
151.645,77.0383,0.303611
151.753,77.0167,0.342934
151.863,76.9946,0.342934
151.972,76.9728,0.386583
152.083,76.9506,0.386583
152.190,76.9291,0.386583
152.298,76.9076,0.435029
152.407,76.8860,0.435029
152.516,76.8639,0.489094
152.626,76.8419,0.489094
152.734,76.8205,0.549360
152.843,76.7985,0.549360
152.952,76.7768,0.549360
153.060,76.7551,0.616563
153.171,76.7329,0.616563
153.278,76.7115,0.691033
153.388,76.6898,0.691033
153.497,76.6679,0.772968
153.606,76.6460,0.772968
153.715,76.6240,0.862754
153.824,76.6025,0.862754
153.933,76.5806,0.862754
154.041,76.5590,0.960411
154.152,76.5368,0.960411
154.262,76.5148,1.066041
154.371,76.4928,1.066041
154.481,76.4711,1.179815
154.591,76.4492,1.179815
154.699,76.4275,1.179815
154.807,76.4058,1.302063
154.916,76.3839,1.302063
155.026,76.3621,1.432284
155.136,76.3400,1.432284
155.246,76.3178,1.570140
155.356,76.2961,1.570140
155.463,76.2747,1.570140
155.572,76.2528,1.715612
155.683,76.2306,1.715612
155.792,76.2089,1.867888
155.901,76.1871,1.867888
156.009,76.1654,2.027357
156.115,76.1442,2.027357
156.223,76.1225,2.194790
156.333,76.1007,2.194790
156.442,76.0788,2.194790
156.550,76.0571,2.371780
156.660,76.0352,2.371780
156.771,76.0131,2.559194
156.881,75.9911,2.559194
156.989,75.9696,2.756449
157.097,75.9477,2.756449
157.207,75.9259,2.756449
157.315,75.9042,1.433170
157.426,75.8821,1.433170
157.534,75.8602,0.008134
157.642,75.8390,0.008134
157.752,75.8168,0.007324
157.863,75.7947,0.007324
157.972,75.7727,0.007126
158.080,75.7513,0.007126
158.187,75.7297,0.007126
158.297,75.7076,0.006928
158.408,75.6857,0.006928
158.516,75.6641,0.006739
158.626,75.6420,0.006739
158.736,75.6201,0.006692
158.846,75.5981,0.006692
158.955,75.5762,0.006692
159.064,75.5545,0.006579
159.170,75.5332,0.006579
159.280,75.5112,0.006494
159.389,75.4893,0.006494
159.499,75.4675,0.006381
159.608,75.4457,0.006381
159.716,75.4240,0.006381
159.826,75.4020,0.006240
159.936,75.3802,0.006240
160.045,75.3584,0.006174
160.153,75.3364,0.006174
160.263,75.3147,0.006127
160.374,75.2924,0.006127
160.481,75.2712,0.006117
160.590,75.2492,0.006117
160.699,75.2274,0.006117
160.810,75.2053,0.006051
160.920,75.1833,0.006051
161.028,75.1617,0.005919
161.137,75.1398,0.005919
161.247,75.1179,0.005853
161.355,75.0963,0.005853
161.465,75.0742,0.005853
161.576,75.0522,0.005825
161.684,75.0305,0.005825
161.792,75.0090,0.005768
161.900,74.9872,0.005768
162.009,74.9656,0.005749
162.117,74.9439,0.005749
162.226,74.9223,0.005749
162.335,74.9074,0.005665
162.445,74.9016,0.005665
162.554,74.9015,0.005514
162.663,74.9032,0.005514
162.772,74.9134,0.005448
162.882,74.9326,0.005448
162.992,74.9547,0.005391
163.102,74.9764,0.005391
163.212,74.9987,0.005391
163.320,75.0202,0.005269
163.429,75.0422,0.005269
163.538,75.0637,0.005193
163.647,75.0855,0.005193
163.755,75.1071,0.005193
163.861,75.1284,0.005193
163.971,75.1505,0.005193
164.081,75.1722,0.005175
164.187,75.1934,0.005175
164.296,75.2154,0.005118
164.405,75.2370,0.005118
164.514,75.2590,0.005061
164.622,75.2805,0.005061
164.731,75.3024,0.005033
164.840,75.3241,0.005033
164.949,75.3460,0.005033
165.059,75.3679,0.005014
165.167,75.3896,0.005014
165.277,75.4116,0.005005
165.386,75.4333,0.005005
165.497,75.4556,0.004939
165.605,75.4771,0.004939
165.714,75.4989,0.004939
165.824,75.5211,0.004864
165.932,75.5426,0.004864
166.043,75.5646,0.004864
166.152,75.5866,0.004864
166.260,75.6080,0.004816
166.370,75.6301,0.004816
166.480,75.6521,0.004769
166.588,75.6738,0.004769
166.697,75.6955,0.004769
166.805,75.7172,0.004798
166.913,75.7388,0.004798
167.022,75.7607,0.004741
167.132,75.7825,0.004741
167.241,75.8042,0.004722
167.350,75.8262,0.004722
167.460,75.8481,0.004722
167.570,75.8701,0.004675
167.679,75.8919,0.004675
167.789,75.9140,0.004628
167.898,75.9358,0.004628
168.008,75.9578,0.004618
168.118,75.9796,0.004618
168.226,76.0014,0.004600
168.336,76.0233,0.004600
168.444,76.0450,0.004600
168.554,76.0668,0.004609
168.661,76.0883,0.004609
168.770,76.1103,0.004581
168.877,76.1317,0.004581
168.986,76.1532,0.004581
169.094,76.1749,0.004552
169.202,76.1965,0.004552
169.311,76.2182,0.004486
169.419,76.2398,0.004486
169.529,76.2619,0.004486
169.638,76.2837,0.004486
169.748,76.3058,0.004505
169.858,76.3277,0.004505
169.966,76.3492,0.004505
170.075,76.3712,0.004486
170.185,76.3931,0.004486
170.293,76.4147,0.004430
170.402,76.4366,0.004430
170.511,76.4582,0.004383
170.620,76.4800,0.004383
170.728,76.5017,0.004373
170.838,76.5237,0.004373
170.947,76.5457,0.004373
171.056,76.5672,0.004317
171.165,76.5891,0.004317
171.273,76.6108,0.004317
171.382,76.6325,0.004317
171.492,76.6544,0.004298
171.602,76.6765,0.004298
171.710,76.6980,0.004298
171.819,76.7199,0.004241
171.929,76.7419,0.004241
172.036,76.7633,0.004213
172.146,76.7854,0.004213
172.255,76.8070,0.004213
172.363,76.8287,0.004185
172.472,76.8505,0.004175
172.580,76.8721,0.004175
172.692,76.8945,0.004175
172.798,76.9157,0.004081
172.906,76.9373,0.004081
173.016,76.9594,0.003978
173.124,76.9809,0.003978
173.233,77.0027,0.003893
173.342,77.0244,0.003893
173.451,77.0463,0.003893
173.560,77.0680,0.003808
173.668,77.0896,0.003808
173.777,77.1114,0.003714
173.886,77.1334,0.003714
173.994,77.1549,0.003516
174.104,77.1768,0.003516
174.212,77.1985,0.003516
174.320,77.2201,0.003346
174.430,77.2422,0.003346
174.539,77.2639,0.003139
174.646,77.2853,0.003139
174.756,77.3073,0.002856
174.865,77.3291,0.002856
174.973,77.3507,0.002856
175.082,77.3724,0.002413
175.192,77.3945,0.002413
175.298,77.4157,0.001781
175.409,77.4379,0.001781
175.520,77.4600,0.000961
175.629,77.4819,0.000961
175.739,77.5041,-0.000189
175.847,77.5254,-0.000189
175.957,77.5475,-0.000189
176.066,77.5692,-0.001744
176.174,77.5909,-0.001744
176.283,77.6126,-0.003836
176.393,77.6348,-0.003836
176.502,77.6564,-0.003836
176.609,77.6779,-0.006522
176.717,77.6994,-0.006522
176.827,77.7215,-0.009595
176.936,77.7433,-0.009595
177.047,77.7653,-0.013186
177.156,77.7874,-0.013186
177.266,77.8092,-0.017173
177.375,77.8310,-0.017173
177.484,77.8527,-0.021386
177.593,77.8747,-0.021386
177.703,77.8922,-0.021386
177.812,77.9006,-0.025722
177.919,77.9015,-0.025722
178.028,77.9015,-0.028163
178.137,77.9015,-0.028163
178.247,77.9015,-0.027730
178.358,77.9015,-0.027730
178.466,77.9015,-0.027730
178.574,77.9015,-0.026297
178.682,77.9015,-0.026297
178.792,77.9015,-0.025072
178.903,77.9015,-0.025072
179.012,77.9015,-0.024148
179.121,77.9015,-0.024148
179.230,77.9015,-0.023328
179.339,77.9015,-0.023328
179.448,77.9015,-0.023328
179.559,77.9015,-0.022593
179.670,77.9015,-0.022593
179.778,77.9015,-0.022018
179.887,77.9015,-0.022018
179.995,77.9015,-0.021480
180.105,77.9015,-0.021480
180.213,77.9015,-0.021480
180.323,77.9015,-0.020981
180.432,77.9015,-0.020981
180.542,77.9015,-0.020595
180.652,77.9015,-0.020595
180.762,77.9015,-0.020199
180.872,77.9015,-0.020199
180.979,77.9015,-0.019793
181.088,77.9015,-0.019793
181.197,77.9015,-0.019793
181.306,77.9015,-0.019463
181.415,77.9015,-0.019463
181.525,77.9015,-0.019115
181.635,77.9015,-0.019115
181.744,77.9015,-0.018813
181.854,77.9015,-0.018813
181.964,77.9015,-0.018813
182.073,77.9015,-0.018719
182.182,77.9015,-0.018719
182.290,77.9015,-0.019200
182.398,77.9015,-0.019200
182.509,77.9015,-0.019869
182.617,77.8973,-0.019869
182.725,77.8844,-0.019586
182.833,77.8637,-0.019586
182.943,77.8416,-0.019586
183.051,77.8201,-0.012677
183.159,77.7984,-0.012677
183.268,77.7766,0.000641
183.378,77.7548,0.000641
183.486,77.7331,0.013507
183.594,77.7115,0.013507
183.703,77.6896,0.013507
183.813,77.6678,0.026080
183.922,77.6457,0.026080
184.032,77.6240,0.039558
184.141,77.6021,0.039558
184.250,77.5803,0.053140
184.359,77.5583,0.053140
184.469,77.5366,0.053140
184.577,77.5149,0.067090
184.685,77.4932,0.067090
184.793,77.4717,0.082058
184.902,77.4499,0.082058
185.010,77.4285,0.098015
185.120,77.4064,0.098015
185.228,77.3847,0.115226
185.337,77.3628,0.115226
185.448,77.3408,0.115226
185.557,77.3187,0.133841
185.666,77.2972,0.133841
185.776,77.2752,0.154152
185.884,77.2535,0.154152
185.994,77.2316,0.176632
186.103,77.2096,0.176632
186.213,77.1878,0.201317
186.321,77.1661,0.201317
186.430,77.1442,0.201317
186.539,77.1226,0.228604
186.647,77.1009,0.228604
186.758,77.0788,0.259133
186.866,77.0571,0.259133
186.976,77.0352,0.293290
187.084,77.0136,0.293290
187.192,76.9919,0.293290
187.302,76.9698,0.331199
187.411,76.9481,0.331199
187.521,76.9262,0.373284
187.630,76.9038,0.373284
187.738,76.8829,0.420166
187.847,76.8609,0.420166
187.956,76.8391,0.420166
188.066,76.8170,0.472778
188.176,76.7953,0.472778
188.285,76.7731,0.531055
188.394,76.7515,0.531055
188.504,76.7296,0.595638
188.613,76.7076,0.595638
188.723,76.6857,0.667752
188.832,76.6640,0.667752
188.937,76.6430,0.667752
189.042,76.6218,0.747727
189.148,76.6007,0.747727
189.256,76.5793,0.835826
189.362,76.5581,0.835826
189.471,76.5361,0.931607
189.581,76.5143,0.931607
189.690,76.4923,0.931607
189.798,76.4707,1.035079
189.907,76.4489,1.035079
190.017,76.4268,1.145365
190.125,76.4053,1.145365
190.235,76.3833,1.246934
190.343,76.3616,1.246934
190.452,76.3400,1.246934
190.562,76.3179,0.944472
190.672,76.2959,0.944472
190.781,76.2742,0.306128
190.890,76.2525,0.306128
190.999,76.2306,0.306128
191.109,76.2084,0.011923
191.219,76.1866,0.008210
191.325,76.1653,0.008210
191.436,76.1432,0.008210
191.544,76.1216,0.007644
191.654,76.0994,0.007644
191.763,76.0778,0.007408
191.873,76.0556,0.007408
191.983,76.0337,0.007295
192.092,76.0117,0.007295
192.201,75.9903,0.007295
192.307,75.9691,0.007078
192.419,75.9466,0.007078
192.528,75.9247,0.006852
192.637,75.9031,0.006852
192.747,75.8809,0.006683
192.857,75.8589,0.006683
192.965,75.8374,0.006683
193.073,75.8157,0.006551
193.182,75.7941,0.006551
193.291,75.7721,0.006494
193.399,75.7507,0.006494
193.507,75.7290,0.006447
193.616,75.7071,0.006447
193.727,75.6851,0.006343
193.836,75.6632,0.006343
193.947,75.6410,0.006343
194.054,75.6196,0.006258
194.162,75.5981,0.006258
194.271,75.5763,0.006174
194.378,75.5546,0.006174
194.488,75.5329,0.006013
194.598,75.5109,0.006013
194.707,75.4890,0.006013
194.816,75.4671,0.005947
194.928,75.4448,0.005947
195.035,75.4235,0.005891
195.144,75.4014,0.005891
195.253,75.3797,0.005834
195.362,75.3580,0.005834
195.472,75.3361,0.005834
195.578,75.3147,0.005778
195.688,75.2926,0.005778
195.795,75.2714,0.005684
195.905,75.2495,0.005684
196.015,75.2274,0.005646
196.124,75.2056,0.005646
196.234,75.1836,0.005486
196.343,75.1619,0.005486
196.452,75.1400,0.005486
196.561,75.1181,0.005448
196.670,75.0964,0.005448
196.778,75.0747,0.005504
196.889,75.0527,0.005504
196.997,75.0310,0.005420
197.107,75.0089,0.005420
197.215,74.9873,0.005420
197.325,74.9653,0.005372
197.435,74.9435,0.005372
197.545,74.9212,0.005363
197.654,74.8996,0.005363
197.762,74.8780,0.005335
197.872,74.8605,0.005335
197.983,74.8522,0.005269
198.092,74.8515,0.005269
198.200,74.8532,0.005269
198.308,74.8634,0.005175
198.417,74.8823,0.005175
198.526,74.9038,0.004911
198.636,74.9260,0.004911
198.746,74.9479,0.004911
198.855,74.9696,0.004807
198.963,74.9915,0.004807
199.073,75.0133,0.004882
199.180,75.0349,0.004882
199.290,75.0568,0.004882
199.399,75.0786,0.004882
199.509,75.1007,0.004892
199.619,75.1225,0.004892
199.726,75.1439,0.004864
199.836,75.1659,0.004864
199.944,75.1876,0.004864
200.054,75.2097,0.004798
200.164,75.2315,0.004798
200.274,75.2536,0.004741
200.382,75.2753,0.004741
200.491,75.2969,0.004713
200.601,75.3191,0.004713
200.709,75.3405,0.004713
200.818,75.3622,0.004647
200.926,75.3840,0.004647
201.036,75.4060,0.004618
201.145,75.4278,0.004618
201.255,75.4497,0.004618
201.362,75.4712,0.004609
201.472,75.4931,0.004581
201.579,75.5145,0.004581
201.689,75.5365,0.004581
201.799,75.5586,0.004562
201.909,75.5805,0.004562
202.018,75.6025,0.004571
202.127,75.6242,0.004571
202.238,75.6465,0.004628
202.348,75.6682,0.004628
202.454,75.6896,0.004628
202.563,75.7112,0.004534
202.672,75.7331,0.004534
202.780,75.7548,0.004449
202.890,75.7767,0.004449
203.000,75.7988,0.004411
203.109,75.8206,0.004411
203.218,75.8422,0.004411
203.328,75.8641,0.004430
203.437,75.8862,0.004430
203.547,75.9082,0.004515
203.656,75.9300,0.004515
203.766,75.9518,0.004458
203.874,75.9735,0.004458
203.982,75.9951,0.004307
204.092,76.0172,0.004307
204.201,76.0390,0.004307
204.311,76.0608,0.004223
204.420,76.0825,0.004223
204.528,76.1044,0.004175
204.636,76.1260,0.004175
204.747,76.1482,0.004251
204.856,76.1697,0.004251
204.965,76.1916,0.004251
205.075,76.2138,0.004279
205.185,76.2358,0.004279
205.295,76.2578,0.004185
205.404,76.2795,0.004185
205.511,76.3011,0.004081
205.622,76.3230,0.004081
205.732,76.3451,0.004100
205.841,76.3668,0.004100
205.951,76.3890,0.004100
206.060,76.4108,0.004062
206.168,76.4322,0.004062
206.277,76.4541,0.003949
206.388,76.4763,0.003949
206.497,76.4982,0.003940
206.607,76.5201,0.003940
206.716,76.5418,0.003940
206.825,76.5639,0.003855
206.936,76.5858,0.003855
207.044,76.6074,0.003827
207.152,76.6291,0.003827
207.259,76.6505,0.003798
207.368,76.6724,0.003798
207.477,76.6941,0.003714
207.586,76.7159,0.003714
207.694,76.7376,0.003714
207.803,76.7592,0.003714
207.913,76.7812,0.003714
208.021,76.8028,0.003723
208.132,76.8251,0.003723
208.241,76.8469,0.003685
208.350,76.8687,0.003685
208.458,76.8902,0.003685
208.566,76.9119,0.003619
208.676,76.9338,0.003619
208.783,76.9553,0.003535
208.891,76.9768,0.003535
209.000,76.9986,0.003431
209.109,77.0204,0.003431
209.219,77.0425,0.003308
209.328,77.0643,0.003308
209.437,77.0860,0.003308
209.545,77.1079,0.003101
209.655,77.1298,0.003101
209.763,77.1514,0.003101
209.873,77.1732,0.002960
209.980,77.1947,0.002856
210.087,77.2162,0.002856
210.195,77.2376,0.002856
210.304,77.2597,0.002507
210.415,77.2817,0.002507
210.525,77.3038,0.001998
210.635,77.3258,0.001998
210.745,77.3476,0.001517
210.854,77.3694,0.001517
210.963,77.3914,0.001517
211.071,77.4128,0.000716
211.180,77.4347,0.000716
211.290,77.4566,-0.000452
211.399,77.4786,-0.000452
211.507,77.5001,-0.001960
211.617,77.5220,-0.001960
211.726,77.5440,-0.003864
211.834,77.5655,-0.003864
211.944,77.5876,-0.003864
212.055,77.6097,-0.006334
212.165,77.6316,-0.006334
212.273,77.6533,-0.009567
212.383,77.6754,-0.009567
212.493,77.6972,-0.013243
212.601,77.7188,-0.013243
212.710,77.7406,-0.013243
212.819,77.7623,-0.017409
212.928,77.7843,-0.017409
213.035,77.8057,-0.021726
213.146,77.8278,-0.021726
213.255,77.8439,-0.025995
213.364,77.8511,-0.025995
213.472,77.8515,-0.028823
213.580,77.8515,-0.028823
213.691,77.8515,-0.028823
213.800,77.8515,-0.028710
213.911,77.8515,-0.028710
