Elapsed Time (s),Position (mm),Force (N)
-0.019,72.6514,-0.080069
0.091,72.6514,-0.080069
0.199,72.6514,-0.078485
0.309,72.6514,-0.078485
0.419,72.6514,-0.078485
0.527,72.6514,-0.077345
0.637,72.6514,-0.077345
0.747,72.6514,-0.076402
0.856,72.6514,-0.076402
0.965,72.6514,-0.075554
1.073,72.6514,-0.075554
1.182,72.6514,-0.074734
1.291,72.6514,-0.074734
1.402,72.6514,-0.074734
1.510,72.6514,-0.074037
1.619,72.6514,-0.074037
1.726,72.6514,-0.073386
1.836,72.6514,-0.073386
1.945,72.6514,-0.072783
2.055,72.6514,-0.072783
2.163,72.6514,-0.072783
2.273,72.6514,-0.072283
2.382,72.6514,-0.072283
2.491,72.6514,-0.071756
2.601,72.6514,-0.071756
2.710,72.6514,-0.071256
2.820,72.6514,-0.071256
2.930,72.6514,-0.070851
3.041,72.6514,-0.070851
3.150,72.6514,-0.070851
3.260,72.6514,-0.070408
3.372,72.6514,-0.070408
3.480,72.6514,-0.069918
3.589,72.6514,-0.069918
3.699,72.6514,-0.069918
3.806,72.6514,-0.068937
3.914,72.6514,-0.068937
4.022,72.6512,-0.067524
4.130,72.6447,-0.067524
4.241,72.6290,-0.066411
4.347,72.6078,-0.066411
4.457,72.5861,-0.059644
4.566,72.5640,-0.059644
4.676,72.5422,-0.044582
4.787,72.5200,-0.044582
4.896,72.4981,-0.044582
5.005,72.4763,-0.029219
5.114,72.4546,-0.029219
5.222,72.4332,-0.016730
5.329,72.4115,-0.016730
5.438,72.3899,-0.016730
5.548,72.3677,-0.005307
5.656,72.3461,-0.005307
5.766,72.3243,0.005636
5.876,72.3022,0.005636
5.986,72.2801,0.016410
6.096,72.2582,0.016410
6.205,72.2365,0.027579
6.316,72.2143,0.027579
6.426,72.1923,0.039097
6.535,72.1704,0.039097
6.643,72.1487,0.039097
6.754,72.1267,0.051331
6.865,72.1045,0.051331
6.973,72.0828,0.064423
7.082,72.0610,0.064423
7.192,72.0391,0.078231
7.301,72.0171,0.078231
7.409,71.9956,0.078231
7.518,71.9739,0.092916
7.627,71.9519,0.092916
7.736,71.9302,0.108741
7.844,71.9085,0.108741
7.953,71.8867,0.108741
8.062,71.8651,0.125980
8.170,71.8436,0.125980
8.280,71.8215,0.144736
8.389,71.7994,0.144736
8.498,71.7777,0.165284
8.606,71.7560,0.165284
8.716,71.7342,0.187961
8.826,71.7122,0.187961
8.935,71.6904,0.213071
9.043,71.6688,0.213071
9.153,71.6467,0.213071
9.260,71.6254,0.240857
9.370,71.6034,0.240857
9.478,71.5816,0.271857
9.588,71.5598,0.271857
9.699,71.5376,0.306769
9.807,71.5160,0.306769
9.917,71.4939,0.306769
10.025,71.4725,0.345884
10.132,71.4509,0.345884
10.242,71.4292,0.389806
10.352,71.4070,0.389806
10.460,71.3852,0.438988
10.571,71.3632,0.438988
10.681,71.3414,0.494032
10.788,71.3197,0.494032
10.900,71.2975,0.494032
11.009,71.2755,0.555524
11.118,71.2538,0.555524
11.225,71.2324,0.623820
11.332,71.2109,0.623820
11.442,71.1890,0.699167
11.551,71.1671,0.699167
11.660,71.1454,0.699167
11.770,71.1232,0.781498
11.879,71.1018,0.781498
11.989,71.0797,0.871416
12.099,71.0576,0.871416
12.208,71.0357,0.969280
12.317,71.0138,0.969280
12.427,70.9921,0.969280
12.536,70.9703,1.075938
12.645,70.9482,1.075938
12.754,70.9265,1.191861
12.863,70.9048,1.191861
12.971,70.8832,1.316229
13.080,70.8614,1.316229
13.190,70.8393,1.448185
13.298,70.8179,1.448185
13.407,70.7959,1.448185
13.515,70.7743,1.587370
13.624,70.7528,1.587370
13.734,70.7306,1.734142
13.844,70.7086,1.734142
13.954,70.6865,1.887936
14.064,70.6646,1.887936
14.174,70.6428,1.887936
14.281,70.6212,2.049657
14.390,70.5995,2.049657
14.500,70.5774,2.220596
14.611,70.5551,2.220596
14.722,70.5330,2.356266
14.833,70.5109,2.356266
14.941,70.4891,1.552043
15.050,70.4674,1.552043
15.159,70.4458,1.552043
15.266,70.4242,0.354734
15.376,70.4023,0.354734
15.486,70.3801,0.008521
15.595,70.3585,0.008521
15.706,70.3364,0.007239
15.814,70.3145,0.007239
15.923,70.2928,0.007239
16.031,70.2712,0.007107
16.140,70.2495,0.007107
16.249,70.2277,0.007144
16.359,70.2056,0.007144
16.467,70.1841,0.007069
16.575,70.1625,0.007069
16.685,70.1405,0.006994
16.791,70.1193,0.006994
16.901,70.0971,0.006994
17.009,70.0757,0.006956
17.119,70.0538,0.006956
17.228,70.0317,0.006928
17.338,70.0100,0.006928
17.446,69.9883,0.006956
17.553,69.9670,0.006956
17.663,69.9450,0.006956
17.771,69.9233,0.006947
17.881,69.9011,0.006947
17.990,69.8795,0.006899
18.098,69.8578,0.006899
18.208,69.8357,0.006956
18.318,69.8139,0.006956
18.427,69.7921,0.006956
18.535,69.7704,0.006956
18.646,69.7482,0.006956
18.754,69.7266,0.006918
18.863,69.7049,0.006918
18.973,69.6829,0.006965
19.081,69.6612,0.006965
19.191,69.6392,0.006984
19.302,69.6182,0.006984
19.412,69.6052,0.006984
19.519,69.6015,0.006928
19.628,69.6015,0.006928
19.737,69.6015,0.006767
19.846,69.6015,0.006767
19.954,69.6024,0.006711
20.065,69.6114,0.006711
20.174,69.6295,0.006711
20.284,69.6512,0.006579
20.394,69.6733,0.006579
20.502,69.6948,0.006381
20.612,69.7169,0.006381
20.720,69.7385,0.006381
20.830,69.7605,0.006381
20.939,69.7823,0.006315
21.047,69.8037,0.006315
21.157,69.8258,0.006315
21.267,69.8478,0.006183
21.377,69.8697,0.006183
21.485,69.8913,0.006183
21.594,69.9133,0.006183
21.704,69.9351,0.006145
21.813,69.9569,0.006145
21.921,69.9787,0.006145
22.030,70.0006,0.006013
22.139,70.0221,0.006013
22.249,70.0443,0.005957
22.359,70.0660,0.005957
22.469,70.0881,0.005910
22.578,70.1101,0.005910
22.687,70.1318,0.005910
22.796,70.1537,0.005863
22.904,70.1752,0.005863
23.012,70.1970,0.005740
23.124,70.2191,0.005740
23.233,70.2410,0.005665
23.343,70.2631,0.005665
23.451,70.2845,0.005655
23.558,70.3059,0.005655
23.667,70.3277,0.005655
23.776,70.3496,0.005580
23.885,70.3714,0.005580
23.994,70.3932,0.005561
24.103,70.4151,0.005561
24.211,70.4368,0.005523
24.320,70.4585,0.005523
24.429,70.4802,0.005523
24.539,70.5022,0.005410
24.646,70.5237,0.005410
24.756,70.5456,0.005316
24.863,70.5671,0.005316
24.973,70.5889,0.005278
25.082,70.6109,0.005278
25.192,70.6328,0.005222
25.300,70.6544,0.005222
25.409,70.6762,0.005222
25.519,70.6983,0.005109
25.629,70.7201,0.005109
25.738,70.7422,0.005080
25.847,70.7639,0.005080
25.955,70.7855,0.005024
26.064,70.8072,0.005024
26.174,70.8293,0.005024
26.282,70.8509,0.004929
26.389,70.8721,0.004929
26.500,70.8944,0.004892
26.609,70.9161,0.004892
26.718,70.9379,0.004713
26.826,70.9596,0.004713
26.936,70.9815,0.004600
27.045,71.0035,0.004600
27.154,71.0252,0.004600
27.264,71.0473,0.004524
27.373,71.0690,0.004524
27.481,71.0907,0.004411
27.590,71.1124,0.004411
27.699,71.1341,0.004298
27.809,71.1561,0.004298
27.919,71.1782,0.004298
28.029,71.2001,0.004147
28.136,71.2216,0.004147
28.244,71.2433,0.004006
28.353,71.2650,0.004006
28.461,71.2868,0.003798
28.570,71.3084,0.003798
28.680,71.3305,0.003798
28.790,71.3524,0.003591
28.899,71.3741,0.003591
29.007,71.3957,0.003289
29.117,71.4178,0.003289
29.227,71.4397,0.003007
29.336,71.4616,0.003007
29.445,71.4833,0.002601
29.555,71.5053,0.002601
29.663,71.5270,0.002601
29.772,71.5487,0.002083
29.883,71.5711,0.002083
29.991,71.5928,0.001555
30.100,71.6144,0.001555
30.210,71.6363,0.000801
30.319,71.6581,0.000801
30.427,71.6800,-0.000160
30.536,71.7015,-0.000160
30.646,71.7236,-0.000160
30.756,71.7456,-0.001225
30.867,71.7677,-0.001225
30.976,71.7895,-0.002517
31.084,71.8112,-0.002517
31.192,71.8329,-0.002517
31.303,71.8548,-0.004336
31.411,71.8765,-0.004336
31.519,71.8981,-0.006570
31.628,71.9198,-0.006570
31.738,71.9422,-0.009105
31.847,71.9637,-0.009105
31.954,71.9853,-0.012130
32.064,72.0071,-0.012130
32.175,72.0293,-0.015656
32.283,72.0509,-0.015656
32.392,72.0727,-0.015656
32.502,72.0946,-0.019454
32.613,72.1170,-0.019454
32.721,72.1385,-0.023488
32.828,72.1599,-0.023488
32.938,72.1819,-0.027786
33.046,72.2036,-0.027786
33.155,72.2252,-0.027786
33.263,72.2469,-0.032254
33.371,72.2686,-0.032254
33.481,72.2905,-0.036919
33.590,72.3124,-0.036919
33.699,72.3342,-0.041698
33.807,72.3558,-0.041698
33.918,72.3778,-0.041698
34.026,72.3995,-0.046741
34.135,72.4215,-0.046741
34.245,72.4433,-0.052207
34.354,72.4652,-0.052207
34.463,72.4871,-0.058023
34.573,72.5089,-0.058023
34.682,72.5308,-0.064507
34.791,72.5526,-0.064507
34.900,72.5743,-0.064507
35.009,72.5919,-0.072104
35.118,72.6005,-0.072104
35.227,72.6015,-0.079456
35.336,72.6015,-0.079456
35.446,72.6015,-0.081869
35.554,72.6015,-0.081869
35.664,72.6015,-0.081869
35.772,72.6015,-0.080172
35.881,72.6015,-0.080172
35.990,72.6015,-0.078712
36.098,72.6015,-0.078712
36.207,72.6015,-0.078712
36.315,72.6015,-0.077543
36.423,72.6015,-0.077543
36.533,72.6015,-0.076478
36.641,72.6015,-0.076478
36.752,72.6015,-0.075582
36.862,72.6015,-0.075582
36.969,72.6015,-0.074800
37.078,72.6015,-0.074800
37.187,72.6015,-0.074121
37.296,72.6015,-0.074121
37.406,72.6015,-0.074121
37.515,72.6015,-0.073499
37.623,72.6015,-0.073499
37.732,72.6015,-0.072943
37.840,72.6015,-0.072943
37.951,72.6015,-0.072444
38.060,72.6015,-0.072444
38.170,72.6015,-0.072444
38.281,72.6015,-0.071972
38.391,72.6015,-0.071972
38.500,72.6015,-0.071435
38.610,72.6015,-0.071435
38.722,72.6015,-0.071020
38.831,72.6015,-0.071020
38.941,72.6015,-0.070709
39.051,72.6015,-0.070709
39.161,72.6015,-0.070709
39.269,72.6015,-0.069955
39.376,72.6015,-0.069955
39.485,72.6015,-0.068532
39.596,72.6015,-0.068532
39.704,72.5969,-0.067429
39.812,72.5832,-0.067429
39.922,72.5620,-0.067429
40.033,72.5399,-0.063782
40.139,72.5186,-0.063782
40.249,72.4967,-0.051425
40.357,72.4750,-0.051425
40.466,72.4533,-0.034940
40.576,72.4313,-0.034940
40.686,72.4093,-0.021405
40.795,72.3874,-0.021405
40.905,72.3653,-0.021405
41.015,72.3435,-0.009689
41.123,72.3217,-0.009689
41.232,72.3000,0.001386
41.341,72.2783,0.001386
41.450,72.2564,0.012206
41.560,72.2345,0.012206
41.670,72.2124,0.023168
41.778,72.1909,0.023168
41.887,72.1692,0.023168
41.996,72.1472,0.034506
42.106,72.1253,0.034506
42.216,72.1034,0.046637
42.326,72.0814,0.046637
42.434,72.0595,0.046637
42.543,72.0380,0.059352
42.653,72.0158,0.059352
42.762,71.9941,0.072717
42.870,71.9725,0.072717
42.979,71.9508,0.087157
43.088,71.9290,0.087157
43.197,71.9071,0.102501
43.307,71.8850,0.102501
43.416,71.8633,0.102501
43.526,71.8413,0.118949
43.634,71.8197,0.118949
43.744,71.7977,0.137055
43.852,71.7761,0.137055
43.962,71.7543,0.156971
44.070,71.7323,0.156971
44.178,71.7108,0.156971
44.287,71.6891,0.178753
44.398,71.6668,0.178753
44.506,71.6452,0.202872
44.618,71.6230,0.202872
44.724,71.6018,0.229669
44.836,71.5794,0.229669
44.943,71.5579,0.259528
45.054,71.5359,0.259528
45.161,71.5144,0.259528
45.270,71.4926,0.292998
45.378,71.4707,0.292998
45.487,71.4490,0.330681
45.596,71.4273,0.330681
45.705,71.4055,0.373142
45.815,71.3834,0.373142
45.924,71.3618,0.373142
46.032,71.3401,0.420571
46.142,71.3182,0.420571
46.250,71.2966,0.473381
46.359,71.2745,0.473381
46.470,71.2526,0.532252
46.577,71.2311,0.532252
46.686,71.2094,0.597797
46.794,71.1877,0.597797
46.904,71.1658,0.597797
47.013,71.1441,0.669986
47.122,71.1221,0.669986
47.231,71.1003,0.749272
47.341,71.0785,0.749272
47.450,71.0566,0.836391
47.557,71.0353,0.836391
47.667,71.0132,0.836391
47.776,70.9914,0.931644
47.886,70.9692,0.931644
47.995,70.9476,1.035607
48.106,70.9254,1.035607
48.215,70.9035,1.035607
48.322,70.8821,1.148023
48.431,70.8603,1.268612
48.542,70.8380,1.268612
48.651,70.8164,1.268612
48.758,70.7949,1.397071
48.866,70.7732,1.397071
48.975,70.7515,1.533117
49.083,70.7299,1.533117
49.192,70.7082,1.676817
49.301,70.6864,1.676817
49.410,70.6646,1.676817
49.519,70.6426,1.827246
49.629,70.6208,1.827246
49.739,70.5989,1.985574
49.847,70.5771,1.985574
49.958,70.5551,2.152950
50.068,70.5329,2.152950
50.175,70.5117,2.329648
50.286,70.4893,2.329648
50.393,70.4680,2.329648
50.501,70.4463,2.514480
50.611,70.4241,2.514480
50.720,70.4025,2.706155
50.830,70.3807,2.706155
50.940,70.3586,2.905993
51.050,70.3365,2.905993
51.161,70.3142,2.905993
51.271,70.2924,3.113238
51.380,70.2707,3.113238
51.489,70.2489,3.326714
51.597,70.2272,3.326714
51.706,70.2052,3.326714
51.815,70.1835,3.545403
51.924,70.1619,3.545403
52.033,70.1400,3.415068
52.143,70.1180,3.415068
52.253,70.0959,1.592205
52.362,70.0742,1.592205
52.471,70.0524,0.009171
52.580,70.0306,0.009171
52.688,70.0089,0.008078
52.797,69.9872,0.008078
52.905,69.9656,0.008078
53.015,69.9436,0.007757
53.126,69.9214,0.007757
53.236,69.8994,0.007578
53.343,69.8779,0.007578
53.451,69.8563,0.007484
53.560,69.8345,0.007484
53.669,69.8128,0.007484
53.778,69.7908,0.007418
53.887,69.7693,0.007418
53.996,69.7472,0.007352
54.106,69.7255,0.007352
54.215,69.7035,0.007276
54.325,69.6817,0.007276
54.432,69.6602,0.007229
54.543,69.6380,0.007229
54.651,69.6163,0.007229
54.762,69.5940,0.007267
54.873,69.5723,0.007267
54.985,69.5572,0.007229
55.095,69.5515,0.007229
55.204,69.5515,0.007012
55.315,69.5515,0.007012
55.423,69.5515,0.007012
55.532,69.5537,0.006881
55.640,69.5646,0.006881
55.750,69.5842,0.006758
55.858,69.6058,0.006758
55.968,69.6277,0.006758
56.078,69.6500,0.006570
56.187,69.6715,0.006466
56.294,69.6930,0.006466
56.404,69.7151,0.006466
56.513,69.7366,0.006400
56.621,69.7586,0.006400
56.731,69.7804,0.006343
56.841,69.8025,0.006343
56.952,69.8245,0.006287
57.058,69.8460,0.006287
57.167,69.8676,0.006287
57.274,69.8891,0.006240
57.385,69.9111,0.006240
57.494,69.9331,0.006183
57.603,69.9548,0.006183
57.711,69.9764,0.006117
57.820,69.9982,0.006117
57.928,70.0199,0.006042
58.041,70.0425,0.006042
58.150,70.0643,0.006042
58.257,70.0856,0.006004
58.367,70.1075,0.006004
58.475,70.1291,0.005929
58.583,70.1509,0.005929
58.692,70.1726,0.005844
58.801,70.1944,0.005844
58.910,70.2161,0.005844
59.020,70.2382,0.005806
59.130,70.2601,0.005806
59.239,70.2820,0.005731
59.347,70.3037,0.005731
59.456,70.3253,0.005655
59.565,70.3473,0.005655
59.673,70.3687,0.005655
59.784,70.3910,0.005599
59.894,70.4129,0.005599
60.002,70.4346,0.005561
60.112,70.4567,0.005561
60.221,70.4784,0.005514
60.330,70.5001,0.005514
60.438,70.5217,0.005401
60.546,70.5433,0.005401
60.654,70.5650,0.005401
60.764,70.5868,0.005344
60.874,70.6090,0.005344
60.983,70.6310,0.005241
61.093,70.6527,0.005241
61.203,70.6746,0.005193
61.311,70.6962,0.005193
61.420,70.7183,0.005193
61.530,70.7402,0.005184
61.638,70.7618,0.005184
61.747,70.7836,0.005080
61.855,70.8051,0.005080
61.962,70.8266,0.004995
62.069,70.8478,0.004995
62.178,70.8700,0.004882
62.288,70.8917,0.004882
62.397,70.9137,0.004882
62.507,70.9356,0.004798
62.617,70.9575,0.004798
62.724,70.9791,0.004694
62.834,71.0009,0.004694
62.944,71.0230,0.004534
63.054,71.0448,0.004534
63.164,71.0668,0.004534
63.275,71.0891,0.004392
63.385,71.1111,0.004392
63.495,71.1331,0.004204
63.604,71.1550,0.004204
63.713,71.1768,0.004081
63.825,71.1993,0.004081
63.933,71.2207,0.003968
64.042,71.2424,0.003968
64.150,71.2644,0.003968
64.260,71.2861,0.003704
64.370,71.3081,0.003704
64.479,71.3300,0.003346
64.589,71.3520,0.003346
64.697,71.3735,0.003035
64.806,71.3952,0.003035
64.914,71.4170,0.003035
65.024,71.4390,0.002696
65.135,71.4611,0.002696
65.242,71.4825,0.002168
65.350,71.5041,0.002168
65.459,71.5258,0.001574
65.569,71.5479,0.001574
65.678,71.5697,0.001574
65.788,71.5918,0.000867
65.896,71.6134,0.000867
66.004,71.6348,-0.000009
66.112,71.6565,-0.000009
66.222,71.6786,-0.001074
66.330,71.7001,-0.001074
66.439,71.7218,-0.002460
66.547,71.7437,-0.002460
66.657,71.7655,-0.002460
66.767,71.7875,-0.004251
66.875,71.8092,-0.004251
66.986,71.8313,-0.006372
67.094,71.8531,-0.006372
67.204,71.8748,-0.008888
67.314,71.8968,-0.008888
67.423,71.9187,-0.011895
67.530,71.9402,-0.011895
67.639,71.9620,-0.011895
67.749,71.9838,-0.015335
67.857,72.0055,-0.015335
67.968,72.0276,-0.019162
68.075,72.0492,-0.019162
68.185,72.0711,-0.023243
68.294,72.0930,-0.023243
68.405,72.1152,-0.023243
68.512,72.1367,-0.027484
68.621,72.1583,-0.027484
68.731,72.1804,-0.031980
68.839,72.2019,-0.031980
68.949,72.2239,-0.036665
69.058,72.2459,-0.036665
69.169,72.2678,-0.036665
69.277,72.2895,-0.041415
69.387,72.3116,-0.041415
69.495,72.3331,-0.046430
69.605,72.3551,-0.046430
69.713,72.3766,-0.051972
69.823,72.3986,-0.051972
69.932,72.4206,-0.057910
70.043,72.4427,-0.057910
70.150,72.4639,-0.057910
70.259,72.4859,-0.064385
70.369,72.5078,-0.064385
70.477,72.5294,-0.071690
70.588,72.5449,-0.071690
70.695,72.5512,-0.079343
70.805,72.5515,-0.079343
70.916,72.5515,-0.079343
71.025,72.5515,-0.082972
71.134,72.5515,-0.082972
71.245,72.5515,-0.081812
71.355,72.5515,-0.081812
71.464,72.5515,-0.080191
71.573,72.5515,-0.080191
71.682,72.5515,-0.078975
71.791,72.5515,-0.078975
71.900,72.5515,-0.078975
72.012,72.5515,-0.077976
72.121,72.5515,-0.077976
72.232,72.5515,-0.077072
72.340,72.5515,-0.077072
72.451,72.5515,-0.076251
72.560,72.5515,-0.076251
72.669,72.5515,-0.076251
72.778,72.5515,-0.075516
72.889,72.5515,-0.075516
72.998,72.5515,-0.074809
73.109,72.5515,-0.074809
73.218,72.5515,-0.074225
73.327,72.5515,-0.074225
73.438,72.5515,-0.074225
73.546,72.5515,-0.073650
73.656,72.5515,-0.073650
73.766,72.5515,-0.073113
73.876,72.5515,-0.073113
73.984,72.5515,-0.072632
74.096,72.5515,-0.072632
74.205,72.5515,-0.072180
74.315,72.5515,-0.072180
74.426,72.5515,-0.071718
74.536,72.5515,-0.071718
74.643,72.5515,-0.071718
74.751,72.5515,-0.071247
74.859,72.5515,-0.071247
74.968,72.5515,-0.070427
75.077,72.5515,-0.070427
75.186,72.5515,-0.069003
75.293,72.5515,-0.069003
75.402,72.5511,-0.069003
75.510,72.5439,-0.067825
75.620,72.5278,-0.067825
75.729,72.5062,-0.064884
75.837,72.4844,-0.064884
75.946,72.4626,-0.053470
76.057,72.4405,-0.053470
76.166,72.4186,-0.053470
76.274,72.3971,-0.036853
76.381,72.3756,-0.036853
76.491,72.3534,-0.022932
76.599,72.3318,-0.022932
76.706,72.3106,-0.011047
76.815,72.2889,-0.011047
76.924,72.2670,-0.011047
77.034,72.2450,0.000198
77.144,72.2229,0.000198
77.253,72.2012,0.011113
77.363,72.1793,0.011113
77.473,72.1573,0.021961
77.582,72.1354,0.021961
77.692,72.1134,0.021961
77.802,72.0915,0.033177
77.912,72.0695,0.033177
78.022,72.0474,0.045110
78.132,72.0254,0.045110
78.242,72.0035,0.057825
78.352,71.9815,0.057825
78.462,71.9594,0.071275
78.572,71.9374,0.071275
78.681,71.9156,0.085451
78.788,71.8943,0.085451
78.897,71.8725,0.085451
79.006,71.8507,0.100578
79.114,71.8292,0.100578
79.223,71.8073,0.116998
79.331,71.7856,0.116998
79.440,71.7637,0.134877
79.550,71.7419,0.134877
79.658,71.7204,0.134877
79.768,71.6983,0.154473
79.878,71.6760,0.154473
79.987,71.6545,0.176019
80.097,71.6326,0.176019
80.205,71.6109,0.199790
80.315,71.5889,0.199790
80.425,71.5667,0.199790
80.534,71.5452,0.226323
80.642,71.5234,0.226323
80.752,71.5016,0.255853
80.859,71.4800,0.255853
80.969,71.4580,0.288879
81.075,71.4369,0.288879
81.186,71.4147,0.326081
81.296,71.3929,0.326081
81.407,71.3705,0.326081
81.514,71.3491,0.367534
81.623,71.3272,0.367534
81.731,71.3055,0.414124
81.840,71.2838,0.414124
81.949,71.2621,0.466567
82.057,71.2406,0.466567
82.167,71.2186,0.466567
82.276,71.1964,0.524957
82.384,71.1749,0.524957
82.494,71.1530,0.589606
82.603,71.1314,0.589606
82.713,71.1093,0.661060
82.823,71.0873,0.661060
82.932,71.0656,0.739932
83.040,71.0437,0.739932
83.149,71.0221,0.739932
83.258,71.0002,0.826608
83.368,70.9784,0.826608
83.476,70.9568,0.921814
83.585,70.9350,0.921814
83.694,70.9131,1.025352
83.804,70.8911,1.025352
83.915,70.8690,1.025352
84.024,70.8471,1.136883
84.132,70.8253,1.136883
84.240,70.8039,1.256095
84.350,70.7818,1.256095
84.459,70.7601,1.383197
84.570,70.7379,1.383197
84.677,70.7164,1.383197
84.785,70.6950,1.517970
84.894,70.6730,1.517970
85.004,70.6511,1.659832
85.112,70.6294,1.659832
85.221,70.6078,1.809064
85.331,70.5857,1.809064
85.439,70.5640,1.966016
85.548,70.5422,1.966016
85.658,70.5202,1.966016
85.768,70.4984,2.132384
85.876,70.4766,2.132384
85.986,70.4546,2.308281
86.096,70.4328,2.308281
86.204,70.4110,2.492114
86.313,70.3893,2.492114
86.421,70.3675,2.492114
86.531,70.3457,2.683176
86.640,70.3239,2.683176
86.749,70.3021,2.813746
86.859,70.2802,2.813746
86.969,70.2582,2.813746
87.077,70.2366,1.477158
87.187,70.2146,0.057853
87.297,70.1924,0.057853
87.406,70.1707,0.057853
87.514,70.1490,0.007927
87.622,70.1276,0.007927
87.731,70.1057,0.007437
87.839,70.0840,0.007437
87.948,70.0622,0.007380
88.059,70.0400,0.007380
88.169,70.0182,0.007380
88.279,69.9961,0.007295
88.389,69.9743,0.007295
88.498,69.9523,0.007239
88.607,69.9305,0.007239
88.715,69.9090,0.007182
88.824,69.8870,0.007182
88.933,69.8654,0.007182
89.040,69.8439,0.007163
89.152,69.8215,0.007163
89.261,69.7998,0.007135
89.370,69.7778,0.007135
89.479,69.7562,0.007126
89.589,69.7340,0.007126
89.697,69.7125,0.007097
89.805,69.6910,0.007097
89.913,69.6694,0.007097
90.024,69.6472,0.007050
90.132,69.6255,0.007050
90.244,69.6033,0.007041
90.354,69.5812,0.007041
90.465,69.5588,0.007041
90.574,69.5371,0.007041
90.682,69.5170,0.007078
90.788,69.5050,0.007078
90.898,69.5015,0.007078
91.005,69.5015,0.006965
91.114,69.5015,0.006965
91.225,69.5015,0.006796
91.335,69.5036,0.006796
91.444,69.5143,0.006758
91.555,69.5340,0.006758
91.664,69.5558,0.006758
91.772,69.5775,0.006617
91.880,69.5991,0.006617
91.989,69.6208,0.006438
92.098,69.6426,0.006438
92.206,69.6645,0.006343
92.314,69.6858,0.006343
92.424,69.7080,0.006287
92.534,69.7297,0.006287
92.642,69.7516,0.006287
92.751,69.7732,0.006192
92.860,69.7951,0.006192
92.969,69.8168,0.006174
93.077,69.8385,0.006174
93.187,69.8605,0.006174
93.297,69.8825,0.006164
93.405,69.9041,0.006164
93.515,69.9260,0.006117
93.625,69.9479,0.006117
93.734,69.9698,0.006004
93.841,69.9913,0.006004
93.950,70.0131,0.005929
94.059,70.0348,0.005929
94.168,70.0569,0.005929
94.279,70.0788,0.005929
94.388,70.1008,0.005929
94.498,70.1226,0.005872
94.608,70.1446,0.005872
94.716,70.1661,0.005787
94.826,70.1881,0.005787
94.936,70.2102,0.005674
95.046,70.2322,0.005674
95.155,70.2541,0.005674
95.265,70.2760,0.005599
95.375,70.2978,0.005599
95.485,70.3199,0.005542
95.594,70.3420,0.005542
95.703,70.3636,0.005476
95.813,70.3858,0.005476
95.921,70.4072,0.005476
96.031,70.4293,0.005448
96.138,70.4506,0.005448
96.248,70.4726,0.005372
96.356,70.4942,0.005372
96.466,70.5163,0.005344
96.577,70.5383,0.005344
96.687,70.5604,0.005297
96.796,70.5821,0.005297
96.905,70.6039,0.005297
97.014,70.6258,0.005175
97.121,70.6472,0.005175
97.232,70.6693,0.005175
97.340,70.6911,0.005043
97.449,70.7127,0.004967
97.558,70.7348,0.004967
97.669,70.7567,0.004967
97.779,70.7788,0.004948
97.887,70.8004,0.004948
97.994,70.8217,0.004826
98.102,70.8436,0.004826
98.212,70.8654,0.004722
98.322,70.8875,0.004722
98.432,70.9094,0.004722
98.541,70.9314,0.004637
98.652,70.9533,0.004637
98.761,70.9751,0.004468
98.870,70.9971,0.004468
98.980,71.0189,0.004373
99.091,71.0412,0.004373
99.200,71.0631,0.004241
99.309,71.0848,0.004241
99.417,71.1064,0.004241
99.527,71.1284,0.004072
99.637,71.1505,0.004072
99.747,71.1725,0.003959
99.857,71.1944,0.003959
99.965,71.2159,0.003751
100.074,71.2377,0.003751
100.182,71.2594,0.003459
100.293,71.2815,0.003459
100.404,71.3037,0.003459
100.511,71.3254,0.003110
100.622,71.3473,0.003110
100.729,71.3688,0.002715
100.839,71.3907,0.002715
100.947,71.4123,0.002290
101.055,71.4338,0.002290
101.166,71.4561,0.002290
101.272,71.4774,0.001744
101.380,71.4990,0.001744
101.494,71.5218,0.001027
101.600,71.5428,0.001027
101.709,71.5647,0.000179
101.818,71.5867,0.000179
101.927,71.6083,-0.000829
102.036,71.6302,-0.000829
102.145,71.6519,-0.000829
102.257,71.6743,-0.002168
102.364,71.6958,-0.002168
102.472,71.7173,-0.003893
102.581,71.7394,-0.003893
102.691,71.7611,-0.005891
102.800,71.7832,-0.005891
102.909,71.8047,-0.005891
103.017,71.8262,-0.008332
103.126,71.8480,-0.008332
103.234,71.8698,-0.011329
103.345,71.8919,-0.011329
103.454,71.9137,-0.014628
103.564,71.9356,-0.014628
103.674,71.9577,-0.014628
103.782,71.9795,-0.018248
103.891,72.0012,-0.018248
104.000,72.0230,-0.022244
104.110,72.0448,-0.022244
104.219,72.0668,-0.026485
104.328,72.0885,-0.026485
104.437,72.1103,-0.030934
104.546,72.1322,-0.030934
104.656,72.1542,-0.030934
104.764,72.1757,-0.035496
104.873,72.1975,-0.035496
104.982,72.2193,-0.040218
105.091,72.2412,-0.040218
105.200,72.2630,-0.045195
105.309,72.2847,-0.045195
105.419,72.3067,-0.045195
105.527,72.3285,-0.050464
105.638,72.3506,-0.050464
105.746,72.3721,-0.056128
105.856,72.3941,-0.056128
105.967,72.4163,-0.062434
106.077,72.4385,-0.062434
106.188,72.4606,-0.062434
106.298,72.4820,-0.069578
106.406,72.4962,-0.069578
106.516,72.5015,-0.077741
106.626,72.5015,-0.077741
106.735,72.5015,-0.082717
106.846,72.5015,-0.082717
106.953,72.5015,-0.082303
107.062,72.5015,-0.082303
107.170,72.5015,-0.082303
107.280,72.5015,-0.080568
107.390,72.5015,-0.080568
107.499,72.5015,-0.079305
107.606,72.5015,-0.079305
107.716,72.5015,-0.078203
107.826,72.5015,-0.078203
107.936,72.5015,-0.077232
108.047,72.5015,-0.077232
108.156,72.5015,-0.077232
108.265,72.5015,-0.076487
108.375,72.5015,-0.076487
108.483,72.5015,-0.075743
108.591,72.5015,-0.075743
108.701,72.5015,-0.074998
108.811,72.5015,-0.074998
108.920,72.5015,-0.074998
109.028,72.5015,-0.074366
109.137,72.5015,-0.074366
109.247,72.5015,-0.073810
109.358,72.5015,-0.073810
109.469,72.5015,-0.073311
109.578,72.5015,-0.073311
109.688,72.5015,-0.072811
109.798,72.5015,-0.072811
109.906,72.5015,-0.072811
110.016,72.5015,-0.072378
110.127,72.5015,-0.072378
110.238,72.5015,-0.071822
110.350,72.5015,-0.071822
110.458,72.5015,-0.070643
110.568,72.5015,-0.070643
110.675,72.5015,-0.070643
110.784,72.4991,-0.069192
110.893,72.4882,-0.069192
111.003,72.4685,-0.067929
111.112,72.4467,-0.067929
111.220,72.4251,-0.059738
111.328,72.4034,-0.059738
111.437,72.3818,-0.043366
111.547,72.3596,-0.043366
111.657,72.3377,-0.043366
111.765,72.3158,-0.028022
111.874,72.2944,-0.028022
111.983,72.2725,-0.015646
112.093,72.2506,-0.015646
112.203,72.2285,-0.015646
112.312,72.2068,-0.004251
112.421,72.1847,0.006720
112.530,72.1630,0.006720
112.640,72.1411,0.006720
112.750,72.1191,0.017663
112.858,72.0976,0.017663
112.967,72.0755,0.028898
113.075,72.0540,0.028898
113.184,72.0323,0.040529
113.292,72.0105,0.040529
113.401,71.9889,0.040529
113.510,71.9671,0.052811
113.620,71.9451,0.052811
113.727,71.9237,0.065959
113.837,71.9016,0.065959
113.944,71.8803,0.079890
114.055,71.8582,0.079890
114.164,71.8364,0.079890
114.273,71.8143,0.094688
114.381,71.7927,0.094688
114.491,71.7709,0.110569
114.600,71.7490,0.110569
114.708,71.7275,0.127761
114.819,71.7054,0.127761
114.928,71.6836,0.127761
115.036,71.6620,0.146622
115.144,71.6404,0.146622
115.255,71.6180,0.167320
115.365,71.5961,0.167320
115.473,71.5744,0.190044
115.582,71.5527,0.190044
115.692,71.5306,0.215370
115.800,71.5091,0.215370
115.910,71.4872,0.215370
116.019,71.4653,0.243637
116.127,71.4438,0.243637
116.235,71.4220,0.275241
116.345,71.4002,0.275241
116.454,71.3782,0.275241
116.563,71.3566,0.310614
116.673,71.3347,0.310614
116.783,71.3126,0.350408
116.891,71.2908,0.350408
117.000,71.2691,0.395160
117.109,71.2474,0.395160
117.218,71.2255,0.445152
117.328,71.2035,0.445152
117.438,71.1815,0.501177
117.549,71.1593,0.501177
117.659,71.1374,0.501177
117.769,71.1154,0.563356
117.876,71.0940,0.563356
117.983,71.0725,0.631841
118.091,71.0510,0.631841
118.199,71.0293,0.707725
118.307,71.0078,0.707725
118.416,70.9859,0.707725
118.523,70.9645,0.792007
118.633,70.9425,0.792007
118.743,70.9206,0.884555
118.853,70.8985,0.884555
118.962,70.8768,0.884555
119.069,70.8552,0.984483
119.178,70.8334,1.091914
119.287,70.8118,1.091914
119.396,70.7898,1.091914
119.504,70.7684,1.207375
119.613,70.7463,1.207375
119.722,70.7247,1.331423
119.831,70.7029,1.331423
119.940,70.6812,1.463416
120.050,70.6591,1.463416
120.159,70.6374,1.463416
120.269,70.6153,1.602705
120.377,70.5936,1.602705
120.486,70.5718,1.749590
120.596,70.5499,1.749590
120.703,70.5285,1.903573
120.811,70.5070,1.903573
120.921,70.4848,1.903573
121.030,70.4632,2.066171
121.140,70.4410,2.066171
121.249,70.4194,2.238561
121.359,70.3972,2.238561
121.466,70.3760,2.419755
121.574,70.3544,2.419755
121.682,70.3328,2.607896
121.790,70.3110,2.607896
121.900,70.2892,2.607896
122.009,70.2672,2.008855
122.117,70.2456,2.008855
122.227,70.2239,0.662757
122.335,70.2021,0.662757
122.443,70.1804,0.009463
122.553,70.1586,0.009463
122.662,70.1367,0.009463
122.771,70.1150,0.007550
122.880,70.0930,0.007550
122.990,70.0711,0.007333
123.100,70.0489,0.007333
123.210,70.0271,0.007286
123.319,70.0054,0.007286
123.427,69.9837,0.007220
123.535,69.9620,0.007220
123.645,69.9400,0.007220
123.754,69.9182,0.007192
123.862,69.8969,0.007192
123.970,69.8749,0.007126
124.080,69.8531,0.007126
124.190,69.8311,0.007116
124.299,69.8094,0.007116
124.408,69.7876,0.007116
124.515,69.7660,0.007097
124.625,69.7442,0.007097
124.737,69.7219,0.007060
124.848,69.6996,0.007060
124.957,69.6777,0.007078
125.065,69.6560,0.007078
125.176,69.6340,0.007078
125.287,69.6118,0.007078
125.397,69.5897,0.007078
125.507,69.5677,0.007126
125.617,69.5456,0.007126
125.726,69.5241,0.007097
125.835,69.5022,0.007097
125.945,69.4803,0.007069
126.053,69.4621,0.007069
126.164,69.4528,0.007069
126.273,69.4515,0.006984
126.380,69.4515,0.006984
126.490,69.4515,0.006843
126.600,69.4515,0.006843
126.708,69.4535,0.006843
126.817,69.4638,0.006824
126.926,69.4830,0.006824
127.036,69.5050,0.006645
127.145,69.5265,0.006645
127.253,69.5483,0.006541
127.361,69.5698,0.006541
127.470,69.5918,0.006522
127.579,69.6136,0.006522
127.688,69.6353,0.006390
127.798,69.6573,0.006390
127.908,69.6792,0.006390
128.016,69.7010,0.006277
128.125,69.7228,0.006277
128.233,69.7442,0.006211
128.341,69.7659,0.006211
128.450,69.7879,0.006174
128.560,69.8098,0.006174
128.671,69.8319,0.006174
128.778,69.8533,0.006164
128.889,69.8755,0.006164
128.998,69.8974,0.006108
129.108,69.9193,0.006108
129.216,69.9409,0.006032
129.323,69.9625,0.006032
129.432,69.9841,0.005966
129.540,70.0058,0.005966
129.649,70.0275,0.005966
129.757,70.0493,0.005900
129.868,70.0713,0.005900
129.975,70.0927,0.005853
130.083,70.1143,0.005853
130.193,70.1364,0.005853
130.301,70.1581,0.005815
130.409,70.1794,0.005815
130.518,70.2012,0.005759
130.626,70.2229,0.005759
130.737,70.2453,0.005627
130.846,70.2670,0.005627
130.956,70.2888,0.005561
131.065,70.3106,0.005561
131.172,70.3322,0.005561
131.282,70.3543,0.005561
131.392,70.3762,0.005561
131.501,70.3979,0.005486
131.611,70.4200,0.005486
131.720,70.4417,0.005448
131.830,70.4637,0.005448
131.938,70.4852,0.005429
132.048,70.5073,0.005429
132.154,70.5285,0.005429
132.263,70.5505,0.005307
132.371,70.5719,0.005307
132.480,70.5938,0.005175
132.590,70.6156,0.005175
132.698,70.6373,0.005118
132.807,70.6593,0.005118
132.918,70.6812,0.005118
133.027,70.7030,0.005014
133.135,70.7247,0.005014
133.244,70.7466,0.004958
133.352,70.7681,0.004958
133.462,70.7901,0.004920
133.571,70.8118,0.004920
133.680,70.8339,0.004826
133.791,70.8560,0.004826
133.901,70.8778,0.004826
134.009,70.8995,0.004713
134.119,70.9217,0.004713
134.230,70.9438,0.004562
134.338,70.9653,0.004562
134.446,70.9868,0.004439
134.554,71.0085,0.004439
134.665,71.0307,0.004439
134.774,71.0525,0.004260
134.884,71.0747,0.004260
134.993,71.0962,0.004109
135.101,71.1180,0.004109
135.212,71.1400,0.003902
135.321,71.1618,0.003902
135.430,71.1837,0.003619
135.539,71.2055,0.003619
135.648,71.2272,0.003619
135.757,71.2490,0.003374
135.866,71.2708,0.003374
135.974,71.2924,0.003044
136.082,71.3141,0.003044
136.193,71.3363,0.003044
136.300,71.3578,0.002639
136.408,71.3793,0.002639
136.517,71.4012,0.002121
136.628,71.4231,0.002121
136.738,71.4453,0.001527
136.848,71.4673,0.001527
136.959,71.4895,0.001527
137.065,71.5107,0.000792
137.175,71.5325,0.000792
137.283,71.5543,-0.000254
137.393,71.5763,-0.000254
137.503,71.5982,-0.001461
137.612,71.6199,-0.001461
137.721,71.6419,-0.002931
137.833,71.6643,-0.002931
137.941,71.6858,-0.004750
138.049,71.7074,-0.004750
138.158,71.7291,-0.004750
138.268,71.7512,-0.006947
138.376,71.7730,-0.006947
138.485,71.7947,-0.009614
138.594,71.8164,-0.009614
138.702,71.8382,-0.012771
138.811,71.8598,-0.012771
138.920,71.8819,-0.012771
139.029,71.9035,-0.016419
139.138,71.9252,-0.016419
139.247,71.9471,-0.020302
139.356,71.9688,-0.020302
139.466,71.9910,-0.024308
139.574,72.0125,-0.024308
139.682,72.0341,-0.028625
139.793,72.0561,-0.028625
139.903,72.0783,-0.028625
140.013,72.1002,-0.033159
140.121,72.1219,-0.033159
140.229,72.1436,-0.037815
140.339,72.1654,-0.037815
140.449,72.1873,-0.042697
140.557,72.2089,-0.042697
140.666,72.2308,-0.042697
140.776,72.2528,-0.047777
140.888,72.2754,-0.047777
140.997,72.2971,-0.053188
141.107,72.3191,-0.053188
141.216,72.3409,-0.059248
141.325,72.3627,-0.059248
141.435,72.3847,-0.065959
141.544,72.4065,-0.065959
141.654,72.4284,-0.065959
141.763,72.4442,-0.073754
141.872,72.4511,-0.073754
141.981,72.4515,-0.081134
142.090,72.4515,-0.081134
142.199,72.4515,-0.083264
142.306,72.4515,-0.083264
142.414,72.4515,-0.083264
142.526,72.4515,-0.081464
142.635,72.4515,-0.081464
142.744,72.4515,-0.079965
142.854,72.4515,-0.079965
142.966,72.4515,-0.078787
143.074,72.4515,-0.078787
143.183,72.4515,-0.077844
143.293,72.4515,-0.077844
143.401,72.4515,-0.077844
143.509,72.4515,-0.076968
143.617,72.4515,-0.076968
143.727,72.4515,-0.076176
143.835,72.4515,-0.076176
143.944,72.4515,-0.075460
144.051,72.4515,-0.075460
144.162,72.4515,-0.075460
144.271,72.4515,-0.074800
144.380,72.4515,-0.074800
144.489,72.4515,-0.074225
144.599,72.4515,-0.074225
144.708,72.4515,-0.074225
144.818,72.4515,-0.073725
144.926,72.4515,-0.073725
145.035,72.4515,-0.073217
145.144,72.4515,-0.073217
145.255,72.4515,-0.072708
145.364,72.4515,-0.072708
145.474,72.4515,-0.072293
145.583,72.4515,-0.072293
145.691,72.4515,-0.071878
145.799,72.4515,-0.071878
145.907,72.4515,-0.071878
146.018,72.4515,-0.071379
146.127,72.4515,-0.071379
146.237,72.4515,-0.070351
146.347,72.4515,-0.070351
146.457,72.4515,-0.068890
146.564,72.4500,-0.068890
146.675,72.4402,-0.068890
146.784,72.4216,-0.067778
146.894,72.3995,-0.067778
147.005,72.3773,-0.061039
147.116,72.3553,-0.061039
147.224,72.3337,-0.045845
147.333,72.3116,-0.045845
147.443,72.2898,-0.030227
147.551,72.2681,-0.030227
147.659,72.2466,-0.030227
147.769,72.2247,-0.017550
147.878,72.2030,-0.017550
147.986,72.1811,-0.006061
148.096,72.1589,-0.006061
148.205,72.1375,0.004977
148.315,72.1154,0.004977
148.424,72.0936,0.004977
148.533,72.0718,0.015872
148.642,72.0501,0.015872
148.753,72.0279,0.027013
148.862,72.0059,0.027013
148.973,71.9839,0.038512
149.083,71.9617,0.038512
149.191,71.9402,0.038512
149.300,71.9182,0.050586
149.410,71.8963,0.050586
149.519,71.8747,0.063574
149.629,71.8526,0.063574
149.738,71.8309,0.077317
149.847,71.8090,0.077317
149.956,71.7871,0.091926
150.066,71.7652,0.091926
150.176,71.7431,0.091926
150.283,71.7218,0.107563
150.390,71.7002,0.107563
150.499,71.6787,0.124340
150.608,71.6568,0.124340
150.718,71.6349,0.142748
150.827,71.6130,0.142748
150.937,71.5909,0.163031
151.047,71.5690,0.163031
151.158,71.5468,0.163031
151.268,71.5248,0.185464
151.376,71.5032,0.185464
151.484,71.4817,0.210469
151.594,71.4596,0.210469
151.704,71.4376,0.238538
151.812,71.4162,0.238538
151.920,71.3943,0.238538
152.030,71.3725,0.269717
152.139,71.3507,0.269717
152.248,71.3287,0.304657
152.355,71.3074,0.304657
152.466,71.2851,0.344055
152.577,71.2631,0.344055
152.686,71.2412,0.344055
152.794,71.2196,0.387818
152.902,71.1980,0.387818
153.011,71.1762,0.436490
153.120,71.1545,0.436490
153.229,71.1327,0.491016
153.337,71.1109,0.491016
153.446,71.0892,0.551857
153.553,71.0678,0.551857
153.662,71.0461,0.551857
153.771,71.0243,0.619296
153.880,71.0024,0.619296
153.989,70.9807,0.694171
154.096,70.9590,0.694171
154.207,70.9371,0.777256
154.317,70.9150,0.777256
154.426,70.8933,0.777256
154.535,70.8716,0.868730
154.644,70.8495,0.868730
154.753,70.8278,0.967866
154.862,70.8060,0.967866
154.972,70.7839,1.074515
155.081,70.7622,1.074515
155.190,70.7402,1.189391
155.300,70.7184,1.189391
155.410,70.6963,1.189391
155.521,70.6743,1.312148
155.631,70.6522,1.312148
155.740,70.6302,1.442859
155.850,70.6084,1.442859
155.959,70.5867,1.580951
156.069,70.5646,1.580951
156.177,70.5428,1.725904
156.287,70.5210,1.725904
156.395,70.4994,1.725904
156.503,70.4777,1.878172
156.612,70.4561,1.878172
156.722,70.4339,2.038959
156.833,70.4120,2.038959
156.942,70.3900,2.038959
157.049,70.3687,2.209861
157.158,70.3468,2.209861
157.268,70.3248,2.389462
157.376,70.3033,2.389462
157.486,70.2812,2.576075
157.595,70.2595,2.576075
157.705,70.2376,2.769918
157.816,70.2152,2.769918
157.924,70.1935,2.805914
158.034,70.1717,2.805914
158.142,70.1501,2.805914
158.251,70.1281,1.386269
158.360,70.1064,1.386269
158.469,70.0847,0.018964
158.577,70.0631,0.018964
158.688,70.0410,0.008012
158.798,70.0189,0.008012
158.904,69.9977,0.008012
159.013,69.9758,0.007503
159.123,69.9539,0.007503
159.232,69.9321,0.007493
159.340,69.9105,0.007493
159.449,69.8887,0.007418
159.559,69.8667,0.007418
159.671,69.8443,0.007418
159.780,69.8225,0.007324
159.889,69.8008,0.007324
159.997,69.7789,0.007276
160.107,69.7572,0.007276
160.217,69.7349,0.007276
160.327,69.7131,0.007220
160.436,69.6911,0.007135
160.547,69.6692,0.007135
160.653,69.6478,0.007135
160.763,69.6259,0.007163
160.872,69.6042,0.007163
160.980,69.5824,0.007173
161.089,69.5607,0.007173
161.199,69.5387,0.007135
161.308,69.5169,0.007135
161.416,69.4953,0.007135
161.526,69.4732,0.007163
161.634,69.4516,0.007163
161.743,69.4299,0.007126
161.852,69.4117,0.007126
161.960,69.4028,0.007069
162.069,69.4015,0.007069
162.178,69.4015,0.007069
162.286,69.4015,0.006918
162.394,69.4023,0.006918
162.503,69.4105,0.006833
162.613,69.4276,0.006833
162.720,69.4490,0.006673
162.831,69.4712,0.006673
162.940,69.4929,0.006494
163.048,69.5145,0.006494
163.157,69.5365,0.006494
163.266,69.5582,0.006570
163.376,69.5802,0.006570
163.485,69.6021,0.006475
163.595,69.6239,0.006475
163.703,69.6456,0.006362
163.813,69.6677,0.006362
163.924,69.6899,0.006315
164.033,69.7117,0.006315
164.143,69.7335,0.006315
164.251,69.7551,0.006287
164.360,69.7771,0.006287
164.468,69.7985,0.006249
164.576,69.8204,0.006249
164.686,69.8423,0.006127
164.796,69.8641,0.006127
164.903,69.8857,0.006127
165.014,69.9077,0.006051
165.123,69.9296,0.006051
165.232,69.9513,0.005957
165.341,69.9732,0.005957
165.450,69.9950,0.005957
165.559,70.0168,0.005957
165.669,70.0388,0.005957
165.779,70.0607,0.005891
165.886,70.0820,0.005891
165.994,70.1038,0.005825
166.105,70.1260,0.005825
166.215,70.1479,0.005815
166.323,70.1696,0.005815
166.433,70.1916,0.005815
166.543,70.2136,0.005712
166.650,70.2350,0.005712
166.760,70.2570,0.005627
166.870,70.2790,0.005627
166.980,70.3009,0.005599
167.090,70.3230,0.005599
167.199,70.3449,0.005552
167.308,70.3667,0.005552
167.416,70.3883,0.005552
167.526,70.4102,0.005420
167.635,70.4320,0.005420
167.744,70.4540,0.005316
167.855,70.4759,0.005316
167.963,70.4975,0.005316
168.071,70.5191,0.005316
168.180,70.5409,0.005316
168.290,70.5630,0.005297
168.398,70.5847,0.005297
168.506,70.6063,0.005184
168.616,70.6281,0.005184
168.725,70.6500,0.005099
168.834,70.6718,0.005099
168.945,70.6940,0.004995
169.053,70.7156,0.004995
169.163,70.7378,0.004995
169.272,70.7593,0.004854
169.381,70.7812,0.004854
169.491,70.8031,0.004769
169.599,70.8247,0.004769
169.707,70.8467,0.004666
169.817,70.8684,0.004666
169.926,70.8903,0.004666
170.036,70.9121,0.004524
170.145,70.9341,0.004524
170.254,70.9559,0.004373
170.362,70.9772,0.004373
170.472,70.9993,0.004223
170.581,71.0212,0.004223
170.690,71.0432,0.004053
170.800,71.0649,0.004053
170.909,71.0866,0.004053
171.018,71.1085,0.003864
171.126,71.1300,0.003864
171.236,71.1522,0.003601
171.345,71.1741,0.003601
171.454,71.1959,0.003252
171.564,71.2179,0.003252
171.673,71.2397,0.003252
171.781,71.2613,0.002903
171.890,71.2828,0.002903
172.000,71.3049,0.002517
172.108,71.3267,0.002517
172.218,71.3486,0.001932
172.326,71.3702,0.001932
172.436,71.3921,0.001254
172.545,71.4142,0.001254
172.654,71.4356,0.001254
172.763,71.4576,0.000481
172.872,71.4793,0.000481
172.978,71.5006,-0.000518
173.089,71.5228,-0.000518
173.200,71.5450,-0.001847
173.311,71.5672,-0.001847
173.421,71.5891,-0.001847
173.531,71.6115,-0.003450
173.641,71.6331,-0.003450
173.750,71.6550,-0.005288
173.859,71.6767,-0.005288
173.969,71.6987,-0.007521
174.078,71.7205,-0.007521
174.186,71.7422,-0.010293
174.294,71.7639,-0.010293
174.404,71.7858,-0.010293
174.515,71.8078,-0.013525
174.623,71.8295,-0.013525
174.732,71.8516,-0.017154
174.844,71.8737,-0.017154
174.950,71.8949,-0.021075
175.061,71.9170,-0.021075
175.169,71.9388,-0.021075
175.276,71.9603,-0.025185
175.386,71.9821,-0.025185
175.495,72.0042,-0.029549
175.606,72.0260,-0.029549
175.715,72.0481,-0.029549
175.827,72.0703,-0.034035
175.936,72.0921,-0.038748
176.043,72.1134,-0.038748
176.152,72.1354,-0.038748
176.262,72.1575,-0.043687
176.371,72.1793,-0.043687
176.483,72.2015,-0.048758
176.591,72.2232,-0.048758
176.701,72.2451,-0.054309
176.811,72.2671,-0.054309
176.921,72.2892,-0.060586
177.030,72.3109,-0.060586
177.140,72.3329,-0.060586
177.249,72.3547,-0.067476
177.359,72.3767,-0.067476
177.470,72.3936,-0.075516
177.580,72.4010,-0.075516
177.689,72.4015,-0.082171
177.797,72.4015,-0.082171
177.907,72.4015,-0.082171
178.018,72.4015,-0.083500
178.127,72.4015,-0.083500
178.236,72.4015,-0.081747
178.347,72.4015,-0.081747
178.456,72.4015,-0.080352
178.565,72.4015,-0.080352
178.673,72.4015,-0.080352
178.780,72.4015,-0.079126
178.890,72.4015,-0.079126
179.000,72.4015,-0.078023
179.110,72.4015,-0.078023
179.220,72.4015,-0.077260
179.328,72.4015,-0.077260
179.437,72.4015,-0.077260
179.547,72.4015,-0.076506
179.659,72.4015,-0.076506
179.768,72.4015,-0.075686
179.877,72.4015,-0.075686
179.986,72.4015,-0.075092
180.095,72.4015,-0.075092
180.206,72.4015,-0.075092
180.315,72.4015,-0.074555
180.423,72.4015,-0.074555
180.531,72.4015,-0.073989
180.641,72.4015,-0.073989
180.752,72.4015,-0.073480
180.862,72.4015,-0.073480
180.971,72.4015,-0.073103
181.081,72.4015,-0.073103
181.191,72.4015,-0.072519
181.300,72.4015,-0.072519
181.409,72.4015,-0.072519
181.520,72.4015,-0.071341
181.630,72.4015,-0.071341
181.738,72.4015,-0.069889
181.845,72.3989,-0.069889
181.953,72.3876,-0.068871
182.062,72.3679,-0.068871
182.172,72.3461,-0.068871
182.281,72.3243,-0.062660
182.390,72.3022,-0.062660
182.499,72.2806,-0.047504
182.609,72.2587,-0.047504
182.717,72.2370,-0.031424
182.826,72.2151,-0.031424
182.934,72.1935,-0.018662
183.043,72.1718,-0.018662
183.152,72.1500,-0.018662
183.262,72.1278,-0.007088
183.372,72.1060,-0.007088
183.482,72.0842,0.003968
183.590,72.0623,0.003968
183.701,72.0403,0.014854
183.808,72.0185,0.014854
183.917,71.9968,0.014854
184.026,71.9753,0.026080
184.136,71.9531,0.026080
184.245,71.9312,0.037494
184.355,71.9095,0.037494
184.463,71.8878,0.049521
184.573,71.8659,0.049521
184.681,71.8443,0.049521
184.790,71.8226,0.062462
184.898,71.8008,0.062462
185.005,71.7794,0.076101
185.115,71.7574,0.076101
185.223,71.7359,0.090588
185.331,71.7142,0.090588
185.440,71.6922,0.106111
185.548,71.6708,0.106111
185.659,71.6486,0.106111
185.768,71.6269,0.122728
185.876,71.6051,0.122728
185.986,71.5831,0.141013
186.095,71.5615,0.141013
186.205,71.5393,0.141013
186.314,71.5176,0.161184
186.423,71.4957,0.183324
186.531,71.4742,0.183324
186.640,71.4524,0.183324
186.748,71.4307,0.208160
186.858,71.4087,0.208160
186.967,71.3870,0.235729
187.074,71.3656,0.235729
187.181,71.3441,0.266541
187.290,71.3224,0.266541
187.400,71.3003,0.266541
187.508,71.2787,0.301142
187.617,71.2570,0.301142
187.725,71.2353,0.340021
187.835,71.2134,0.340021
187.944,71.1916,0.383171
188.056,71.1692,0.383171
188.166,71.1472,0.383171
188.275,71.1255,0.431259
188.381,71.1041,0.431259
188.490,71.0824,0.485465
188.601,71.0601,0.485465
188.710,71.0383,0.485465
188.818,71.0168,0.545882
188.927,70.9951,0.613339
189.037,70.9730,0.613339
189.146,70.9511,0.613339
189.255,70.9293,0.688252
189.366,70.9072,0.688252
189.474,70.8857,0.770866
189.581,70.8643,0.770866
189.691,70.8422,0.861190
189.800,70.8205,0.861190
189.908,70.7989,0.861190
190.018,70.7768,0.959185
190.127,70.7551,0.959185
190.236,70.7333,1.064854
190.345,70.7115,1.064854
190.454,70.6896,1.177468
190.564,70.6678,1.177468
190.670,70.6464,1.177468
190.781,70.6240,1.292713
190.889,70.6026,1.292713
191.000,70.5805,1.401727
191.110,70.5584,1.401727
191.218,70.5367,1.495971
191.328,70.5148,1.495971
191.437,70.4932,1.553740
191.545,70.4714,1.553740
191.654,70.4497,1.553740
191.764,70.4277,1.115195
191.872,70.4059,1.115195
191.981,70.3843,0.338985
192.090,70.3625,0.338985
192.200,70.3405,0.012347
192.309,70.3186,0.012347
192.418,70.2969,0.012347
192.526,70.2752,0.007861
192.635,70.2533,0.007861
192.744,70.2316,0.007474
192.854,70.2097,0.007474
192.960,70.1885,0.007220
193.070,70.1665,0.007220
193.179,70.1448,0.007097
193.288,70.1229,0.007097
193.396,70.1011,0.007097
193.507,70.0792,0.007097
193.615,70.0575,0.007097
193.723,70.0359,0.007078
193.833,70.0138,0.007078
193.944,69.9916,0.007088
194.053,69.9698,0.007088
194.160,69.9484,0.007088
194.270,69.9264,0.007012
194.380,69.9046,0.007012
194.489,69.8827,0.007012
194.600,69.8603,0.007012
194.706,69.8392,0.007088
194.817,69.8171,0.007088
194.925,69.7954,0.007088
195.034,69.7736,0.007031
195.143,69.7519,0.007031
195.253,69.7299,0.007012
195.362,69.7081,0.007012
195.469,69.6865,0.006994
195.580,69.6645,0.006994
195.688,69.6429,0.007003
195.799,69.6208,0.007003
195.907,69.5990,0.007003
196.016,69.5773,0.007060
196.125,69.5554,0.007060
196.233,69.5339,0.007060
196.342,69.5120,0.007069
196.451,69.4902,0.007078
196.559,69.4688,0.007078
196.668,69.4468,0.007078
196.777,69.4250,0.007069
196.887,69.4030,0.007069
196.996,69.3812,0.007069
197.106,69.3626,0.007069
197.214,69.3530,0.007041
197.323,69.3515,0.007041
197.431,69.3515,0.007041
197.540,69.3515,0.006947
197.650,69.3515,0.006947
197.759,69.3515,0.006843
197.868,69.3547,0.006843
197.978,69.3666,0.006758
198.088,69.3871,0.006758
198.197,69.4088,0.006626
198.306,69.4308,0.006626
198.415,69.4526,0.006626
198.523,69.4743,0.006504
198.632,69.4959,0.006504
198.740,69.5175,0.006447
198.849,69.5393,0.006447
198.959,69.5613,0.006390
199.068,69.5831,0.006390
199.178,69.6052,0.006306
199.287,69.6269,0.006306
199.396,69.6488,0.006306
199.504,69.6703,0.006230
199.613,69.6922,0.006230
199.724,69.7142,0.006211
199.833,69.7363,0.006211
199.943,69.7582,0.006211
200.053,69.7801,0.006136
200.160,69.8015,0.006136
200.269,69.8235,0.006051
200.378,69.8452,0.006051
200.488,69.8671,0.006042
200.597,69.8889,0.006042
200.706,69.9106,0.006013
200.815,69.9326,0.006013
200.924,69.9544,0.006013
201.034,69.9764,0.005900
201.143,69.9981,0.005900
201.251,70.0197,0.005815
201.359,70.0415,0.005815
201.470,70.0634,0.005778
201.580,70.0855,0.005778
201.688,70.1070,0.005778
201.796,70.1287,0.005721
201.907,70.1508,0.005721
202.016,70.1726,0.005636
202.124,70.1942,0.005636
202.232,70.2160,0.005570
202.340,70.2376,0.005570
202.450,70.2595,0.005514
202.560,70.2816,0.005514
202.669,70.3033,0.005514
202.779,70.3254,0.005438
202.889,70.3473,0.005438
202.997,70.3689,0.005363
203.104,70.3902,0.005363
203.214,70.4122,0.005297
203.324,70.4343,0.005297
203.433,70.4561,0.005250
203.540,70.4776,0.005250
203.650,70.4995,0.005250
203.760,70.5215,0.005146
203.870,70.5435,0.005146
203.980,70.5655,0.005080
204.090,70.5874,0.005080
204.200,70.6096,0.005014
204.310,70.6315,0.005014
204.419,70.6533,0.005014
204.528,70.6753,0.004958
204.638,70.6971,0.004958
204.749,70.7192,0.004864
204.859,70.7412,0.004864
204.970,70.7636,0.004722
205.079,70.7851,0.004722
205.187,70.8067,0.004600
205.294,70.8283,0.004600
205.402,70.8499,0.004600
205.511,70.8717,0.004458
205.620,70.8935,0.004458
205.730,70.9155,0.004317
205.838,70.9372,0.004317
205.947,70.9588,0.004119
206.058,70.9810,0.004119
206.168,71.0030,0.004119
206.276,71.0247,0.003940
206.384,71.0463,0.003940
206.494,71.0682,0.003695
206.603,71.0900,0.003695
206.711,71.1117,0.003393
206.820,71.1335,0.003393
206.929,71.1552,0.003110
207.037,71.1769,0.003110
207.148,71.1990,0.003110
207.256,71.2207,0.002799
207.366,71.2428,0.002799
207.474,71.2642,0.002356
207.584,71.2862,0.002356
207.693,71.3080,0.001800
207.801,71.3298,0.001800
207.910,71.3516,0.001800
208.019,71.3733,0.001037
208.128,71.3951,0.001037
208.235,71.4165,0.000151
208.345,71.4385,0.000151
208.454,71.4603,-0.000924
208.562,71.4819,-0.000924
208.670,71.5035,-0.000924
208.780,71.5254,-0.002319
208.890,71.5475,-0.002319
209.001,71.5697,-0.003978
209.112,71.5918,-0.003978
209.218,71.6131,-0.006051
209.328,71.6351,-0.006051
209.439,71.6571,-0.008483
209.546,71.6786,-0.008483
209.656,71.7007,-0.008483
209.766,71.7225,-0.011329
209.875,71.7445,-0.011329
209.982,71.7658,-0.014656
210.091,71.7877,-0.014656
210.199,71.8093,-0.018314
210.308,71.8312,-0.018314
210.419,71.8532,-0.018314
210.528,71.8751,-0.022329
210.636,71.8966,-0.022329
210.746,71.9186,-0.026542
210.855,71.9405,-0.026542
210.965,71.9624,-0.030859
211.073,71.9839,-0.030859
211.182,72.0059,-0.030859
211.291,72.0277,-0.035364
211.400,72.0496,-0.035364
211.509,72.0711,-0.040143
211.616,72.0927,-0.040143
211.726,72.1145,-0.045119
211.836,72.1366,-0.045119
211.945,72.1584,-0.050332
212.054,72.1803,-0.050332
212.163,72.2020,-0.050332
212.274,72.2243,-0.056072
212.383,72.2460,-0.056072
212.493,72.2681,-0.062302
212.603,72.2902,-0.062302
212.714,72.3124,-0.069541
212.821,72.3329,-0.069541
212.929,72.3466,-0.077948
213.038,72.3516,-0.077948
