Elapsed Time (s),Position (mm),Force (N)
-0.007,80.1515,-0.021763
0.102,80.1515,-0.023149
0.211,80.1515,-0.023149
0.320,80.1515,-0.021782
0.430,80.1515,-0.021782
0.540,80.1515,-0.021782
0.650,80.1515,-0.020161
0.759,80.1515,-0.020161
0.868,80.1515,-0.018964
0.976,80.1515,-0.018964
1.084,80.1515,-0.017965
1.194,80.1515,-0.017965
1.303,80.1515,-0.017965
1.412,80.1515,-0.017126
1.522,80.1515,-0.017126
1.632,80.1515,-0.016381
1.743,80.1515,-0.016381
1.851,80.1515,-0.015750
1.961,80.1515,-0.015750
2.068,80.1515,-0.015222
2.177,80.1515,-0.015222
2.288,80.1515,-0.015222
2.397,80.1515,-0.014704
2.508,80.1515,-0.014704
2.618,80.1515,-0.014251
2.726,80.1515,-0.014251
2.835,80.1515,-0.013921
2.943,80.1515,-0.013921
3.054,80.1515,-0.013921
3.163,80.1515,-0.013620
3.274,80.1515,-0.013620
3.382,80.1515,-0.013299
3.490,80.1515,-0.013299
3.600,80.1515,-0.013158
3.710,80.1515,-0.013158
3.820,80.1515,-0.013648
3.929,80.1515,-0.013648
4.040,80.1515,-0.013648
4.150,80.1480,-0.014327
4.259,80.1355,-0.014327
4.370,80.1147,-0.013818
4.480,80.0927,-0.013818
4.591,80.0705,-0.005250
4.700,80.0488,-0.005250
4.809,80.0269,-0.005250
4.916,80.0055,0.010849
5.023,79.9841,0.010849
5.131,79.9626,0.025590
5.239,79.9410,0.025590
5.347,79.9195,0.038371
5.457,79.8975,0.038371
5.566,79.8753,0.051123
5.676,79.8536,0.051123
5.785,79.8317,0.051123
5.894,79.8100,0.064451
6.003,79.7882,0.064451
6.111,79.7664,0.078674
6.219,79.7451,0.078674
6.327,79.7234,0.093934
6.433,79.7022,0.093934
6.544,79.6801,0.093934
6.652,79.6584,0.110428
6.761,79.6364,0.110428
6.871,79.6146,0.128440
6.979,79.5930,0.128440
7.088,79.5711,0.148271
7.197,79.5494,0.148271
7.307,79.5273,0.148271
7.416,79.5055,0.169987
7.526,79.4835,0.169987
7.635,79.4617,0.193758
7.743,79.4402,0.193758
7.852,79.4184,0.220121
7.962,79.3963,0.220121
8.074,79.3739,0.220121
8.181,79.3527,0.249660
8.290,79.3306,0.249660
8.400,79.3089,0.282658
8.509,79.2871,0.282658
8.618,79.2652,0.319531
8.727,79.2434,0.319531
8.837,79.2213,0.319531
8.944,79.2000,0.360720
9.051,79.1785,0.360720
9.161,79.1566,0.406518
9.272,79.1344,0.406518
9.381,79.1126,0.457283
9.490,79.0907,0.457283
9.601,79.0684,0.513524
9.710,79.0468,0.513524
9.818,79.0253,0.576326
9.927,79.0035,0.576326
10.035,78.9820,0.576326
10.142,78.9601,0.646347
10.250,78.9388,0.646347
10.359,78.9170,0.723956
10.469,78.8949,0.723956
10.577,78.8732,0.809529
10.686,78.8516,0.809529
10.795,78.8298,0.809529
10.902,78.8083,0.902888
11.011,78.7865,0.902888
11.121,78.7647,1.003994
11.231,78.7426,1.003994
11.341,78.7208,1.111387
11.451,78.6986,1.111387
11.561,78.6766,1.111387
11.670,78.6548,1.212880
11.780,78.6330,1.212880
11.888,78.6111,0.722551
11.996,78.5897,0.722551
12.105,78.5679,0.097892
12.214,78.5460,0.097892
12.323,78.5242,0.009699
12.434,78.5019,0.009699
12.543,78.4802,0.009699
12.653,78.4581,0.009001
12.761,78.4365,0.009001
12.869,78.4151,0.007927
12.979,78.3931,0.007927
13.090,78.3709,0.007983
13.199,78.3491,0.007983
13.308,78.3271,0.007983
13.417,78.3055,0.008841
13.525,78.2837,0.008841
13.634,78.2621,0.008822
13.742,78.2404,0.008822
13.851,78.2185,0.008850
13.957,78.1974,0.008850
14.067,78.1754,0.008860
14.176,78.1536,0.008860
14.286,78.1315,0.008860
14.395,78.1097,0.008850
14.505,78.0879,0.008850
14.612,78.0664,0.008813
14.722,78.0444,0.008813
14.830,78.0228,0.008813
14.939,78.0009,0.008822
15.048,77.9792,0.008822
15.157,77.9575,0.008813
15.265,77.9358,0.008813
15.373,77.9141,0.008784
15.482,77.8923,0.008784
15.590,77.8708,0.008737
15.700,77.8488,0.008737
15.808,77.8271,0.008662
15.918,77.8051,0.008662
16.027,77.7834,0.008662
16.136,77.7617,0.008624
16.246,77.7395,0.008624
16.355,77.7179,0.008577
16.463,77.6962,0.008577
16.572,77.6745,0.008596
16.680,77.6528,0.008596
16.788,77.6311,0.008596
16.898,77.6093,0.008577
17.010,77.5867,0.008577
17.117,77.5655,0.008473
17.227,77.5435,0.008473
17.334,77.5221,0.008398
17.442,77.5005,0.008398
17.553,77.4781,0.008398
17.662,77.4565,0.008426
17.771,77.4347,0.008426
17.881,77.4126,0.008426
17.990,77.3909,0.008426
18.099,77.3690,0.008323
18.209,77.3471,0.008323
18.317,77.3255,0.008323
18.426,77.3036,0.008323
18.536,77.2816,0.008323
18.645,77.2599,0.008276
18.754,77.2380,0.008276
18.865,77.2159,0.008191
18.976,77.1938,0.008191
19.086,77.1717,0.008162
19.193,77.1501,0.008162
19.302,77.1286,0.008162
19.411,77.1110,0.008096
19.520,77.1024,0.008096
19.630,77.1015,0.007927
19.739,77.1015,0.007927
19.849,77.1015,0.007767
19.959,77.1015,0.007767
20.069,77.1015,0.007757
20.177,77.1048,0.007757
20.284,77.1165,0.007757
20.394,77.1367,0.007587
20.503,77.1587,0.007587
20.612,77.1804,0.007446
20.722,77.2026,0.007446
20.830,77.2239,0.007437
20.939,77.2458,0.007437
21.048,77.2676,0.007437
21.160,77.2900,0.007437
21.270,77.3120,0.007437
21.380,77.3341,0.007427
21.490,77.3560,0.007427
21.599,77.3777,0.007465
21.708,77.3997,0.007465
21.817,77.4213,0.007521
21.927,77.4433,0.007521
22.033,77.4647,0.007521
22.142,77.4864,0.007521
22.250,77.5082,0.007521
22.358,77.5297,0.007540
22.466,77.5512,0.007540
22.576,77.5732,0.007540
22.684,77.5948,0.007540
22.794,77.6167,0.007540
22.903,77.6385,0.007512
23.011,77.6603,0.007512
23.121,77.6822,0.007493
23.230,77.7042,0.007493
23.339,77.7257,0.007446
23.448,77.7476,0.007446
23.557,77.7693,0.007446
23.667,77.7915,0.007427
23.776,77.8130,0.007427
23.885,77.8349,0.007465
23.994,77.8568,0.007465
24.104,77.8788,0.007437
24.212,77.9005,0.007437
24.322,77.9223,0.007399
24.432,77.9443,0.007399
24.542,77.9666,0.007399
24.650,77.9879,0.007361
24.761,78.0101,0.007361
24.868,78.0316,0.007267
24.978,78.0537,0.007267
25.086,78.0754,0.007229
25.195,78.0969,0.007229
25.303,78.1185,0.007229
25.412,78.1405,0.007154
25.521,78.1623,0.007154
25.629,78.1839,0.007069
25.738,78.2055,0.007069
25.845,78.2270,0.007078
25.955,78.2490,0.007078
26.064,78.2708,0.007078
26.173,78.2926,0.006975
26.281,78.3141,0.006975
26.390,78.3359,0.006833
26.498,78.3576,0.006833
26.608,78.3796,0.006749
26.717,78.4014,0.006749
26.827,78.4232,0.006692
26.936,78.4454,0.006692
27.046,78.4671,0.006692
27.154,78.4889,0.006579
27.263,78.5107,0.006579
27.371,78.5320,0.006428
27.481,78.5542,0.006428
27.589,78.5759,0.006306
27.696,78.5972,0.006306
27.806,78.6191,0.006306
27.914,78.6408,0.006164
28.023,78.6626,0.006164
28.134,78.6848,0.006079
28.242,78.7063,0.006079
28.351,78.7281,0.006145
28.460,78.7500,0.006145
28.569,78.7717,0.006023
28.679,78.7938,0.006023
28.787,78.8154,0.006023
28.896,78.8372,0.005787
29.007,78.8593,0.005787
29.116,78.8813,0.005618
29.228,78.9035,0.005618
29.338,78.9255,0.005382
29.448,78.9475,0.005382
29.556,78.9691,0.005382
29.666,78.9911,0.005203
29.776,79.0132,0.005203
29.884,79.0348,0.005080
29.994,79.0568,0.005080
30.102,79.0783,0.004967
30.210,79.1002,0.004967
30.319,79.1217,0.004760
30.429,79.1437,0.004760
30.538,79.1655,0.004760
30.648,79.1875,0.004590
30.760,79.2099,0.004590
30.865,79.2310,0.004430
30.974,79.2528,0.004430
31.084,79.2748,0.004232
31.194,79.2966,0.004232
31.303,79.3187,0.004232
31.411,79.3401,0.004043
31.522,79.3622,0.004043
31.632,79.3843,0.003817
31.739,79.4058,0.003817
31.848,79.4275,0.003535
31.956,79.4490,0.003535
32.064,79.4707,0.003535
32.173,79.4926,0.003167
32.281,79.5142,0.003167
32.391,79.5364,0.002846
32.499,79.5578,0.002846
32.608,79.5795,0.002422
32.719,79.6018,0.002422
32.827,79.6234,0.001847
32.935,79.6448,0.001847
33.044,79.6666,0.001847
33.152,79.6883,0.001197
33.260,79.7100,0.001197
33.368,79.7314,0.000415
33.479,79.7536,0.000415
33.587,79.7752,-0.000669
33.695,79.7971,-0.000669
33.805,79.8189,-0.000669
33.915,79.8410,-0.002403
34.026,79.8630,-0.002403
34.135,79.8849,-0.004524
34.244,79.9069,-0.004524
34.353,79.9285,-0.007050
34.463,79.9505,-0.007050
34.574,79.9727,-0.010189
34.683,79.9946,-0.010189
34.792,80.0162,-0.010189
34.900,80.0379,-0.013940
35.007,80.0595,-0.013940
35.116,80.0807,-0.018153
35.225,80.0956,-0.018153
35.334,80.1014,-0.022074
35.443,80.1015,-0.022074
35.553,80.1015,-0.022074
35.664,80.1015,-0.023111
35.774,80.1015,-0.023111
35.881,80.1015,-0.021509
35.990,80.1015,-0.021509
36.098,80.1015,-0.019954
36.206,80.1015,-0.019954
36.316,80.1015,-0.018700
36.426,80.1015,-0.018700
36.534,80.1015,-0.018700
36.644,80.1015,-0.017767
36.753,80.1015,-0.017767
36.861,80.1015,-0.016985
36.970,80.1015,-0.016985
37.080,80.1015,-0.016249
37.189,80.1015,-0.016249
37.297,80.1015,-0.016249
37.405,80.1015,-0.015542
37.516,80.1015,-0.015542
37.624,80.1015,-0.015062
37.733,80.1015,-0.015062
37.843,80.1015,-0.014619
37.954,80.1015,-0.014619
38.062,80.1015,-0.014619
38.170,80.1015,-0.014148
38.281,80.1015,-0.014148
38.389,80.1015,-0.013893
38.498,80.1015,-0.013893
38.608,80.1015,-0.013525
38.718,80.1015,-0.013525
38.826,80.1015,-0.013130
38.938,80.1015,-0.013130
39.047,80.1015,-0.013130
39.155,80.1015,-0.012837
39.263,80.1015,-0.012837
39.371,80.1015,-0.012564
39.480,80.1015,-0.012564
39.588,80.1015,-0.012545
39.696,80.1015,-0.012545
39.806,80.1015,-0.012545
39.915,80.1015,-0.013148
40.026,80.1015,-0.013148
40.134,80.0982,-0.013855
40.242,80.0863,-0.013855
40.353,80.0656,-0.012432
40.462,80.0437,-0.012432
40.572,80.0218,-0.002790
40.682,79.9997,-0.002790
40.789,79.9784,-0.002790
40.899,79.9564,0.012988
41.008,79.9345,0.012988
41.117,79.9128,0.027155
41.227,79.8907,0.027155
41.338,79.8685,0.039737
41.446,79.8469,0.039737
41.555,79.8252,0.039737
41.663,79.8034,0.052292
41.771,79.7819,0.052292
41.880,79.7602,0.065657
41.989,79.7384,0.065657
42.098,79.7164,0.079993
42.206,79.6949,0.079993
42.315,79.6732,0.095357
42.424,79.6514,0.095357
42.532,79.6297,0.095357
42.642,79.6077,0.112040
42.751,79.5861,0.112040
42.861,79.5640,0.130118
42.970,79.5422,0.130118
43.080,79.5202,0.149949
43.189,79.4983,0.149949
43.298,79.4767,0.149949
43.406,79.4550,0.171806
43.517,79.4324,0.171806
43.626,79.4111,0.195850
43.735,79.3893,0.195850
43.844,79.3674,0.222505
43.952,79.3457,0.222505
44.061,79.3238,0.222505
44.170,79.3022,0.252403
44.279,79.2802,0.252403
44.390,79.2582,0.285948
44.499,79.2363,0.285948
44.608,79.2144,0.323254
44.718,79.1927,0.323254
44.827,79.1709,0.364650
44.936,79.1490,0.364650
45.043,79.1276,0.364650
45.151,79.1057,0.410589
45.261,79.0840,0.410589
45.370,79.0622,0.461505
45.479,79.0403,0.461505
45.589,79.0184,0.518501
45.699,78.9962,0.518501
45.809,78.9744,0.518501
45.919,78.9525,0.582113
46.028,78.9305,0.582113
46.138,78.9087,0.652822
46.247,78.8867,0.652822
46.355,78.8651,0.731157
46.465,78.8432,0.731157
46.573,78.8216,0.731157
46.680,78.8000,0.817050
46.788,78.7786,0.817050
46.897,78.7567,0.910466
47.006,78.7349,0.910466
47.115,78.7131,1.010215
47.224,78.6914,1.010215
47.334,78.6693,1.104497
47.443,78.6476,1.104497
47.552,78.6259,1.104497
47.661,78.6038,0.732844
47.769,78.5824,0.732844
47.878,78.5607,0.165237
47.988,78.5385,0.165237
48.097,78.5169,0.010924
48.205,78.4953,0.010924
48.313,78.4735,0.010924
48.423,78.4516,0.009237
48.533,78.4296,0.009237
48.643,78.4077,0.008982
48.750,78.3862,0.008982
48.859,78.3645,0.008907
48.968,78.3426,0.008907
49.077,78.3207,0.008841
49.185,78.2992,0.008841
49.296,78.2770,0.008841
49.404,78.2553,0.008860
49.513,78.2335,0.008860
49.623,78.2117,0.008850
49.731,78.1901,0.008850
49.840,78.1681,0.008756
49.950,78.1463,0.008756
50.059,78.1245,0.008756
50.166,78.1031,0.008747
50.277,78.0809,0.008747
50.386,78.0591,0.008756
50.496,78.0369,0.008756
50.605,78.0151,0.008747
50.714,77.9933,0.008747
50.825,77.9712,0.008690
50.933,77.9495,0.008690
51.041,77.9280,0.008690
51.150,77.9062,0.008681
51.260,77.8840,0.008681
51.368,77.8627,0.008662
51.478,77.8405,0.008662
51.587,77.8189,0.008587
51.696,77.7969,0.008587
51.806,77.7751,0.008587
51.916,77.7530,0.008596
52.024,77.7314,0.008596
52.134,77.7095,0.008587
52.242,77.6878,0.008587
52.351,77.6660,0.008530
52.458,77.6447,0.008530
52.567,77.6229,0.008530
52.676,77.6011,0.008502
52.785,77.5790,0.008502
52.893,77.5576,0.008464
53.004,77.5354,0.008464
53.113,77.5135,0.008436
53.222,77.4920,0.008436
53.332,77.4698,0.008389
53.442,77.4478,0.008389
53.551,77.4261,0.008389
53.659,77.4045,0.008360
53.770,77.3823,0.008360
53.880,77.3601,0.008323
53.990,77.3382,0.008323
54.098,77.3166,0.008276
54.207,77.2949,0.008276
54.316,77.2729,0.008276
54.424,77.2515,0.008181
54.534,77.2294,0.008181
54.643,77.2076,0.008153
54.754,77.1854,0.008153
54.863,77.1635,0.008106
54.972,77.1418,0.008106
55.080,77.1201,0.007983
55.190,77.0983,0.007983
55.298,77.0767,0.007983
55.408,77.0597,0.007955
55.519,77.0520,0.007955
55.629,77.0515,0.007776
55.739,77.0515,0.007776
55.848,77.0515,0.007776
55.958,77.0517,0.007616
56.065,77.0574,0.007616
56.175,77.0723,0.007616
56.285,77.0938,0.007616
56.394,77.1158,0.007455
56.504,77.1377,0.007455
56.614,77.1596,0.007276
56.723,77.1816,0.007276
56.830,77.2031,0.007305
56.941,77.2252,0.007305
57.050,77.2469,0.007305
57.159,77.2688,0.007399
57.268,77.2905,0.007399
57.378,77.3126,0.007361
57.486,77.3341,0.007361
57.594,77.3557,0.007314
57.703,77.3775,0.007314
57.810,77.3989,0.007371
57.920,77.4208,0.007371
58.028,77.4423,0.007371
58.136,77.4642,0.007399
58.245,77.4859,0.007399
58.354,77.5078,0.007418
58.463,77.5295,0.007418
58.573,77.5514,0.007455
58.681,77.5731,0.007455
58.789,77.5946,0.007455
58.898,77.6166,0.007474
59.006,77.6382,0.007474
59.116,77.6600,0.007446
59.224,77.6820,0.007446
59.332,77.7033,0.007437
59.441,77.7251,0.007437
59.551,77.7471,0.007437
59.660,77.7689,0.007408
59.771,77.7911,0.007408
59.879,77.8127,0.007380
59.989,77.8348,0.007380
60.096,77.8561,0.007408
60.204,77.8779,0.007408
60.314,77.8997,0.007408
60.423,77.9214,0.007342
60.532,77.9434,0.007342
60.640,77.9649,0.007258
60.750,77.9868,0.007258
60.860,78.0090,0.007239
60.970,78.0308,0.007239
61.079,78.0525,0.007182
61.187,78.0742,0.007182
61.295,78.0959,0.007182
61.404,78.1178,0.007097
61.514,78.1396,0.007097
61.620,78.1609,0.007050
61.729,78.1828,0.007050
61.839,78.2047,0.006994
61.949,78.2267,0.006994
62.058,78.2485,0.006994
62.165,78.2700,0.006975
62.275,78.2918,0.006975
62.384,78.3137,0.006862
62.494,78.3357,0.006862
62.603,78.3576,0.006739
62.710,78.3791,0.006739
62.820,78.4008,0.006739
62.929,78.4226,0.006664
63.039,78.4447,0.006664
63.146,78.4660,0.006522
63.256,78.4880,0.006522
63.365,78.5098,0.006428
63.472,78.5313,0.006428
63.582,78.5533,0.006353
63.692,78.5752,0.006353
63.802,78.5972,0.006353
63.912,78.6192,0.006287
64.021,78.6410,0.006287
64.128,78.6625,0.006108
64.239,78.6847,0.006108
64.348,78.7064,0.005938
64.457,78.7281,0.005938
64.564,78.7498,0.005938
64.674,78.7716,0.005863
64.784,78.7936,0.005863
64.895,78.8159,0.005702
65.003,78.8375,0.005702
65.112,78.8593,0.005542
65.222,78.8813,0.005542
65.332,78.9031,0.005542
65.440,78.9250,0.005344
65.549,78.9465,0.005344
65.656,78.9682,0.005184
65.766,78.9900,0.005184
65.874,79.0117,0.005099
65.984,79.0337,0.005099
66.092,79.0554,0.004882
66.202,79.0772,0.004882
66.311,79.0990,0.004882
66.421,79.1210,0.004684
66.529,79.1426,0.004684
66.638,79.1643,0.004486
66.748,79.1865,0.004486
66.857,79.2083,0.004270
66.964,79.2296,0.004270
67.074,79.2516,0.004072
67.185,79.2739,0.004072
67.293,79.2955,0.004072
67.401,79.3171,0.003864
67.510,79.3389,0.003864
67.619,79.3606,0.003648
67.730,79.3829,0.003648
67.839,79.4045,0.003346
67.949,79.4265,0.003346
68.058,79.4483,0.003346
68.167,79.4702,0.003026
68.276,79.4921,0.003026
68.385,79.5138,0.002620
68.493,79.5355,0.002620
68.603,79.5576,0.002092
68.712,79.5793,0.002092
68.823,79.6013,0.001508
68.933,79.6234,0.001508
69.040,79.6448,0.001508
69.149,79.6667,0.000754
69.259,79.6887,0.000754
69.367,79.7104,-0.000254
69.477,79.7323,-0.000254
69.586,79.7540,-0.001621
69.694,79.7757,-0.001621
69.804,79.7977,-0.001621
69.913,79.8194,-0.003355
70.022,79.8413,-0.003355
70.130,79.8629,-0.005693
70.241,79.8851,-0.005693
70.350,79.9068,-0.008728
70.460,79.9288,-0.008728
70.570,79.9507,-0.008728
70.680,79.9728,-0.012272
70.790,79.9950,-0.012272
70.900,80.0168,-0.016325
71.009,80.0368,-0.016325
71.118,80.0486,-0.020566
71.228,80.0515,-0.020566
71.338,80.0515,-0.022960
71.448,80.0515,-0.022960
71.557,80.0515,-0.022960
71.665,80.0515,-0.022225
71.773,80.0515,-0.022225
71.881,80.0515,-0.020472
71.990,80.0515,-0.020472
72.100,80.0515,-0.019115
72.209,80.0515,-0.019115
72.318,80.0515,-0.018050
72.428,80.0515,-0.018050
72.539,80.0515,-0.018050
72.646,80.0515,-0.017145
72.755,80.0515,-0.017145
72.865,80.0515,-0.016410
72.975,80.0515,-0.016410
73.086,80.0515,-0.016410
73.196,80.0515,-0.015750
73.306,80.0515,-0.015750
73.418,80.0515,-0.015090
73.528,80.0515,-0.015090
73.636,80.0515,-0.014600
73.745,80.0515,-0.014600
73.854,80.0515,-0.014204
73.964,80.0515,-0.014204
74.074,80.0515,-0.013818
74.182,80.0515,-0.013818
74.291,80.0515,-0.013818
74.399,80.0515,-0.013403
74.509,80.0515,-0.013403
74.620,80.0515,-0.013130
74.731,80.0515,-0.013130
74.840,80.0515,-0.013130
74.950,80.0515,-0.012837
75.060,80.0515,-0.012837
75.170,80.0515,-0.012517
75.279,80.0515,-0.012517
75.389,80.0515,-0.012319
75.501,80.0515,-0.012319
75.610,80.0515,-0.012338
75.720,80.0515,-0.012338
75.831,80.0515,-0.012894
75.940,80.0515,-0.012894
76.051,80.0513,-0.012894
76.161,80.0444,-0.013488
76.271,80.0284,-0.013488
76.379,80.0068,-0.011772
76.489,79.9848,-0.011772
76.599,79.9629,-0.001621
76.710,79.9405,-0.001621
76.819,79.9190,0.014364
76.928,79.8971,0.014364
77.036,79.8754,0.014364
77.145,79.8539,0.028408
77.255,79.8317,0.028408
77.362,79.8104,0.041010
77.470,79.7886,0.041010
77.581,79.7665,0.053687
77.689,79.7448,0.053687
77.797,79.7231,0.053687
77.908,79.7011,0.067128
78.016,79.6795,0.067128
78.127,79.6573,0.081633
78.236,79.6354,0.081633
78.343,79.6140,0.097063
78.454,79.5919,0.097063
78.562,79.5702,0.097063
78.672,79.5484,0.113812
78.780,79.5267,0.113812
78.889,79.5049,0.132059
78.998,79.4831,0.132059
79.106,79.4614,0.152060
79.215,79.4396,0.152060
79.324,79.4179,0.174257
79.434,79.3958,0.174257
79.543,79.3741,0.174257
79.652,79.3522,0.198640
79.761,79.3305,0.198640
79.871,79.3085,0.225738
79.981,79.2866,0.225738
80.089,79.2649,0.256079
80.199,79.2430,0.256079
80.307,79.2212,0.256079
80.416,79.1996,0.290020
80.526,79.1776,0.290020
80.635,79.1559,0.327646
80.744,79.1338,0.327646
80.855,79.1118,0.369259
80.963,79.0902,0.369259
81.072,79.0682,0.415443
81.182,79.0463,0.415443
81.291,79.0244,0.415443
81.400,79.0028,0.467132
81.508,78.9810,0.467132
81.619,78.9590,0.525089
81.727,78.9373,0.525089
81.835,78.9157,0.589568
81.943,78.8940,0.589568
82.050,78.8728,0.589568
82.160,78.8506,0.661135
82.268,78.8293,0.661135
82.376,78.8075,0.739894
82.483,78.7861,0.739894
82.593,78.7642,0.826278
82.702,78.7422,0.826278
82.811,78.7205,0.826278
82.920,78.6987,0.920249
83.028,78.6770,0.920249
83.138,78.6550,1.020997
83.247,78.6333,1.020997
83.355,78.6116,1.120068
83.465,78.5897,1.120068
83.575,78.5677,0.787030
83.684,78.5459,0.787030
83.793,78.5240,0.787030
83.902,78.5024,0.209300
84.012,78.4803,0.209300
84.121,78.4583,0.010340
84.229,78.4370,0.010340
84.338,78.4151,0.007795
84.445,78.3939,0.007795
84.554,78.3719,0.007795
84.663,78.3499,0.007842
84.772,78.3284,0.007842
84.883,78.3062,0.009011
84.992,78.2843,0.009011
85.101,78.2626,0.009011
85.210,78.2408,0.008888
85.318,78.2191,0.008907
85.427,78.1974,0.008907
85.537,78.1753,0.008907
85.645,78.1537,0.008869
85.755,78.1318,0.008869
85.863,78.1100,0.008822
85.974,78.0880,0.008822
86.083,78.0663,0.008803
86.192,78.0445,0.008803
86.301,78.0225,0.008803
86.410,78.0007,0.008794
86.519,77.9791,0.008794
86.628,77.9572,0.008803
86.737,77.9353,0.008803
86.846,77.9136,0.008728
86.954,77.8918,0.008728
87.063,77.8702,0.008681
87.173,77.8480,0.008681
87.284,77.8261,0.008681
87.392,77.8044,0.008681
87.501,77.7825,0.008681
87.609,77.7611,0.008718
87.719,77.7389,0.008718
87.827,77.7173,0.008643
87.937,77.6955,0.008643
88.046,77.6736,0.008643
88.154,77.6519,0.008568
88.263,77.6302,0.008568
88.372,77.6082,0.008521
88.481,77.5865,0.008521
88.591,77.5646,0.008502
88.700,77.5428,0.008502
88.808,77.5212,0.008502
88.918,77.4993,0.008502
89.026,77.4776,0.008502
89.135,77.4557,0.008445
89.244,77.4340,0.008445
89.353,77.4121,0.008426
89.462,77.3905,0.008426
89.572,77.3685,0.008360
89.680,77.3467,0.008360
89.790,77.3246,0.008360
89.899,77.3031,0.008341
90.008,77.2812,0.008341
90.116,77.2597,0.008313
90.225,77.2377,0.008313
90.335,77.2156,0.008313
90.444,77.1940,0.008210
90.554,77.1721,0.008210
90.662,77.1503,0.008153
90.773,77.1282,0.008153
90.880,77.1066,0.008106
90.989,77.0850,0.008106
91.098,77.0633,0.008012
91.207,77.0414,0.008012
91.315,77.0204,0.007917
91.423,77.0064,0.007917
91.533,77.0014,0.007917
91.642,77.0016,0.007757
91.752,77.0078,0.007757
91.861,77.0228,0.007578
91.970,77.0445,0.007578
92.080,77.0664,0.007427
92.191,77.0886,0.007427
92.300,77.1103,0.007427
92.410,77.1323,0.007352
92.519,77.1542,0.007352
92.630,77.1764,0.007342
92.741,77.1986,0.007342
92.849,77.2201,0.007324
92.957,77.2417,0.007324
93.064,77.2634,0.007324
93.173,77.2851,0.007371
93.283,77.3069,0.007371
93.392,77.3289,0.007380
93.502,77.3509,0.007380
93.611,77.3726,0.007380
93.719,77.3941,0.007380
93.829,77.4162,0.007437
93.938,77.4379,0.007437
94.046,77.4597,0.007437
94.156,77.4815,0.007418
94.265,77.5034,0.007418
94.375,77.5253,0.007371
94.484,77.5473,0.007371
94.594,77.5691,0.007427
94.702,77.5908,0.007427
94.810,77.6124,0.007427
94.920,77.6342,0.007408
95.029,77.6563,0.007408
95.138,77.6779,0.007408
95.247,77.6997,0.007408
95.357,77.7219,0.007465
95.464,77.7432,0.007465
95.574,77.7653,0.007446
95.685,77.7873,0.007446
95.794,77.8092,0.007446
95.903,77.8309,0.007455
96.012,77.8529,0.007455
96.122,77.8748,0.007455
96.230,77.8964,0.007455
96.340,77.9183,0.007418
96.449,77.9400,0.007418
96.559,77.9624,0.007418
96.667,77.9838,0.007371
96.777,78.0057,0.007371
96.885,78.0274,0.007286
96.992,78.0488,0.007286
97.102,78.0708,0.007248
97.212,78.0927,0.007248
97.320,78.1143,0.007229
97.428,78.1360,0.007229
97.538,78.1582,0.007229
97.647,78.1798,0.007135
97.755,78.2014,0.007135
97.865,78.2234,0.007060
97.974,78.2453,0.007060
98.084,78.2672,0.007060
98.194,78.2891,0.007003
98.304,78.3111,0.007003
98.412,78.3327,0.006909
98.521,78.3544,0.006909
98.630,78.3764,0.006786
98.739,78.3981,0.006786
98.847,78.4196,0.006635
98.956,78.4415,0.006635
99.066,78.4636,0.006635
99.174,78.4851,0.006579
99.283,78.5070,0.006579
99.392,78.5289,0.006428
99.502,78.5507,0.006428
99.611,78.5726,0.006296
99.721,78.5945,0.006296
99.831,78.6165,0.006211
99.939,78.6382,0.006211
100.050,78.6604,0.006211
100.160,78.6823,0.006108
100.265,78.7033,0.006108
100.374,78.7251,0.006013
100.482,78.7468,0.006013
100.591,78.7685,0.006013
100.700,78.7902,0.005834
100.811,78.8126,0.005834
100.918,78.8339,0.005684
101.026,78.8557,0.005684
101.136,78.8775,0.005504
101.245,78.8994,0.005504
101.353,78.9210,0.005325
101.463,78.9430,0.005325
101.571,78.9646,0.005118
101.680,78.9863,0.005118
101.789,79.0081,0.005118
101.899,79.0301,0.004958
102.008,79.0519,0.004958
102.117,79.0736,0.004892
102.227,79.0956,0.004892
102.335,79.1174,0.004647
102.443,79.1390,0.004647
102.553,79.1611,0.004647
102.660,79.1823,0.004439
102.769,79.2042,0.004439
102.877,79.2258,0.004279
102.986,79.2476,0.004279
103.095,79.2693,0.004043
103.203,79.2909,0.004043
103.313,79.3129,0.003817
103.422,79.3348,0.003817
103.532,79.3568,0.003817
103.641,79.3785,0.003478
103.750,79.4004,0.003478
103.860,79.4224,0.003082
103.968,79.4438,0.003082
104.076,79.4655,0.002715
104.187,79.4877,0.002715
104.296,79.5097,0.002715
104.404,79.5311,0.002206
104.512,79.5527,0.002206
104.622,79.5747,0.001508
104.729,79.5960,0.001508
104.839,79.6182,0.000688
104.949,79.6400,0.000688
105.057,79.6617,0.000688
105.168,79.6838,-0.000358
105.276,79.7054,-0.000358
105.384,79.7272,-0.001687
105.493,79.7491,-0.001687
105.603,79.7709,-0.003582
105.712,79.7927,-0.003582
105.823,79.8148,-0.006108
105.933,79.8369,-0.006108
106.044,79.8591,-0.006108
106.153,79.8811,-0.009256
106.263,79.9028,-0.009256
106.371,79.9245,-0.012951
106.482,79.9467,-0.012951
106.590,79.9683,-0.016994
106.700,79.9882,-0.016994
106.809,79.9991,-0.016994
106.917,80.0014,-0.021075
107.028,80.0014,-0.021075
107.136,80.0014,-0.022508
107.246,80.0014,-0.022508
107.355,80.0014,-0.021085
107.463,80.0014,-0.021085
107.572,80.0014,-0.019473
107.681,80.0014,-0.019473
107.791,80.0014,-0.019473
107.898,80.0014,-0.018191
108.009,80.0014,-0.018191
108.119,80.0014,-0.017183
108.227,80.0014,-0.017183
108.336,80.0014,-0.016325
108.446,80.0014,-0.016325
108.555,80.0014,-0.016325
108.665,80.0014,-0.015580
108.775,80.0014,-0.015580
108.885,80.0014,-0.014968
108.994,80.0014,-0.014968
109.103,80.0014,-0.014421
109.212,80.0014,-0.014421
109.321,80.0014,-0.013940
109.431,80.0014,-0.013940
109.540,80.0014,-0.013940
109.649,80.0014,-0.013497
109.759,80.0014,-0.013497
109.869,80.0014,-0.013073
109.978,80.0014,-0.013073
110.087,80.0014,-0.013073
110.196,80.0014,-0.012734
110.305,80.0014,-0.012734
110.415,80.0014,-0.012385
110.522,80.0014,-0.012385
110.630,80.0014,-0.012055
110.741,80.0014,-0.012055
110.850,80.0014,-0.011810
110.960,80.0014,-0.011810
111.070,80.0014,-0.011659
111.180,80.0014,-0.011659
111.290,80.0014,-0.011659
111.400,80.0014,-0.012055
111.510,80.0014,-0.012055
111.619,80.0014,-0.012790
111.729,79.9967,-0.012790
111.838,79.9830,-0.012790
111.947,79.9619,-0.012790
112.058,79.9397,-0.012790
112.165,79.9185,-0.005995
112.274,79.8964,-0.005995
112.381,79.8751,0.008879
112.490,79.8532,0.008879
112.599,79.8315,0.023884
112.706,79.8101,0.023884
112.816,79.7880,0.036731
112.924,79.7665,0.036731
113.033,79.7448,0.036731
113.142,79.7228,0.049304
113.253,79.7007,0.049304
113.363,79.6787,0.062406
113.472,79.6569,0.062406
113.581,79.6350,0.062406
113.690,79.6134,0.076534
113.799,79.5917,0.076534
113.907,79.5698,0.091681
114.018,79.5478,0.091681
114.127,79.5259,0.107959
114.235,79.5045,0.107959
114.344,79.4825,0.125697
114.451,79.4609,0.125697
114.560,79.4394,0.125697
114.669,79.4177,0.145170
114.778,79.3957,0.145170
114.890,79.3734,0.166509
114.999,79.3514,0.166509
115.109,79.3296,0.190120
115.217,79.3080,0.190120
115.325,79.2863,0.216407
115.434,79.2645,0.216407
115.543,79.2427,0.216407
115.652,79.2210,0.245701
115.763,79.1988,0.245701
115.872,79.1768,0.278417
115.984,79.1546,0.278417
116.091,79.1333,0.314507
116.200,79.1113,0.314507
116.310,79.0895,0.314507
116.419,79.0674,0.354442
116.528,79.0458,0.354442
116.637,79.0239,0.399072
116.746,79.0023,0.399072
116.855,78.9804,0.449083
116.964,78.9584,0.449083
117.074,78.9366,0.449083
117.181,78.9151,0.505022
117.289,78.8937,0.505022
117.398,78.8717,0.567334
117.508,78.8499,0.567334
117.617,78.8279,0.567334
117.725,78.8064,0.636365
117.834,78.7844,0.712344
117.945,78.7626,0.712344
118.053,78.7407,0.712344
118.164,78.7185,0.795966
118.273,78.6967,0.795966
118.381,78.6751,0.887420
118.490,78.6534,0.887420
118.599,78.6315,0.986849
118.708,78.6098,0.986849
118.817,78.5878,1.093365
118.926,78.5661,1.093365
119.035,78.5445,1.093365
119.145,78.5225,1.191654
119.254,78.5006,1.191654
119.366,78.4781,0.676904
119.472,78.4570,0.676904
119.581,78.4353,0.064196
119.692,78.4131,0.064196
119.801,78.3910,0.064196
119.910,78.3694,0.009473
120.019,78.3475,0.009473
120.128,78.3258,0.008973
120.237,78.3041,0.008973
120.347,78.2820,0.008784
120.456,78.2602,0.008784
120.565,78.2383,0.008784
120.673,78.2166,0.008860
120.783,78.1948,0.008860
120.891,78.1732,0.008935
121.001,78.1513,0.008935
121.110,78.1293,0.008898
121.221,78.1072,0.008898
121.327,78.0859,0.008879
121.435,78.0643,0.008879
121.544,78.0425,0.008879
121.653,78.0208,0.008850
121.762,77.9988,0.008850
121.871,77.9773,0.008794
121.980,77.9554,0.008794
122.090,77.9335,0.008718
122.198,77.9118,0.008718
122.306,77.8902,0.008718
122.415,77.8685,0.008747
122.524,77.8465,0.008747
122.632,77.8251,0.008737
122.744,77.8026,0.008737
122.854,77.7807,0.008662
122.964,77.7586,0.008662
123.074,77.7367,0.008709
123.184,77.7147,0.008709
123.293,77.6927,0.008709
123.402,77.6708,0.008681
123.512,77.6491,0.008681
123.622,77.6270,0.008596
123.731,77.6052,0.008596
123.840,77.5834,0.008587
123.948,77.5619,0.008587
124.058,77.5398,0.008587
124.167,77.5181,0.008568
124.277,77.4960,0.008568
124.385,77.4743,0.008511
124.494,77.4526,0.008511
124.603,77.4308,0.008464
124.711,77.4091,0.008464
124.821,77.3873,0.008389
124.930,77.3654,0.008389
125.040,77.3435,0.008389
125.150,77.3213,0.008294
125.259,77.2997,0.008294
125.367,77.2781,0.008294
125.477,77.2561,0.008294
125.587,77.2339,0.008257
125.698,77.2119,0.008257
125.807,77.1901,0.008257
125.917,77.1680,0.008162
126.026,77.1462,0.008162
126.137,77.1241,0.008125
126.245,77.1025,0.008125
126.353,77.0807,0.008040
126.464,77.0586,0.008040
126.573,77.0367,0.008040
126.681,77.0151,0.007964
126.791,76.9933,0.007964
126.899,76.9720,0.007908
127.008,76.9573,0.007908
127.115,76.9516,0.007776
127.225,76.9515,0.007776
127.335,76.9552,0.007663
127.442,76.9676,0.007663
127.551,76.9879,0.007663
127.661,77.0101,0.007418
127.771,77.0322,0.007418
127.881,77.0541,0.007267
127.989,77.0756,0.007267
128.097,77.0972,0.007342
128.206,77.1190,0.007342
128.315,77.1408,0.007342
128.424,77.1628,0.007324
128.534,77.1846,0.007324
128.642,77.2062,0.007314
128.752,77.2283,0.007314
128.862,77.2502,0.007324
128.969,77.2716,0.007324
129.077,77.2931,0.007305
129.186,77.3151,0.007305
129.295,77.3368,0.007305
129.403,77.3584,0.007314
129.513,77.3805,0.007314
129.624,77.4025,0.007342
129.731,77.4242,0.007342
129.839,77.4458,0.007342
129.950,77.4678,0.007342
130.059,77.4896,0.007390
130.167,77.5113,0.007390
130.275,77.5329,0.007390
130.386,77.5550,0.007408
130.494,77.5767,0.007408
130.602,77.5982,0.007399
130.713,77.6206,0.007399
130.822,77.6421,0.007455
130.932,77.6641,0.007455
131.039,77.6858,0.007455
131.147,77.7071,0.007484
131.258,77.7295,0.007484
131.365,77.7509,0.007465
131.473,77.7725,0.007465
131.583,77.7943,0.007465
131.692,77.8161,0.007399
131.802,77.8382,0.007399
131.912,77.8602,0.007446
132.021,77.8821,0.007446
132.128,77.9035,0.007390
132.238,77.9255,0.007390
132.345,77.9469,0.007314
132.455,77.9691,0.007314
132.564,77.9905,0.007314
132.673,78.0125,0.007295
132.781,78.0341,0.007295
132.890,78.0559,0.007239
133.000,78.0780,0.007239
133.108,78.0995,0.007248
133.218,78.1214,0.007248
133.327,78.1433,0.007210
133.435,78.1648,0.007210
133.545,78.1870,0.007210
133.655,78.2088,0.007097
133.764,78.2306,0.007097
133.873,78.2525,0.007003
133.982,78.2742,0.007003
134.092,78.2964,0.006937
134.201,78.3179,0.006937
134.309,78.3397,0.006937
134.419,78.3615,0.006786
134.528,78.3834,0.006786
134.637,78.4051,0.006692
134.747,78.4273,0.006692
134.855,78.4488,0.006617
134.964,78.4709,0.006617
135.074,78.4926,0.006438
135.185,78.5148,0.006438
135.293,78.5365,0.006438
135.402,78.5582,0.006324
135.512,78.5803,0.006324
135.621,78.6021,0.006211
135.729,78.6237,0.006211
135.840,78.6460,0.006032
135.948,78.6673,0.006032
136.057,78.6893,0.006032
136.167,78.7111,0.005976
136.276,78.7329,0.005976
136.385,78.7549,0.005929
136.493,78.7765,0.005929
136.603,78.7985,0.005674
136.713,78.8202,0.005674
136.821,78.8421,0.005570
136.931,78.8641,0.005570
137.041,78.8860,0.005570
137.148,78.9074,0.005467
137.257,78.9291,0.005467
137.365,78.9510,0.005146
137.475,78.9730,0.005146
137.583,78.9944,0.004911
137.693,79.0163,0.004911
137.803,79.0384,0.004911
137.912,79.0602,0.004741
138.024,79.0826,0.004741
138.133,79.1045,0.004562
138.241,79.1261,0.004562
138.349,79.1475,0.004421
138.459,79.1697,0.004421
138.570,79.1918,0.004213
138.679,79.2135,0.004213
138.789,79.2356,0.004213
138.897,79.2571,0.003968
139.003,79.2785,0.003968
139.112,79.3003,0.003619
139.222,79.3222,0.003619
139.331,79.3440,0.003271
139.441,79.3662,0.003271
139.550,79.3878,0.003271
139.659,79.4097,0.002978
139.769,79.4316,0.002978
139.878,79.4535,0.002564
139.988,79.4753,0.002564
140.097,79.4974,0.002564
140.208,79.5192,0.001960
140.317,79.5411,0.001225
140.424,79.5625,0.001225
140.533,79.5844,0.001225
140.642,79.6062,0.000349
140.752,79.6281,0.000349
140.860,79.6498,-0.000933
140.967,79.6712,-0.000933
141.077,79.6932,-0.002658
141.186,79.7149,-0.002658
141.294,79.7365,-0.002658
141.403,79.7584,-0.004873
141.512,79.7802,-0.004873
141.623,79.8023,-0.007672
141.732,79.8241,-0.007672
141.841,79.8460,-0.011009
141.948,79.8674,-0.011009
142.058,79.8894,-0.011009
142.169,79.9115,-0.014930
142.276,79.9326,-0.014930
142.384,79.9463,-0.019303
142.493,79.9515,-0.019303
142.602,79.9515,-0.022121
142.713,79.9515,-0.022121
142.823,79.9515,-0.021754
142.932,79.9515,-0.021754
143.040,79.9515,-0.021754
143.149,79.9515,-0.020038
143.258,79.9515,-0.020038
143.367,79.9515,-0.018681
143.476,79.9515,-0.018681
143.584,79.9515,-0.017597
143.693,79.9515,-0.017597
143.803,79.9515,-0.017597
143.913,79.9515,-0.016692
144.023,79.9515,-0.016692
144.133,79.9515,-0.015854
144.244,79.9515,-0.015854
144.351,79.9515,-0.015194
144.462,79.9515,-0.015194
144.572,79.9515,-0.014685
144.682,79.9515,-0.014685
144.792,79.9515,-0.014685
144.902,79.9515,-0.014119
145.010,79.9515,-0.014119
145.119,79.9515,-0.013686
145.230,79.9515,-0.013686
145.340,79.9515,-0.013271
145.448,79.9515,-0.013271
145.558,79.9515,-0.013271
145.667,79.9515,-0.012894
145.778,79.9515,-0.012894
145.888,79.9515,-0.012564
145.998,79.9515,-0.012564
146.107,79.9515,-0.012338
146.216,79.9515,-0.012338
146.327,79.9515,-0.012592
146.437,79.9515,-0.012592
146.546,79.9515,-0.012592
146.657,79.9515,-0.013280
146.766,79.9505,-0.013280
146.874,79.9419,-0.013761
146.984,79.9241,-0.013761
147.093,79.9022,-0.010688
147.203,79.8801,-0.010688
147.313,79.8583,-0.010688
147.423,79.8364,0.001301
147.532,79.8144,0.001301
147.641,79.7927,0.017607
147.749,79.7710,0.017607
147.858,79.7493,0.031368
147.966,79.7276,0.031368
148.076,79.7056,0.043932
148.184,79.6838,0.043932
148.293,79.6624,0.043932
148.403,79.6403,0.056731
148.512,79.6186,0.056731
148.620,79.5969,0.070568
148.729,79.5749,0.070568
148.838,79.5533,0.085385
148.948,79.5314,0.085385
149.056,79.5096,0.085385
149.164,79.4881,0.101116
149.275,79.4659,0.101116
149.384,79.4441,0.118242
149.492,79.4225,0.118242
149.600,79.4008,0.136838
149.709,79.3790,0.136838
149.819,79.3571,0.136838
149.928,79.3352,0.157291
150.037,79.3136,0.157291
150.147,79.2914,0.180233
150.254,79.2701,0.180233
150.363,79.2482,0.205672
150.472,79.2265,0.205672
150.580,79.2048,0.233646
150.689,79.1830,0.233646
150.798,79.1614,0.233646
150.908,79.1394,0.264788
151.017,79.1174,0.264788
151.127,79.0956,0.299304
151.237,79.0735,0.299304
151.344,79.0522,0.337665
151.454,79.0301,0.337665
151.563,79.0084,0.380503
151.672,78.9867,0.380503
151.780,78.9649,0.380503
151.889,78.9432,0.428535
151.997,78.9214,0.428535
152.106,78.8996,0.482156
152.214,78.8780,0.482156
152.322,78.8563,0.541697
152.432,78.8345,0.541697
152.541,78.8127,0.541697
152.650,78.7910,0.607712
152.759,78.7690,0.607712
152.869,78.7472,0.680401
152.979,78.7252,0.680401
153.087,78.7034,0.680401
153.196,78.6818,0.760800
153.304,78.6599,0.760800
153.413,78.6383,0.849134
153.524,78.6161,0.849134
153.633,78.5944,0.945632
153.742,78.5724,0.945632
153.850,78.5509,1.050876
153.961,78.5289,1.050876
154.072,78.5065,1.050876
154.179,78.4851,1.164951
154.288,78.4634,1.164951
154.397,78.4416,1.287802
154.507,78.4196,1.287802
154.617,78.3974,1.419164
154.725,78.3760,1.419164
154.835,78.3539,1.559197
154.943,78.3323,1.559197
155.053,78.3104,1.559197
155.160,78.2888,1.706592
155.269,78.2672,1.706592
155.378,78.2454,1.860697
155.487,78.2236,1.860697
155.596,78.2015,2.021711
155.706,78.1799,2.021711
155.815,78.1580,2.021711
155.924,78.1360,2.127803
156.035,78.1139,2.127803
156.143,78.0923,1.080406
156.250,78.0709,1.080406
156.359,78.0491,0.009152
156.469,78.0270,0.009152
156.579,78.0053,0.009303
156.688,77.9833,0.009303
156.796,77.9616,0.009303
156.903,77.9403,0.009246
157.012,77.9183,0.009246
157.122,77.8965,0.008907
157.231,77.8748,0.008907
157.341,77.8526,0.008662
157.451,77.8307,0.008662
157.560,77.8090,0.008662
157.669,77.7873,0.008766
157.779,77.7652,0.008766
157.889,77.7431,0.008784
157.999,77.7213,0.008784
158.108,77.6994,0.008747
158.218,77.6772,0.008747
158.328,77.6555,0.008747
158.435,77.6340,0.008747
158.543,77.6125,0.008747
158.651,77.5907,0.008671
158.760,77.5690,0.008671
158.870,77.5469,0.008634
158.979,77.5252,0.008634
159.089,77.5031,0.008605
159.197,77.4814,0.008605
159.308,77.4595,0.008605
159.416,77.4375,0.008521
159.527,77.4157,0.008521
159.635,77.3941,0.008455
159.743,77.3724,0.008455
159.853,77.3503,0.008417
159.963,77.3284,0.008417
160.070,77.3070,0.008389
160.180,77.2851,0.008389
160.288,77.2634,0.008389
160.397,77.2417,0.008313
160.506,77.2196,0.008313
160.615,77.1980,0.008294
160.725,77.1761,0.008294
160.835,77.1539,0.008228
160.944,77.1322,0.008228
161.055,77.1098,0.008228
161.164,77.0880,0.008115
161.272,77.0666,0.008115
161.381,77.0447,0.008115
161.488,77.0234,0.008087
161.598,77.0016,0.008030
161.707,76.9796,0.008030
161.816,76.9578,0.008030
161.925,76.9361,0.007964
162.034,76.9159,0.007964
162.144,76.9043,0.007889
162.253,76.9015,0.007889
162.363,76.9015,0.007635
162.470,76.9067,0.007635
162.579,76.9208,0.007418
162.688,76.9420,0.007418
162.797,76.9640,0.007418
162.906,76.9857,0.007314
163.016,77.0075,0.007314
163.124,77.0293,0.007248
163.232,77.0509,0.007248
163.342,77.0730,0.007286
163.450,77.0945,0.007286
163.560,77.1165,0.007286
163.670,77.1385,0.007314
163.779,77.1602,0.007314
163.888,77.1820,0.007229
163.999,77.2041,0.007229
164.107,77.2259,0.007248
164.215,77.2475,0.007248
164.325,77.2695,0.007342
164.433,77.2910,0.007342
164.544,77.3131,0.007342
164.652,77.3349,0.007305
164.761,77.3565,0.007305
164.871,77.3787,0.007333
164.980,77.4005,0.007333
165.090,77.4224,0.007380
165.200,77.4443,0.007380
165.309,77.4662,0.007380
165.416,77.4876,0.007390
165.524,77.5093,0.007390
165.634,77.5313,0.007418
165.744,77.5532,0.007418
165.853,77.5749,0.007418
165.962,77.5969,0.007437
166.071,77.6187,0.007465
166.180,77.6404,0.007465
166.289,77.6622,0.007465
166.397,77.6839,0.007418
166.507,77.7058,0.007418
166.616,77.7276,0.007380
166.725,77.7495,0.007380
166.833,77.7710,0.007390
166.943,77.7930,0.007390
167.052,77.8148,0.007390
167.161,77.8367,0.007418
167.271,77.8586,0.007418
167.379,77.8801,0.007446
167.488,77.9020,0.007446
167.597,77.9237,0.007408
167.707,77.9458,0.007408
167.815,77.9675,0.007352
167.925,77.9897,0.007352
168.033,78.0110,0.007352
168.143,78.0331,0.007276
168.253,78.0551,0.007276
168.361,78.0765,0.007201
168.471,78.0988,0.007201
168.580,78.1204,0.007163
168.690,78.1426,0.007163
168.800,78.1647,0.007163
168.908,78.1859,0.007097
169.015,78.2074,0.007097
169.127,78.2299,0.007022
169.234,78.2512,0.007022
169.343,78.2729,0.006965
169.452,78.2948,0.006965
169.561,78.3166,0.006965
169.669,78.3382,0.006899
169.777,78.3599,0.006899
169.886,78.3816,0.006786
169.996,78.4036,0.006786
170.106,78.4256,0.006664
170.216,78.4477,0.006664
170.326,78.4696,0.006579
170.436,78.4916,0.006579
170.544,78.5132,0.006579
170.652,78.5350,0.006419
170.761,78.5566,0.006419
170.871,78.5785,0.006315
170.979,78.6001,0.006315
171.088,78.6221,0.006192
171.197,78.6439,0.006192
171.307,78.6657,0.006192
171.416,78.6877,0.006051
171.525,78.7094,0.006051
171.633,78.7311,0.005881
171.742,78.7529,0.005881
171.850,78.7744,0.005721
171.960,78.7964,0.005721
172.071,78.8185,0.005618
172.179,78.8402,0.005618
172.290,78.8624,0.005618
172.397,78.8837,0.005401
172.508,78.9061,0.005401
172.617,78.9276,0.005184
172.725,78.9492,0.005184
172.833,78.9709,0.004986
172.942,78.9928,0.004986
173.050,79.0146,0.004986
173.159,79.0360,0.004854
173.268,79.0580,0.004854
173.377,79.0798,0.004703
173.487,79.1017,0.004703
173.596,79.1236,0.004477
173.705,79.1454,0.004477
173.814,79.1673,0.004477
173.922,79.1890,0.004194
174.033,79.2109,0.004194
174.142,79.2329,0.003836
174.251,79.2546,0.003836
174.360,79.2763,0.003506
174.469,79.2982,0.003506
174.578,79.3199,0.003195
174.688,79.3419,0.003195
174.797,79.3636,0.003195
174.906,79.3855,0.002790
175.015,79.4075,0.002790
175.125,79.4293,0.002272
175.235,79.4513,0.002272
175.344,79.4732,0.001612
175.454,79.4952,0.001612
175.562,79.5170,0.001612
175.670,79.5382,0.000839
175.780,79.5603,0.000839
175.888,79.5821,-0.000236
175.999,79.6041,-0.000236
176.108,79.6260,-0.001687
176.216,79.6476,-0.001687
176.325,79.6693,-0.003572
176.433,79.6911,-0.003572
176.542,79.7127,-0.003572
176.652,79.7349,-0.006098
176.761,79.7566,-0.006098
176.870,79.7784,-0.009227
176.980,79.8003,-0.009227
177.090,79.8224,-0.012894
177.199,79.8441,-0.012894
177.308,79.8659,-0.012894
177.418,79.8865,-0.017051
177.527,79.8984,-0.017051
177.635,79.9015,-0.020943
177.745,79.9015,-0.020943
177.853,79.9015,-0.022084
177.963,79.9015,-0.022084
178.074,79.9015,-0.022084
178.181,79.9015,-0.020613
178.290,79.9015,-0.020613
178.399,79.9015,-0.019058
178.508,79.9015,-0.019058
178.617,79.9015,-0.017823
178.727,79.9015,-0.017823
178.836,79.9015,-0.017823
178.945,79.9015,-0.016824
179.054,79.9015,-0.016824
179.164,79.9015,-0.016033
179.273,79.9015,-0.016033
179.382,79.9015,-0.015363
179.490,79.9015,-0.015363
179.600,79.9015,-0.014751
179.711,79.9015,-0.014751
179.821,79.9015,-0.014751
179.931,79.9015,-0.014185
180.039,79.9015,-0.014185
180.149,79.9015,-0.013714
180.259,79.9015,-0.013714
180.368,79.9015,-0.013243
180.478,79.9015,-0.013243
180.587,79.9015,-0.012828
180.697,79.9015,-0.012828
180.804,79.9015,-0.012828
180.914,79.9015,-0.012489
181.022,79.9015,-0.012489
181.131,79.9015,-0.012215
181.242,79.9015,-0.012215
181.351,79.9015,-0.012008
181.460,79.9015,-0.012008
181.569,79.9015,-0.012008
181.679,79.9015,-0.012234
181.788,79.9015,-0.012234
181.896,79.9015,-0.013035
182.006,79.8961,-0.013035
182.116,79.8818,-0.013393
182.224,79.8606,-0.013393
182.331,79.8392,-0.007701
182.440,79.8174,-0.007701
182.550,79.7954,-0.007701
182.659,79.7737,0.005721
182.769,79.7517,0.005721
182.879,79.7297,0.019341
182.988,79.7078,0.019341
183.096,79.6862,0.032103
183.208,79.6637,0.032103
183.317,79.6420,0.046034
183.426,79.6201,0.046034
183.536,79.5984,0.046034
183.645,79.5765,0.060087
183.756,79.5542,0.060087
183.866,79.5321,0.074498
183.975,79.5104,0.074498
184.084,79.4886,0.089560
184.193,79.4668,0.089560
184.303,79.4448,0.089560
184.413,79.4227,0.105734
184.524,79.4008,0.105734
184.632,79.3791,0.123265
184.742,79.3571,0.123265
184.851,79.3353,0.142484
184.960,79.3135,0.142484
185.071,79.2913,0.163795
185.181,79.2693,0.163795
185.290,79.2473,0.163795
185.400,79.2254,0.187226
185.510,79.2035,0.187226
185.620,79.1815,0.213259
185.728,79.1599,0.213259
185.837,79.1380,0.241997
185.948,79.1159,0.241997
186.056,79.0943,0.241997
186.164,79.0726,0.273695
186.272,79.0511,0.273695
186.381,79.0292,0.309087
186.491,79.0073,0.309087
186.600,78.9854,0.348759
186.709,78.9635,0.348759
186.819,78.9418,0.393115
186.926,78.9202,0.393115
187.036,78.8980,0.393115
187.144,78.8767,0.442589
187.254,78.8546,0.442589
187.362,78.8330,0.497661
187.473,78.8108,0.497661
187.583,78.7889,0.558540
187.692,78.7670,0.558540
187.800,78.7456,0.558540
187.909,78.7236,0.625884
188.019,78.7018,0.625884
188.127,78.6800,0.700354
188.236,78.6583,0.700354
188.344,78.6366,0.782469
188.455,78.6145,0.782469
188.563,78.5929,0.871859
188.673,78.5710,0.871859
188.781,78.5493,0.871859
188.888,78.5279,0.960854
188.997,78.5062,0.960854
189.105,78.4844,0.903858
189.214,78.4627,0.903858
189.324,78.4406,0.411164
189.432,78.4193,0.411164
189.541,78.3971,0.411164
189.651,78.3754,0.013902
189.760,78.3534,0.013902
189.869,78.3318,0.009378
189.977,78.3101,0.009378
190.086,78.2884,0.009030
190.195,78.2664,0.009030
190.303,78.2449,0.009030
190.411,78.2232,0.008945
190.522,78.2010,0.008945
190.630,78.1795,0.008935
190.738,78.1578,0.008935
190.846,78.1363,0.008898
190.955,78.1145,0.008898
191.066,78.0921,0.008898
191.177,78.0701,0.008860
191.284,78.0487,0.008860
191.392,78.0269,0.008784
191.502,78.0050,0.008784
191.610,77.9833,0.008662
191.720,77.9614,0.008662
191.828,77.9398,0.008653
191.938,77.9180,0.008653
192.048,77.8958,0.008653
192.158,77.8738,0.008634
192.268,77.8520,0.008634
192.377,77.8302,0.008615
192.487,77.8081,0.008615
192.594,77.7868,0.008605
192.702,77.7651,0.008605
192.811,77.7433,0.008605
192.919,77.7218,0.008577
193.028,77.6998,0.008577
193.138,77.6780,0.008539
193.248,77.6559,0.008539
193.358,77.6340,0.008539
193.466,77.6124,0.008539
193.576,77.5902,0.008426
193.684,77.5687,0.008426
193.794,77.5466,0.008426
193.902,77.5252,0.008370
194.011,77.5032,0.008370
194.119,77.4817,0.008417
194.229,77.4597,0.008417
194.336,77.4384,0.008323
194.446,77.4163,0.008323
194.554,77.3947,0.008323
194.662,77.3729,0.008257
194.772,77.3512,0.008257
194.880,77.3295,0.008210
194.990,77.3075,0.008210
195.100,77.2855,0.008144
195.209,77.2636,0.008144
195.318,77.2420,0.008078
195.427,77.2202,0.008078
195.537,77.1983,0.008078
195.645,77.1763,0.008106
195.754,77.1547,0.008106
195.864,77.1328,0.008059
195.972,77.1111,0.008059
196.081,77.0892,0.008059
196.189,77.0677,0.007908
196.299,77.0458,0.007908
196.409,77.0238,0.007880
196.519,77.0017,0.007880
196.629,76.9796,0.007842
196.740,76.9577,0.007842
196.848,76.9360,0.007776
196.957,76.9143,0.007776
197.066,76.8923,0.007710
197.175,76.8712,0.007710
197.284,76.8568,0.007710
197.393,76.8515,0.007540
197.500,76.8515,0.007540
197.610,76.8550,0.007390
197.718,76.8670,0.007390
197.829,76.8878,0.007154
197.939,76.9099,0.007154
198.049,76.9319,0.007154
198.159,76.9539,0.007031
198.267,76.9755,0.007031
198.376,76.9973,0.007107
198.484,77.0188,0.007107
198.592,77.0408,0.007126
198.701,77.0622,0.007126
198.810,77.0840,0.007126
198.919,77.1057,0.007135
199.028,77.1277,0.007135
199.138,77.1496,0.007154
199.248,77.1716,0.007154
199.357,77.1934,0.007126
199.468,77.2158,0.007126
199.576,77.2373,0.007088
199.686,77.2594,0.007088
199.794,77.2807,0.007088
199.903,77.3027,0.007107
200.013,77.3248,0.007107
200.122,77.3463,0.007135
200.230,77.3681,0.007135
200.339,77.3899,0.007154
200.448,77.4116,0.007154
200.558,77.4338,0.007154
200.667,77.4554,0.007135
200.775,77.4771,0.007135
200.884,77.4988,0.007201
200.995,77.5210,0.007201
201.103,77.5427,0.007239
201.212,77.5643,0.007239
201.321,77.5862,0.007305
201.428,77.6075,0.007305
201.538,77.6297,0.007305
201.648,77.6516,0.007352
201.756,77.6734,0.007352
201.866,77.6952,0.007352
201.976,77.7173,0.007352
202.085,77.7391,0.007399
202.194,77.7607,0.007399
202.303,77.7825,0.007399
202.412,77.8044,0.007342
202.521,77.8264,0.007342
202.629,77.8478,0.007352
202.739,77.8700,0.007352
202.849,77.8918,0.007380
202.960,77.9141,0.007380
203.069,77.9357,0.007380
203.178,77.9575,0.007324
203.287,77.9795,0.007324
203.394,78.0009,0.007267
203.504,78.0228,0.007267
203.613,78.0447,0.007229
203.725,78.0669,0.007229
203.836,78.0891,0.007107
203.945,78.1110,0.007107
204.055,78.1330,0.007107
204.165,78.1550,0.007022
204.275,78.1771,0.007022
204.384,78.1988,0.007003
204.493,78.2208,0.007003
204.602,78.2424,0.006899
204.711,78.2641,0.006899
204.822,78.2864,0.006824
204.933,78.3086,0.006824
205.041,78.3304,0.006824
205.152,78.3523,0.006711
205.259,78.3738,0.006711
205.366,78.3953,0.006560
205.475,78.4170,0.006560
205.585,78.4390,0.006475
205.693,78.4606,0.006475
205.805,78.4831,0.006475
205.912,78.5045,0.006428
206.020,78.5259,0.006428
206.128,78.5476,0.006381
206.239,78.5697,0.006381
206.348,78.5915,0.006258
206.456,78.6132,0.006258
206.563,78.6346,0.006098
206.672,78.6565,0.006098
206.781,78.6782,0.006098
206.891,78.7002,0.005929
207.000,78.7221,0.005929
207.110,78.7440,0.005759
207.219,78.7658,0.005759
207.329,78.7879,0.005599
207.438,78.8095,0.005599
207.548,78.8317,0.005599
207.655,78.8530,0.005382
207.763,78.8747,0.005382
207.872,78.8964,0.005184
207.979,78.9178,0.005184
208.090,78.9402,0.005071
208.199,78.9619,0.005071
208.309,78.9837,0.005071
208.418,79.0055,0.004892
208.527,79.0275,0.004892
208.637,79.0494,0.004628
208.746,79.0711,0.004628
208.854,79.0930,0.004383
208.964,79.1147,0.004383
209.073,79.1366,0.004138
209.182,79.1583,0.004138
209.290,79.1800,0.004138
209.401,79.2024,0.003827
209.512,79.2243,0.003827
209.620,79.2461,0.003469
209.730,79.2680,0.003469
209.838,79.2895,0.003110
209.946,79.3114,0.003110
210.056,79.3332,0.003110
210.166,79.3553,0.002743
210.274,79.3766,0.002743
210.382,79.3982,0.002243
210.491,79.4203,0.002243
210.600,79.4420,0.001508
210.709,79.4638,0.001508
210.820,79.4859,0.000547
210.928,79.5075,0.000547
211.038,79.5295,0.000547
211.146,79.5512,-0.000679
211.256,79.5733,-0.000679
211.364,79.5948,-0.002337
211.473,79.6167,-0.002337
211.581,79.6382,-0.002337
211.691,79.6601,-0.004524
211.801,79.6822,-0.004524
211.909,79.7038,-0.007342
212.020,79.7260,-0.007342
212.128,79.7476,-0.010896
212.238,79.7695,-0.010896
212.348,79.7916,-0.014911
212.455,79.8131,-0.014911
212.564,79.8339,-0.019247
212.673,79.8472,-0.019247
212.782,79.8515,-0.019247
212.892,79.8515,-0.022348
