Elapsed Time (s),Position (mm),Force (N)
-0.010,76.1515,-0.042028
0.098,76.1515,-0.041651
0.207,76.1515,-0.041651
0.316,76.1515,-0.040529
0.425,76.1515,-0.040529
0.535,76.1515,-0.039643
0.643,76.1515,-0.039643
0.752,76.1515,-0.039643
0.862,76.1515,-0.038804
0.971,76.1515,-0.038804
1.081,76.1515,-0.038145
1.190,76.1515,-0.038145
1.299,76.1515,-0.037560
1.408,76.1515,-0.037560
1.518,76.1515,-0.037061
1.627,76.1515,-0.037061
1.735,76.1515,-0.037061
1.844,76.1515,-0.036637
1.955,76.1515,-0.036637
2.064,76.1515,-0.036212
2.172,76.1515,-0.036212
2.283,76.1515,-0.035835
2.390,76.1515,-0.035835
2.499,76.1515,-0.035835
2.609,76.1515,-0.035458
2.720,76.1515,-0.035458
2.829,76.1515,-0.035176
2.939,76.1515,-0.035176
3.048,76.1515,-0.035176
3.158,76.1515,-0.034902
3.267,76.1515,-0.034902
3.377,76.1515,-0.034572
3.486,76.1515,-0.034572
3.596,76.1515,-0.034440
3.706,76.1515,-0.034440
3.814,76.1515,-0.034770
3.922,76.1515,-0.034770
4.033,76.1515,-0.035157
4.142,76.1469,-0.035157
4.252,76.1332,-0.035157
4.361,76.1122,-0.034271
4.470,76.0902,-0.034271
4.581,76.0682,-0.026693
4.691,76.0461,-0.026693
4.800,76.0243,-0.011970
4.909,76.0024,-0.011970
5.017,75.9807,-0.011970
5.127,75.9589,0.002733
5.237,75.9368,0.002733
5.345,75.9154,0.015335
5.455,75.8932,0.015335
5.564,75.8715,0.027437
5.674,75.8495,0.027437
5.781,75.8282,0.039879
5.890,75.8062,0.039879
5.999,75.7844,0.039879
6.109,75.7626,0.052782
6.218,75.7407,0.052782
6.328,75.7188,0.052782
6.435,75.6973,0.066430
6.543,75.6756,0.080710
6.653,75.6537,0.080710
6.764,75.6315,0.096026
6.873,75.6096,0.096026
6.982,75.5878,0.096026
7.090,75.5664,0.113039
7.200,75.5442,0.113039
7.308,75.5228,0.131579
7.418,75.5006,0.131579
7.528,75.4788,0.151871
7.634,75.4575,0.151871
7.743,75.4355,0.151871
7.854,75.4134,0.174172
7.964,75.3915,0.174172
8.073,75.3698,0.198735
8.182,75.3478,0.198735
8.291,75.3261,0.225738
8.399,75.3046,0.225738
8.509,75.2826,0.225738
8.618,75.2606,0.255607
8.726,75.2389,0.255607
8.836,75.2172,0.288870
8.944,75.1953,0.288870
9.052,75.1740,0.325968
9.162,75.1519,0.325968
9.271,75.1300,0.325968
9.379,75.1086,0.367383
9.488,75.0866,0.367383
9.597,75.0648,0.413436
9.707,75.0430,0.413436
9.818,75.0205,0.464390
9.928,74.9986,0.464390
10.034,74.9775,0.520838
10.145,74.9554,0.520838
10.253,74.9337,0.520838
10.363,74.9118,0.583970
10.472,74.8901,0.583970
10.581,74.8680,0.654170
10.691,74.8462,0.654170
10.799,74.8246,0.731477
10.908,74.8028,0.731477
11.017,74.7808,0.815985
11.126,74.7592,0.815985
11.236,74.7373,0.815985
11.346,74.7152,0.908147
11.455,74.6932,0.908147
11.563,74.6717,0.908147
11.673,74.6497,1.008348
11.782,74.6278,1.116090
11.892,74.6061,1.116090
12.002,74.5840,1.116090
12.111,74.5623,1.231561
12.220,74.5403,1.231561
12.332,74.5179,1.351197
12.442,74.4960,1.351197
12.553,74.4737,1.351197
12.660,74.4523,1.441615
12.771,74.4302,1.441615
12.880,74.4081,0.819991
12.987,74.3869,0.819991
13.098,74.3648,0.086525
13.208,74.3427,0.086525
13.318,74.3207,0.005288
13.429,74.2985,0.005288
13.537,74.2770,0.005316
13.645,74.2552,0.005316
13.753,74.2337,0.005316
13.863,74.2117,0.005203
13.971,74.1901,0.005203
14.080,74.1685,0.005109
14.187,74.1465,0.005109
14.297,74.1250,0.005090
14.405,74.1033,0.005090
14.513,74.0817,0.005090
14.622,74.0600,0.005071
14.731,74.0383,0.005071
14.840,74.0164,0.005071
14.948,73.9947,0.005033
15.056,73.9732,0.005005
15.166,73.9512,0.005005
15.275,73.9294,0.005005
15.383,73.9078,0.005014
15.493,73.8856,0.005014
15.602,73.8639,0.005061
15.712,73.8419,0.005061
15.822,73.8201,0.005061
15.932,73.7979,0.005061
16.040,73.7765,0.005014
16.149,73.7546,0.005014
16.259,73.7324,0.005014
16.367,73.7110,0.005014
16.478,73.6888,0.005014
16.586,73.6673,0.005033
16.694,73.6455,0.005033
16.802,73.6238,0.005043
16.911,73.6023,0.005043
17.019,73.5805,0.005043
17.129,73.5587,0.005061
17.237,73.5370,0.005061
17.346,73.5151,0.005033
17.456,73.4931,0.005033
17.566,73.4712,0.004939
17.674,73.4494,0.004939
17.785,73.4273,0.004958
17.894,73.4055,0.004958
18.002,73.3839,0.004958
18.112,73.3621,0.005043
18.221,73.3400,0.005043
18.330,73.3183,0.005099
18.439,73.2965,0.005099
18.548,73.2748,0.005099
18.657,73.2531,0.005099
18.765,73.2311,0.005090
18.874,73.2095,0.005090
18.984,73.1876,0.005090
19.092,73.1659,0.005099
19.200,73.1443,0.005099
19.309,73.1229,0.005099
19.418,73.1078,0.005099
19.527,73.1016,0.005005
19.636,73.1015,0.005005
19.746,73.1050,0.005005
19.853,73.1170,0.004901
19.962,73.1375,0.004901
20.071,73.1591,0.004873
20.180,73.1809,0.004873
20.289,73.2028,0.004788
20.400,73.2248,0.004788
20.510,73.2469,0.004788
20.620,73.2688,0.004713
20.727,73.2904,0.004713
20.835,73.3119,0.004722
20.944,73.3338,0.004722
21.053,73.3555,0.004722
21.163,73.3776,0.004713
21.272,73.3992,0.004713
21.382,73.4213,0.004703
21.491,73.4430,0.004703
21.600,73.4648,0.004628
21.710,73.4869,0.004628
21.818,73.5084,0.004552
21.927,73.5303,0.004552
22.036,73.5521,0.004543
22.143,73.5734,0.004543
22.252,73.5953,0.004543
22.363,73.6173,0.004458
22.471,73.6392,0.004458
22.580,73.6609,0.004411
22.691,73.6832,0.004411
22.800,73.7049,0.004402
22.909,73.7268,0.004402
23.017,73.7483,0.004402
23.127,73.7703,0.004373
23.236,73.7923,0.004373
23.344,73.8138,0.004364
23.454,73.8359,0.004364
23.563,73.8576,0.004364
23.673,73.8796,0.004364
23.783,73.9015,0.004364
23.892,73.9232,0.004364
24.000,73.9450,0.004364
24.110,73.9670,0.004279
24.219,73.9888,0.004279
24.330,74.0109,0.004194
24.441,74.0329,0.004194
24.546,74.0543,0.004175
24.656,74.0761,0.004175
24.766,74.0981,0.004175
24.875,74.1198,0.004109
24.984,74.1418,0.004109
25.092,74.1633,0.004043
25.200,74.1849,0.004043
25.308,74.2066,0.004062
25.417,74.2283,0.004062
25.523,74.2495,0.004119
25.634,74.2718,0.004119
25.743,74.2935,0.004119
25.852,74.3153,0.004034
25.962,74.3373,0.004034
26.069,74.3589,0.003940
26.179,74.3806,0.003940
26.289,74.4027,0.003940
26.398,74.4245,0.003940
26.507,74.4463,0.003940
26.616,74.4680,0.003912
26.724,74.4897,0.003912
26.833,74.5114,0.003912
26.941,74.5331,0.003846
27.050,74.5548,0.003798
27.160,74.5769,0.003798
27.269,74.5987,0.003798
27.378,74.6204,0.003770
27.487,74.6424,0.003770
27.596,74.6640,0.003723
27.706,74.6862,0.003723
27.815,74.7077,0.003695
27.923,74.7296,0.003695
28.033,74.7514,0.003638
28.143,74.7735,0.003638
28.251,74.7951,0.003638
28.359,74.8168,0.003582
28.469,74.8388,0.003582
28.579,74.8607,0.003525
28.689,74.8826,0.003525
28.796,74.9042,0.003421
28.907,74.9263,0.003421
29.016,74.9480,0.003365
29.126,74.9701,0.003365
29.236,74.9920,0.003365
29.344,75.0138,0.003299
29.454,75.0357,0.003299
29.563,75.0576,0.003186
29.673,75.0794,0.003186
29.782,75.1014,0.003082
29.890,75.1229,0.003082
29.999,75.1446,0.003082
30.109,75.1668,0.002894
30.217,75.1882,0.002894
30.327,75.2102,0.002705
30.435,75.2317,0.002705
30.546,75.2539,0.002469
30.654,75.2755,0.002469
30.763,75.2976,0.002469
30.872,75.3194,0.002158
30.982,75.3411,0.002158
31.091,75.3630,0.001838
31.200,75.3850,0.001838
31.310,75.4069,0.001367
31.417,75.4282,0.001367
31.527,75.4503,0.000745
31.637,75.4724,0.000745
31.746,75.4941,0.000745
31.856,75.5160,-0.000038
31.964,75.5375,-0.000038
32.074,75.5597,-0.000038
32.183,75.5815,-0.001074
32.291,75.6031,-0.002488
32.400,75.6247,-0.002488
32.509,75.6466,-0.002488
32.618,75.6683,-0.004307
32.725,75.6899,-0.004307
32.834,75.7116,-0.006551
32.942,75.7334,-0.006551
33.052,75.7551,-0.009388
33.160,75.7770,-0.009388
33.268,75.7984,-0.009388
33.377,75.8201,-0.012715
33.486,75.8421,-0.012715
33.594,75.8636,-0.016428
33.703,75.8856,-0.016428
33.813,75.9074,-0.020538
33.922,75.9291,-0.020538
34.029,75.9507,-0.024930
34.139,75.9727,-0.024930
34.249,75.9947,-0.024930
34.357,76.0162,-0.029454
34.467,76.0384,-0.029454
34.575,76.0599,-0.034186
34.684,76.0812,-0.034186
34.792,76.0957,-0.034186
34.902,76.1014,-0.038936
35.012,76.1015,-0.038936
35.121,76.1015,-0.041773
35.230,76.1015,-0.041773
35.339,76.1015,-0.041632
35.449,76.1015,-0.041632
35.558,76.1015,-0.040435
35.668,76.1015,-0.040435
35.777,76.1015,-0.039568
35.885,76.1015,-0.039568
35.994,76.1015,-0.039568
36.103,76.1015,-0.038833
36.213,76.1015,-0.038833
36.323,76.1015,-0.038145
36.433,76.1015,-0.038145
36.542,76.1015,-0.037513
36.652,76.1015,-0.037513
36.760,76.1015,-0.037513
36.869,76.1015,-0.037032
36.979,76.1015,-0.037032
37.087,76.1015,-0.036608
37.197,76.1015,-0.036608
37.307,76.1015,-0.036175
37.417,76.1015,-0.036175
37.525,76.1015,-0.035807
37.633,76.1015,-0.035807
37.743,76.1015,-0.035807
37.852,76.1015,-0.035449
37.963,76.1015,-0.035449
38.071,76.1015,-0.035185
38.181,76.1015,-0.035185
38.291,76.1015,-0.034893
38.400,76.1015,-0.034893
38.509,76.1015,-0.034893
38.618,76.1015,-0.034591
38.728,76.1015,-0.034591
38.837,76.1015,-0.034488
38.946,76.1015,-0.034488
39.056,76.1015,-0.034751
39.166,76.1015,-0.034751
39.277,76.1015,-0.035091
39.385,76.0992,-0.035091
39.496,76.0881,-0.035091
39.604,76.0687,-0.034440
39.715,76.0463,-0.034440
39.826,76.0241,-0.027598
39.936,76.0022,-0.027598
40.045,75.9804,-0.013431
40.155,75.9584,-0.013431
40.266,75.9361,-0.013431
40.374,75.9146,0.001244
40.484,75.8925,0.001244
40.595,75.8706,0.014072
40.703,75.8486,0.014072
40.813,75.8268,0.026240
40.920,75.8055,0.026240
41.031,75.7833,0.038522
41.140,75.7615,0.038522
41.249,75.7396,0.038522
41.358,75.7178,0.051406
41.468,75.6957,0.051406
41.579,75.6736,0.064979
41.687,75.6519,0.064979
41.796,75.6301,0.079136
41.905,75.6085,0.079136
42.014,75.5863,0.079136
42.123,75.5648,0.094461
42.232,75.5430,0.094461
42.342,75.5210,0.111408
42.449,75.4996,0.111408
42.557,75.4779,0.129807
42.665,75.4564,0.129807
42.774,75.4345,0.129807
42.883,75.4127,0.149920
42.991,75.3912,0.149920
43.099,75.3695,0.171919
43.207,75.3481,0.171919
43.313,75.3268,0.196095
43.423,75.3047,0.196095
43.532,75.2830,0.222788
43.641,75.2613,0.222788
43.750,75.2393,0.222788
43.860,75.2175,0.252205
43.970,75.1954,0.252205
44.079,75.1736,0.285109
44.188,75.1520,0.285109
44.297,75.1299,0.321943
44.406,75.1082,0.321943
44.514,75.0865,0.321943
44.623,75.0649,0.362831
44.731,75.0432,0.362831
44.841,75.0213,0.408139
44.951,74.9992,0.408139
45.062,74.9769,0.458621
45.171,74.9553,0.458621
45.281,74.9333,0.514269
45.389,74.9116,0.514269
45.498,74.8898,0.514269
45.607,74.8680,0.572141
45.714,74.8465,0.572141
45.823,74.8247,0.616647
45.932,74.8030,0.616647
46.041,74.7813,0.618947
46.150,74.7593,0.618947
46.259,74.7376,0.618947
46.369,74.7156,0.561603
46.478,74.6939,0.561603
46.588,74.6717,0.561603
46.697,74.6500,0.440534
46.807,74.6280,0.192486
46.915,74.6064,0.192486
47.025,74.5845,0.013912
47.133,74.5629,0.013912
47.242,74.5411,0.013912
47.352,74.5191,0.006013
47.460,74.4974,0.006013
47.570,74.4755,0.006013
47.679,74.4536,0.005495
47.787,74.4319,0.005316
47.897,74.4101,0.005316
48.006,74.3884,0.005316
48.116,74.3663,0.005203
48.224,74.3445,0.005203
48.333,74.3228,0.005109
48.443,74.3008,0.005109
48.551,74.2791,0.005071
48.660,74.2575,0.005071
48.770,74.2356,0.005014
48.879,74.2136,0.005014
48.990,74.1914,0.005014
49.099,74.1696,0.004948
49.210,74.1475,0.004948
49.319,74.1258,0.004948
49.427,74.1040,0.004948
49.537,74.0821,0.005005
49.647,74.0600,0.005005
49.757,74.0381,0.005005
49.866,74.0162,0.004977
49.976,73.9944,0.004977
50.087,73.9722,0.004911
50.196,73.9501,0.004911
50.305,73.9285,0.004929
50.413,73.9067,0.004929
50.523,73.8847,0.004929
50.633,73.8628,0.004920
50.742,73.8411,0.004920
50.851,73.8192,0.004920
50.962,73.7970,0.004920
51.071,73.7753,0.004958
51.180,73.7533,0.004958
51.288,73.7319,0.004967
51.398,73.7100,0.004967
51.506,73.6883,0.004967
51.615,73.6666,0.004967
51.725,73.6442,0.004967
51.835,73.6224,0.004948
51.944,73.6006,0.004948
52.053,73.5786,0.004948
52.161,73.5573,0.004948
52.271,73.5352,0.004977
52.380,73.5135,0.004977
52.490,73.4913,0.004977
52.599,73.4696,0.005005
52.710,73.4474,0.005005
52.818,73.4257,0.004986
52.929,73.4036,0.004986
53.037,73.3821,0.005005
53.148,73.3600,0.005005
53.257,73.3380,0.005005
53.367,73.3158,0.005024
53.478,73.2939,0.005024
53.588,73.2718,0.005014
53.698,73.2497,0.005014
53.807,73.2282,0.005052
53.917,73.2061,0.005052
54.028,73.1840,0.005052
54.136,73.1620,0.005052
54.244,73.1407,0.005052
54.353,73.1189,0.004995
54.462,73.0971,0.004995
54.570,73.0755,0.005033
54.680,73.0591,0.005033
54.789,73.0519,0.005005
54.898,73.0515,0.005005
55.006,73.0515,0.005005
55.115,73.0515,0.004958
55.225,73.0515,0.004958
55.334,73.0556,0.004920
55.445,73.0689,0.004920
55.555,73.0899,0.004779
55.664,73.1118,0.004779
55.773,73.1338,0.004703
55.882,73.1552,0.004703
55.992,73.1774,0.004703
56.102,73.1994,0.004703
56.211,73.2212,0.004703
56.319,73.2428,0.004675
56.428,73.2644,0.004675
56.536,73.2861,0.004637
56.646,73.3081,0.004637
56.754,73.3297,0.004637
56.864,73.3518,0.004637
56.973,73.3735,0.004637
57.082,73.3952,0.004590
57.193,73.4175,0.004590
57.302,73.4392,0.004515
57.410,73.4608,0.004515
57.519,73.4828,0.004515
57.628,73.5045,0.004534
57.737,73.5264,0.004534
57.848,73.5485,0.004505
57.958,73.5706,0.004505
58.067,73.5924,0.004505
58.176,73.6141,0.004430
58.285,73.6361,0.004421
58.393,73.6575,0.004421
58.503,73.6796,0.004421
58.613,73.7015,0.004355
58.721,73.7231,0.004355
58.830,73.7450,0.004251
58.939,73.7667,0.004251
59.047,73.7884,0.004260
59.158,73.8107,0.004260
59.267,73.8324,0.004260
59.378,73.8545,0.004260
59.484,73.8757,0.004260
59.593,73.8975,0.004166
59.702,73.9192,0.004166
59.812,73.9413,0.004157
59.920,73.9630,0.004157
60.030,73.9848,0.004213
60.139,74.0068,0.004213
60.249,74.0287,0.004213
60.358,74.0504,0.004147
60.466,74.0720,0.004147
60.574,74.0937,0.004062
60.682,74.1153,0.004062
60.793,74.1374,0.004053
60.901,74.1591,0.004053
61.010,74.1809,0.004053
61.120,74.2029,0.004043
61.228,74.2243,0.004043
61.338,74.2464,0.003987
61.448,74.2685,0.003987
61.557,74.2902,0.003912
61.665,74.3119,0.003912
61.774,74.3337,0.003874
61.885,74.3559,0.003874
61.995,74.3778,0.003874
62.102,74.3993,0.003902
62.210,74.4209,0.003902
62.319,74.4428,0.003855
62.430,74.4648,0.003855
62.539,74.4867,0.003855
62.649,74.5087,0.003742
62.758,74.5306,0.003742
62.867,74.5521,0.003732
62.976,74.5741,0.003732
63.084,74.5956,0.003704
63.194,74.6178,0.003704
63.304,74.6397,0.003657
63.412,74.6612,0.003657
63.520,74.6827,0.003657
63.630,74.7049,0.003572
63.738,74.7264,0.003572
63.846,74.7481,0.003497
63.954,74.7698,0.003497
64.063,74.7916,0.003497
64.173,74.8137,0.003497
64.283,74.8355,0.003478
64.390,74.8568,0.003478
64.500,74.8788,0.003478
64.611,74.9011,0.003393
64.720,74.9228,0.003393
64.829,74.9446,0.003271
64.937,74.9665,0.003271
65.045,74.9878,0.003158
65.154,75.0097,0.003158
65.263,75.0316,0.003158
65.373,75.0534,0.003026
65.481,75.0751,0.003026
65.590,75.0967,0.002865
65.700,75.1189,0.002865
65.809,75.1406,0.002705
65.918,75.1625,0.002705
66.028,75.1844,0.002705
66.136,75.2061,0.002479
66.244,75.2277,0.002479
66.353,75.2495,0.002215
66.463,75.2717,0.002215
66.573,75.2935,0.002215
66.683,75.3155,0.001866
66.792,75.3373,0.001376
66.902,75.3594,0.001376
67.010,75.3807,0.001376
67.121,75.4029,0.000839
67.231,75.4250,0.000839
67.340,75.4467,0.000123
67.447,75.4683,0.000123
67.556,75.4901,-0.000839
67.665,75.5119,-0.000839
67.775,75.5339,-0.002074
67.885,75.5559,-0.002074
67.992,75.5773,-0.002074
68.103,75.5994,-0.003827
68.209,75.6204,-0.003827
68.318,75.6425,-0.006032
68.429,75.6647,-0.006032
68.537,75.6862,-0.008737
68.647,75.7084,-0.008737
68.757,75.7302,-0.008737
68.865,75.7520,-0.011904
68.973,75.7735,-0.011904
69.083,75.7954,-0.015448
69.193,75.8175,-0.015448
69.301,75.8391,-0.015448
69.411,75.8610,-0.019379
69.520,75.8827,-0.019379
69.629,75.9048,-0.023658
69.737,75.9263,-0.023658
69.847,75.9482,-0.028154
69.955,75.9699,-0.028154
70.066,75.9923,-0.032800
70.176,76.0140,-0.032800
70.284,76.0346,-0.037504
70.394,76.0476,-0.037504
70.502,76.0515,-0.037504
70.612,76.0515,-0.041189
70.719,76.0515,-0.041189
70.831,76.0515,-0.042028
70.939,76.0515,-0.042028
71.048,76.0515,-0.042028
71.156,76.0515,-0.040887
71.265,76.0515,-0.040887
71.375,76.0515,-0.039898
71.484,76.0515,-0.039898
71.593,76.0515,-0.039097
71.702,76.0515,-0.039097
71.812,76.0515,-0.038324
71.923,76.0515,-0.038324
72.033,76.0515,-0.038324
72.142,76.0515,-0.037777
72.251,76.0515,-0.037777
72.361,76.0515,-0.037277
72.470,76.0515,-0.037277
72.579,76.0515,-0.036750
72.690,76.0515,-0.036750
72.798,76.0515,-0.036344
72.908,76.0515,-0.036344
73.017,76.0515,-0.036344
73.126,76.0515,-0.035996
73.237,76.0515,-0.035996
73.346,76.0515,-0.035571
73.456,76.0515,-0.035571
73.566,76.0515,-0.035223
73.677,76.0515,-0.035223
73.786,76.0515,-0.034940
73.897,76.0515,-0.034940
74.007,76.0515,-0.034940
74.117,76.0515,-0.034676
74.228,76.0515,-0.034676
74.338,76.0515,-0.034469
74.449,76.0515,-0.034469
74.558,76.0515,-0.034488
74.668,76.0515,-0.034488
74.776,76.0515,-0.034836
74.884,76.0515,-0.034836
74.995,76.0514,-0.034836
75.104,76.0456,-0.035100
75.211,76.0308,-0.035100
75.320,76.0094,-0.033159
75.428,75.9879,-0.033159
75.538,75.9660,-0.023724
75.647,75.9441,-0.023724
75.756,75.9224,-0.023724
75.864,75.9006,-0.008539
75.974,75.8788,-0.008539
76.083,75.8568,0.005523
76.193,75.8350,0.005523
76.303,75.8128,0.017918
76.412,75.7912,0.017918
76.519,75.7698,0.017918
76.627,75.7481,0.030010
76.736,75.7264,0.030010
76.845,75.7044,0.042499
76.954,75.6828,0.042499
77.063,75.6610,0.055761
77.172,75.6392,0.055761
77.282,75.6172,0.069644
77.390,75.5955,0.069644
77.500,75.5737,0.069644
77.607,75.5522,0.084103
77.716,75.5304,0.084103
77.826,75.5083,0.099862
77.936,75.4864,0.099862
78.044,75.4647,0.117280
78.154,75.4428,0.117280
78.263,75.4209,0.117280
78.372,75.3993,0.136216
78.481,75.3775,0.136216
78.590,75.3555,0.156726
78.700,75.3337,0.156726
78.807,75.3122,0.179252
78.915,75.2905,0.179252
79.024,75.2687,0.204267
79.133,75.2469,0.204267
79.243,75.2252,0.204267
79.352,75.2032,0.231940
79.461,75.1814,0.231940
79.569,75.1599,0.262554
79.678,75.1379,0.262554
79.788,75.1159,0.296721
79.898,75.0941,0.296721
80.006,75.0723,0.296721
80.113,75.0510,0.334819
80.223,75.0288,0.334819
80.331,75.0073,0.377073
80.442,74.9853,0.377073
80.552,74.9631,0.424237
80.662,74.9412,0.424237
80.770,74.9196,0.476906
80.878,74.8980,0.476906
80.989,74.8758,0.476906
81.099,74.8537,0.535542
81.208,74.8320,0.535542
81.318,74.8101,0.600379
81.430,74.7876,0.600379
81.538,74.7659,0.672210
81.647,74.7442,0.672210
81.756,74.7225,0.672210
81.866,74.7004,0.750677
81.975,74.6786,0.750677
82.084,74.6568,0.836354
82.194,74.6348,0.836354
82.302,74.6132,0.930711
82.411,74.5914,0.930711
82.520,74.5696,1.033250
82.630,74.5475,1.033250
82.740,74.5254,1.033250
82.849,74.5039,1.143989
82.957,74.4823,1.143989
83.067,74.4602,1.261788
83.177,74.4381,1.261788
83.286,74.4165,1.261788
83.395,74.3947,1.384177
83.504,74.3726,1.384177
83.614,74.3509,1.496433
83.723,74.3289,1.496433
83.832,74.3073,0.976132
83.942,74.2853,0.976132
84.049,74.2639,0.205936
84.157,74.2423,0.205936
84.266,74.2203,0.205936
84.376,74.1985,0.005665
84.486,74.1764,0.005665
84.595,74.1546,0.005118
84.703,74.1329,0.005118
84.812,74.1112,0.005165
84.921,74.0894,0.005165
85.031,74.0673,0.005165
85.141,74.0456,0.005146
85.248,74.0238,0.005146
85.356,74.0024,0.005090
85.465,73.9806,0.005090
85.575,73.9586,0.005071
85.684,73.9368,0.005071
85.794,73.9147,0.005014
85.902,73.8933,0.005014
86.012,73.8712,0.005014
86.119,73.8499,0.004977
86.229,73.8279,0.004977
86.337,73.8062,0.004986
86.444,73.7848,0.004986
86.554,73.7628,0.004958
86.664,73.7409,0.004958
86.772,73.7194,0.004958
86.882,73.6973,0.004958
86.991,73.6754,0.004958
87.099,73.6538,0.004986
87.208,73.6320,0.004986
87.318,73.6101,0.004967
87.426,73.5886,0.004967
87.536,73.5664,0.004967
87.647,73.5444,0.004967
87.755,73.5227,0.004967
87.863,73.5010,0.005024
87.971,73.4794,0.005024
88.080,73.4575,0.005014
88.191,73.4355,0.005014
88.301,73.4136,0.005033
88.409,73.3919,0.005033
88.519,73.3699,0.005061
88.626,73.3485,0.005061
88.734,73.3269,0.005061
88.843,73.3049,0.005024
88.952,73.2833,0.005024
89.061,73.2614,0.005024
89.169,73.2399,0.005014
89.279,73.2180,0.005005
89.387,73.1962,0.005005
89.496,73.1744,0.005005
89.605,73.1525,0.005071
89.713,73.1310,0.005071
89.823,73.1091,0.005118
89.933,73.0871,0.005118
90.043,73.0651,0.005118
90.152,73.0431,0.005118
90.261,73.0218,0.005118
90.372,73.0070,0.005090
90.481,73.0014,0.005090
90.592,73.0019,0.004929
90.701,73.0094,0.004929
90.811,73.0259,0.004807
90.922,73.0479,0.004807
91.030,73.0696,0.004750
91.138,73.0912,0.004750
91.249,73.1133,0.004750
91.359,73.1355,0.004760
91.469,73.1575,0.004760
91.580,73.1797,0.004741
91.689,73.2014,0.004741
91.798,73.2231,0.004628
91.907,73.2450,0.004628
92.018,73.2671,0.004637
92.128,73.2892,0.004637
92.236,73.3109,0.004637
92.345,73.3326,0.004628
92.454,73.3547,0.004628
92.563,73.3762,0.004628
92.671,73.3981,0.004534
92.782,73.4199,0.004496
92.891,73.4418,0.004496
93.002,73.4640,0.004496
93.110,73.4856,0.004449
93.218,73.5073,0.004449
93.328,73.5290,0.004411
93.436,73.5509,0.004411
93.546,73.5727,0.004411
93.655,73.5946,0.004411
93.765,73.6166,0.004411
93.874,73.6384,0.004373
93.982,73.6600,0.004373
94.092,73.6818,0.004326
94.201,73.7037,0.004326
94.309,73.7255,0.004326
94.417,73.7469,0.004326
94.526,73.7689,0.004298
94.635,73.7905,0.004298
94.743,73.8123,0.004298
94.851,73.8338,0.004251
94.961,73.8558,0.004251
95.069,73.8774,0.004204
95.179,73.8996,0.004204
95.290,73.9217,0.004204
95.398,73.9431,0.004166
95.507,73.9650,0.004166
95.615,73.9866,0.004166
95.725,74.0086,0.004166
95.835,74.0306,0.004100
95.943,74.0523,0.004100
96.052,74.0741,0.004025
96.161,74.0958,0.004025
96.270,74.1175,0.004006
96.378,74.1391,0.004006
96.488,74.1613,0.004006
96.597,74.1830,0.003959
96.708,74.2052,0.003959
96.818,74.2272,0.003949
96.927,74.2490,0.003949
97.037,74.2711,0.003902
97.147,74.2929,0.003902
97.258,74.3152,0.003902
97.367,74.3368,0.003846
97.476,74.3587,0.003846
97.586,74.3807,0.003817
97.697,74.4029,0.003817
97.806,74.4246,0.003732
97.916,74.4467,0.003732
98.027,74.4690,0.003685
98.137,74.4911,0.003685
98.250,74.5135,0.003685
98.359,74.5354,0.003638
98.471,74.5578,0.003638
98.580,74.5796,0.003601
98.690,74.6016,0.003601
98.800,74.6234,0.003638
98.910,74.6456,0.003638
99.019,74.6674,0.003582
99.129,74.6894,0.003582
99.239,74.7113,0.003582
99.348,74.7332,0.003516
99.459,74.7555,0.003516
99.569,74.7773,0.003478
99.678,74.7992,0.003478
99.787,74.8210,0.003299
99.897,74.8428,0.003299
100.006,74.8649,0.003299
100.116,74.8867,0.003195
100.223,74.9080,0.003195
100.331,74.9298,0.003148
100.441,74.9517,0.003148
100.550,74.9738,0.003092
100.658,74.9951,0.003092
100.768,75.0172,0.003092
100.877,75.0389,0.002941
100.987,75.0608,0.002941
101.096,75.0827,0.002705
101.204,75.1045,0.002705
101.314,75.1263,0.002526
101.423,75.1482,0.002526
101.532,75.1699,0.002262
101.642,75.1918,0.002262
101.750,75.2134,0.002262
101.858,75.2352,0.001951
101.968,75.2570,0.001951
102.077,75.2789,0.001574
102.186,75.3007,0.001574
102.294,75.3224,0.001122
102.404,75.3445,0.001122
102.514,75.3663,0.000481
102.624,75.3883,0.000481
102.732,75.4101,0.000481
102.840,75.4316,-0.000434
102.949,75.4535,-0.000434
103.058,75.4752,-0.001527
103.168,75.4972,-0.001527
103.276,75.5190,-0.001527
103.386,75.5408,-0.003044
103.496,75.5626,-0.003044
103.604,75.5843,-0.005061
103.713,75.6063,-0.005061
103.823,75.6281,-0.007503
103.932,75.6500,-0.007503
104.043,75.6722,-0.007503
104.150,75.6935,-0.010566
104.259,75.7153,-0.010566
104.369,75.7373,-0.014100
104.478,75.7592,-0.014100
104.587,75.7810,-0.017937
104.695,75.8025,-0.017937
104.804,75.8243,-0.022112
104.913,75.8462,-0.022112
105.022,75.8680,-0.022112
105.130,75.8894,-0.026589
105.238,75.9111,-0.026589
105.349,75.9332,-0.031226
105.458,75.9551,-0.031226
105.567,75.9769,-0.035939
105.677,75.9935,-0.035939
105.787,76.0009,-0.040228
105.895,76.0014,-0.040228
106.003,76.0014,-0.040228
106.113,76.0014,-0.041830
106.223,76.0014,-0.041830
106.333,76.0014,-0.040887
106.440,76.0014,-0.040887
106.550,76.0014,-0.039869
106.657,76.0014,-0.039869
106.769,76.0014,-0.039031
106.879,76.0014,-0.039031
106.989,76.0014,-0.039031
107.097,76.0014,-0.038286
107.207,76.0014,-0.038286
107.318,76.0014,-0.037692
107.427,76.0014,-0.037692
107.536,76.0014,-0.037146
107.645,76.0014,-0.037146
107.756,76.0014,-0.037146
107.865,76.0014,-0.036721
107.973,76.0014,-0.036721
108.082,76.0014,-0.036335
108.192,76.0014,-0.036335
108.301,76.0014,-0.035920
108.412,76.0014,-0.035920
108.519,76.0014,-0.035920
108.630,76.0014,-0.035543
108.738,76.0014,-0.035543
108.847,76.0014,-0.035223
108.957,76.0014,-0.035223
109.068,76.0014,-0.034912
109.176,76.0014,-0.034912
109.286,76.0014,-0.034591
109.395,76.0014,-0.034591
109.502,76.0014,-0.034591
109.611,76.0014,-0.034384
109.720,76.0014,-0.034384
109.829,76.0014,-0.034337
109.939,76.0014,-0.034337
110.050,76.0014,-0.034676
110.160,76.0014,-0.034676
110.271,76.0014,-0.035015
110.380,75.9991,-0.035015
110.488,75.9880,-0.035015
110.597,75.9686,-0.034308
110.707,75.9464,-0.034308
110.816,75.9247,-0.034308
110.927,75.9027,-0.027277
111.036,75.8808,-0.012969
111.143,75.8593,-0.012969
111.254,75.8372,-0.012969
111.361,75.8157,0.001687
111.470,75.7939,0.001687
111.578,75.7722,0.014421
111.687,75.7504,0.014421
111.797,75.7285,0.026533
111.903,75.7073,0.026533
112.014,75.6849,0.026533
112.123,75.6634,0.038917
112.233,75.6414,0.038917
112.342,75.6193,0.051962
112.453,75.5975,0.051962
112.561,75.5757,0.065601
112.672,75.5536,0.065601
112.782,75.5315,0.079843
112.891,75.5097,0.079843
113.000,75.4880,0.079843
113.110,75.4658,0.095234
113.219,75.4441,0.095234
113.328,75.4225,0.112153
113.434,75.4012,0.112153
113.544,75.3792,0.130495
113.654,75.3571,0.130495
113.764,75.3352,0.130495
113.871,75.3137,0.150401
113.982,75.2915,0.150401
114.090,75.2699,0.172230
114.199,75.2482,0.172230
114.307,75.2264,0.196463
114.416,75.2048,0.196463
114.527,75.1826,0.196463
114.635,75.1609,0.223344
114.744,75.1391,0.223344
114.854,75.1173,0.252902
114.964,75.0951,0.252902
115.072,75.0736,0.252902
115.180,75.0519,0.285872
115.289,75.0303,0.322782
115.399,75.0081,0.322782
115.508,74.9864,0.322782
115.617,74.9646,0.363821
115.725,74.9429,0.363821
115.834,74.9212,0.409553
115.943,74.8992,0.409553
116.051,74.8779,0.460412
116.159,74.8561,0.460412
116.268,74.8345,0.517172
116.377,74.8124,0.517172
116.486,74.7907,0.517172
116.594,74.7691,0.579907
116.703,74.7473,0.579907
116.814,74.7252,0.648732
116.923,74.7034,0.648732
117.032,74.6816,0.724974
117.141,74.6596,0.724974
117.250,74.6380,0.724974
117.359,74.6162,0.809265
117.468,74.5944,0.809265
117.578,74.5723,0.901766
117.687,74.5506,0.901766
117.796,74.5288,1.002354
117.904,74.5071,1.002354
118.014,74.4851,1.002354
118.125,74.4631,1.110812
118.232,74.4416,1.110812
118.342,74.4195,1.226763
118.452,74.3977,1.226763
118.560,74.3759,1.348539
118.669,74.3542,1.348539
118.779,74.3323,1.468902
118.889,74.3103,1.468902
118.996,74.2888,1.468902
119.104,74.2672,1.299631
119.211,74.2458,1.299631
119.320,74.2238,0.541329
119.430,74.2021,0.541329
119.540,74.1802,0.007814
119.649,74.1582,0.007814
119.758,74.1364,0.007814
119.867,74.1145,0.005193
119.977,74.0927,0.005193
120.084,74.0713,0.005269
120.194,74.0492,0.005269
120.303,74.0274,0.005193
120.413,74.0053,0.005193
120.521,73.9838,0.005146
120.631,73.9619,0.005146
120.740,73.9400,0.005146
120.851,73.9177,0.005109
120.962,73.8956,0.005109
121.070,73.8738,0.005109
121.180,73.8521,0.005099
121.288,73.8303,0.005061
121.398,73.8086,0.005061
121.507,73.7866,0.005061
121.616,73.7648,0.005014
121.727,73.7427,0.005014
121.836,73.7209,0.005024
121.944,73.6993,0.005024
122.052,73.6776,0.005014
122.162,73.6557,0.005014
122.272,73.6336,0.005014
122.379,73.6121,0.005024
122.489,73.5901,0.005024
122.598,73.5683,0.005080
122.707,73.5466,0.005080
122.816,73.5248,0.005061
122.924,73.5031,0.005061
123.033,73.4814,0.005061
123.140,73.4600,0.005024
123.249,73.4381,0.005024
123.358,73.4165,0.005033
123.466,73.3950,0.005033
123.574,73.3731,0.005033
123.685,73.3511,0.005052
123.796,73.3287,0.005109
123.906,73.3068,0.005109
124.013,73.2853,0.005109
124.121,73.2636,0.005118
124.230,73.2420,0.005118
124.340,73.2200,0.005099
124.451,73.1980,0.005099
124.558,73.1766,0.005156
124.666,73.1546,0.005156
124.776,73.1329,0.005146
124.885,73.1111,0.005146
124.994,73.0892,0.005146
125.103,73.0674,0.005052
125.211,73.0457,0.005052
125.321,73.0239,0.005061
125.431,73.0018,0.005061
125.540,72.9801,0.005099
125.650,72.9616,0.005099
125.759,72.9527,0.005099
125.866,72.9515,0.005024
125.975,72.9515,0.005024
126.084,72.9515,0.004995
126.194,72.9515,0.004995
126.303,72.9515,0.005033
126.412,72.9529,0.005033
126.521,72.9627,0.004977
126.631,72.9815,0.004977
126.739,73.0032,0.004977
126.848,73.0250,0.004854
126.958,73.0470,0.004854
127.066,73.0685,0.004769
127.175,73.0904,0.004769
127.283,73.1121,0.004732
127.393,73.1340,0.004732
127.503,73.1560,0.004732
127.612,73.1777,0.004647
127.719,73.1991,0.004647
127.827,73.2207,0.004647
127.936,73.2425,0.004647
128.046,73.2646,0.004675
128.155,73.2863,0.004675
128.262,73.3076,0.004675
128.372,73.3296,0.004628
128.481,73.3514,0.004628
128.591,73.3735,0.004637
128.701,73.3956,0.004637
128.808,73.4172,0.004609
128.918,73.4390,0.004609
129.028,73.4609,0.004562
129.136,73.4826,0.004562
129.244,73.5042,0.004562
129.353,73.5259,0.004552
129.462,73.5478,0.004552
129.571,73.5696,0.004421
129.681,73.5917,0.004421
129.788,73.6131,0.004336
129.898,73.6349,0.004336
130.007,73.6568,0.004336
130.115,73.6784,0.004364
130.225,73.7006,0.004364
130.334,73.7221,0.004336
130.444,73.7442,0.004336
130.552,73.7658,0.004336
130.660,73.7875,0.004317
130.769,73.8091,0.004317
130.876,73.8308,0.004326
130.985,73.8524,0.004326
131.094,73.8741,0.004232
131.204,73.8963,0.004232
131.314,73.9180,0.004128
131.421,73.9397,0.004128
131.530,73.9614,0.004128
131.637,73.9827,0.004128
131.746,74.0047,0.004128
131.857,74.0266,0.004128
131.965,74.0482,0.004128
132.073,74.0699,0.004072
132.183,74.0920,0.004072
132.292,74.1138,0.004034
132.402,74.1356,0.004034
132.510,74.1573,0.004034
132.619,74.1792,0.003996
132.728,74.2010,0.003996
132.836,74.2226,0.003959
132.946,74.2445,0.003959
133.056,74.2665,0.003940
133.165,74.2883,0.003940
133.274,74.3103,0.003874
133.382,74.3317,0.003874
133.491,74.3535,0.003874
133.600,74.3755,0.003808
133.708,74.3969,0.003808
133.815,74.4184,0.003808
133.923,74.4399,0.003798
134.031,74.4616,0.003751
134.141,74.4835,0.003751
134.251,74.5055,0.003751
134.361,74.5275,0.003676
134.470,74.5492,0.003676
134.578,74.5710,0.003619
134.687,74.5927,0.003619
134.796,74.6145,0.003535
134.903,74.6359,0.003535
135.015,74.6584,0.003516
135.123,74.6800,0.003516
135.233,74.7019,0.003516
135.342,74.7236,0.003497
135.449,74.7451,0.003497
135.559,74.7670,0.003497
135.667,74.7890,0.003384
135.776,74.8106,0.003308
135.885,74.8323,0.003308
135.994,74.8541,0.003308
136.104,74.8763,0.003195
136.213,74.8981,0.003195
136.323,74.9198,0.003073
136.432,74.9418,0.003073
136.540,74.9635,0.002931
136.650,74.9853,0.002931
136.759,75.0071,0.002931
136.868,75.0288,0.002799
136.976,75.0504,0.002799
137.083,75.0719,0.002601
137.193,75.0940,0.002601
137.301,75.1155,0.002356
137.412,75.1376,0.002356
137.521,75.1593,0.002102
137.630,75.1814,0.002102
137.739,75.2031,0.002102
137.848,75.2251,0.001678
137.958,75.2469,0.001678
138.066,75.2685,0.001216
138.175,75.2904,0.001216
138.282,75.3117,0.000575
138.392,75.3338,0.000575
138.501,75.3555,0.000575
138.611,75.3775,-0.000283
138.719,75.3992,-0.000283
138.828,75.4209,-0.001329
138.939,75.4431,-0.001329
139.049,75.4650,-0.001329
139.158,75.4869,-0.002733
139.267,75.5087,-0.002733
139.374,75.5300,-0.004600
139.483,75.5520,-0.004600
139.592,75.5737,-0.006937
139.702,75.5956,-0.006937
139.810,75.6173,-0.009934
139.920,75.6393,-0.009934
140.027,75.6606,-0.013450
140.137,75.6828,-0.013450
140.244,75.7042,-0.013450
140.354,75.7260,-0.017258
140.462,75.7478,-0.017258
140.572,75.7696,-0.021452
140.680,75.7913,-0.021452
140.790,75.8133,-0.025920
140.898,75.8349,-0.025920
141.007,75.8568,-0.025920
141.117,75.8787,-0.030472
141.225,75.9002,-0.030472
141.336,75.9223,-0.035251
141.446,75.9409,-0.035251
141.554,75.9501,-0.039879
141.663,75.9515,-0.039879
141.773,75.9515,-0.041849
141.881,75.9515,-0.041849
141.990,75.9515,-0.041849
142.099,75.9515,-0.041132
142.208,75.9515,-0.041132
142.317,75.9515,-0.040115
142.427,75.9515,-0.040115
142.537,75.9515,-0.039247
142.646,75.9515,-0.039247
142.754,75.9515,-0.039247
142.862,75.9515,-0.038578
142.971,75.9515,-0.038578
143.080,75.9515,-0.038050
143.191,75.9515,-0.038050
143.300,75.9515,-0.037438
143.409,75.9515,-0.037438
143.518,75.9515,-0.037438
143.626,75.9515,-0.036872
143.736,75.9515,-0.036872
143.846,75.9515,-0.036448
143.955,75.9515,-0.036448
144.064,75.9515,-0.036033
144.173,75.9515,-0.036033
144.281,75.9515,-0.035703
144.391,75.9515,-0.035703
144.501,75.9515,-0.035703
144.611,75.9515,-0.035364
144.720,75.9515,-0.035364
144.826,75.9515,-0.035091
144.936,75.9515,-0.035091
145.046,75.9515,-0.034836
145.158,75.9515,-0.034836
145.265,75.9515,-0.034836
145.375,75.9515,-0.034516
145.483,75.9515,-0.034516
145.593,75.9515,-0.034384
145.702,75.9515,-0.034384
145.812,75.9515,-0.034601
145.922,75.9515,-0.034601
146.031,75.9515,-0.034959
146.141,75.9513,-0.034959
146.250,75.9455,-0.034959
146.361,75.9301,-0.034855
146.470,75.9085,-0.034855
146.581,75.8866,-0.030095
146.688,75.8650,-0.030095
146.797,75.8432,-0.017512
146.908,75.8210,-0.017512
147.015,75.7997,-0.017512
147.125,75.7777,-0.002403
147.233,75.7559,-0.002403
147.343,75.7339,0.010820
147.453,75.7121,0.010820
147.563,75.6898,0.022998
147.675,75.6677,0.022998
147.784,75.6457,0.035251
147.896,75.6235,0.035251
148.005,75.6017,0.035251
148.115,75.5796,0.048070
148.224,75.5578,0.048070
148.332,75.5361,0.061510
148.441,75.5144,0.061510
148.549,75.4927,0.075535
148.659,75.4709,0.075535
148.768,75.4490,0.090465
148.875,75.4277,0.090465
148.984,75.4058,0.090465
149.093,75.3840,0.106799
149.202,75.3623,0.106799
149.311,75.3405,0.124613
149.420,75.3187,0.124613
149.529,75.2969,0.143982
149.637,75.2752,0.143982
149.747,75.2531,0.143982
149.856,75.2314,0.165114
149.967,75.2094,0.165114
150.077,75.1870,0.188621
150.187,75.1651,0.188621
150.298,75.1431,0.214730
150.408,75.1211,0.214730
150.517,75.0993,0.214730
150.626,75.0773,0.243364
150.734,75.0558,0.243364
150.843,75.0339,0.275184
150.952,75.0121,0.275184
151.061,74.9904,0.275184
151.172,74.9683,0.310916
151.279,74.9470,0.350747
151.388,74.9252,0.350747
151.497,74.9031,0.350747
151.605,74.8815,0.395037
151.713,74.8601,0.395037
151.822,74.8382,0.444247
151.933,74.8160,0.444247
152.042,74.7944,0.499009
152.149,74.7726,0.499009
152.257,74.7513,0.499009
152.367,74.7293,0.559520
152.477,74.7074,0.559520
152.585,74.6854,0.626271
152.695,74.6637,0.626271
152.804,74.6416,0.700750
152.913,74.6199,0.700750
153.024,74.5979,0.700750
153.131,74.5763,0.783147
153.240,74.5547,0.783147
153.349,74.5329,0.873509
153.458,74.5109,0.873509
153.566,74.4896,0.971778
153.675,74.4675,0.971778
153.785,74.4457,1.077493
153.894,74.4239,1.077493
154.004,74.4019,1.077493
154.113,74.3800,1.189514
154.223,74.3580,1.189514
154.332,74.3362,1.297237
154.442,74.3143,1.297237
154.552,74.2923,1.111142
154.662,74.2703,1.111142
154.772,74.2484,0.443673
154.881,74.2263,0.443673
154.990,74.2047,0.443673
155.101,74.1825,0.009341
155.210,74.1607,0.009341
155.319,74.1390,0.005636
155.429,74.1170,0.005636
155.538,74.0950,0.005259
155.649,74.0730,0.005259
155.759,74.0509,0.005259
155.870,74.0288,0.005175
155.977,74.0073,0.005175
156.084,73.9857,0.005127
156.194,73.9639,0.005127
156.303,73.9420,0.005043
156.412,73.9202,0.005043
156.523,73.8981,0.005043
156.630,73.8764,0.005043
156.741,73.8545,0.005043
156.850,73.8326,0.005061
156.959,73.8108,0.005061
157.069,73.7890,0.005014
157.176,73.7675,0.005014
157.283,73.7461,0.005014
157.392,73.7242,0.004967
157.502,73.7022,0.004967
157.612,73.6803,0.005014
157.720,73.6586,0.005014
157.829,73.6369,0.005080
157.938,73.6151,0.005080
158.047,73.5932,0.005043
158.156,73.5716,0.005043
158.266,73.5495,0.005043
158.375,73.5277,0.005061
158.485,73.5056,0.005061
158.594,73.4838,0.005061
158.703,73.4621,0.005061
158.812,73.4404,0.005033
158.919,73.4190,0.005033
159.029,73.3969,0.005033
159.138,73.3749,0.005061
159.247,73.3534,0.005061
159.355,73.3317,0.005071
159.464,73.3099,0.005071
159.575,73.2878,0.005109
159.685,73.2656,0.005109
159.795,73.2438,0.005080
159.905,73.2218,0.005080
160.013,73.1999,0.005080
160.122,73.1783,0.005071
160.233,73.1561,0.005071
160.339,73.1349,0.005043
160.447,73.1133,0.005043
160.555,73.0917,0.005014
160.664,73.0696,0.005014
160.776,73.0476,0.005014
160.883,73.0260,0.005118
160.992,73.0043,0.005118
161.102,72.9825,0.005118
161.212,72.9604,0.005118
161.321,72.9386,0.005071
161.430,72.9177,0.005071
161.541,72.9051,0.005052
161.648,72.9015,0.005052
161.757,72.9015,0.005052
161.867,72.9015,0.004977
161.975,72.9015,0.004977
162.084,72.9015,0.004882
162.192,72.9031,0.004882
162.303,72.9133,0.004835
162.412,72.9321,0.004835
162.520,72.9537,0.004845
162.630,72.9759,0.004845
162.740,72.9978,0.004845
162.849,73.0198,0.004779
162.959,73.0416,0.004779
163.067,73.0631,0.004713
163.174,73.0848,0.004713
163.285,73.1067,0.004694
163.395,73.1288,0.004694
163.504,73.1506,0.004694
163.612,73.1722,0.004666
163.720,73.1939,0.004666
163.830,73.2160,0.004637
163.938,73.2375,0.004637
164.048,73.2593,0.004618
164.158,73.2815,0.004618
164.267,73.3031,0.004618
164.376,73.3251,0.004543
164.486,73.3471,0.004543
164.593,73.3684,0.004486
164.702,73.3902,0.004486
164.812,73.4122,0.004458
164.921,73.4342,0.004458
165.030,73.4557,0.004421
165.137,73.4773,0.004421
165.246,73.4990,0.004421
165.355,73.5208,0.004421
165.464,73.5428,0.004421
165.573,73.5644,0.004392
165.683,73.5865,0.004392
165.793,73.6084,0.004307
165.901,73.6299,0.004307
166.010,73.6518,0.004307
166.118,73.6734,0.004260
166.228,73.6955,0.004260
166.337,73.7173,0.004270
166.447,73.7393,0.004270
166.558,73.7616,0.004270
166.665,73.7828,0.004270
166.774,73.8045,0.004260
166.882,73.8263,0.004260
166.993,73.8484,0.004260
167.101,73.8700,0.004213
167.210,73.8918,0.004213
167.321,73.9139,0.004147
167.430,73.9358,0.004147
167.538,73.9574,0.004109
167.647,73.9792,0.004109
167.755,74.0007,0.004109
167.864,74.0228,0.004091
167.974,74.0446,0.004091
168.082,74.0661,0.004062
168.193,74.0884,0.004062
168.302,74.1103,0.003987
168.411,74.1319,0.003987
168.520,74.1539,0.003987
168.631,74.1761,0.003930
168.740,74.1976,0.003930
168.848,74.2195,0.003874
168.955,74.2408,0.003874
169.065,74.2628,0.003846
169.173,74.2846,0.003846
169.283,74.3064,0.003883
169.393,74.3285,0.003883
169.502,74.3501,0.003883
169.611,74.3720,0.003855
169.720,74.3938,0.003855
169.831,74.4159,0.003770
169.942,74.4381,0.003770
170.051,74.4601,0.003648
170.158,74.4814,0.003648
170.266,74.5030,0.003648
170.374,74.5246,0.003610
170.483,74.5464,0.003610
170.593,74.5686,0.003544
170.703,74.5904,0.003544
170.814,74.6125,0.003478
170.922,74.6341,0.003478
171.031,74.6560,0.003478
171.140,74.6776,0.003459
171.251,74.6999,0.003459
171.358,74.7213,0.003384
171.468,74.7433,0.003384
171.576,74.7649,0.003346
171.686,74.7869,0.003346
171.796,74.8088,0.003233
171.906,74.8309,0.003233
172.014,74.8527,0.003233
172.122,74.8741,0.003101
172.232,74.8961,0.003101
172.341,74.9181,0.002950
172.452,74.9403,0.002950
172.561,74.9617,0.002790
172.668,74.9835,0.002790
172.777,75.0053,0.002611
172.886,75.0269,0.002611
172.996,75.0491,0.002611
173.104,75.0705,0.002375
173.213,75.0923,0.002375
173.321,75.1141,0.002102
173.432,75.1361,0.002102
173.539,75.1576,0.001734
173.649,75.1794,0.001734
173.758,75.2014,0.001734
173.867,75.2233,0.001272
173.979,75.2455,0.001272
174.088,75.2672,0.000669
174.197,75.2892,0.000669
174.305,75.3109,-0.000104
174.416,75.3328,-0.000104
174.526,75.3549,-0.000104
174.635,75.3767,-0.001093
174.744,75.3986,-0.001093
174.854,75.4206,-0.002469
174.966,75.4430,-0.002469
175.077,75.4652,-0.004317
175.187,75.4870,-0.004317
175.296,75.5089,-0.006626
175.406,75.5311,-0.006626
175.516,75.5528,-0.006626
175.625,75.5748,-0.009444
175.734,75.5966,-0.009444
175.842,75.6183,-0.012922
175.951,75.6400,-0.012922
176.060,75.6617,-0.016881
176.167,75.6833,-0.016881
176.277,75.7051,-0.021000
176.387,75.7272,-0.021000
176.496,75.7488,-0.021000
176.604,75.7705,-0.025401
176.715,75.7926,-0.025401
176.823,75.8143,-0.029992
176.934,75.8366,-0.029992
177.043,75.8583,-0.034733
177.151,75.8796,-0.034733
177.260,75.8950,-0.034733
177.368,75.9012,-0.039474
177.476,75.9015,-0.039474
177.586,75.9015,-0.041849
177.695,75.9015,-0.041849
177.805,75.9015,-0.041378
177.913,75.9015,-0.041378
178.022,75.9015,-0.040284
178.132,75.9015,-0.040284
178.241,75.9015,-0.040284
178.351,75.9015,-0.039351
178.459,75.9015,-0.039351
178.569,75.9015,-0.038625
178.678,75.9015,-0.038625
178.787,75.9015,-0.037956
178.896,75.9015,-0.037956
179.007,75.9015,-0.037956
179.116,75.9015,-0.037353
179.227,75.9015,-0.037353
179.337,75.9015,-0.036844
179.444,75.9015,-0.036844
179.553,75.9015,-0.036382
179.663,75.9015,-0.036382
179.774,75.9015,-0.036014
179.882,75.9015,-0.036014
179.990,75.9015,-0.036014
180.101,75.9015,-0.035694
180.209,75.9015,-0.035694
180.318,75.9015,-0.035336
180.429,75.9015,-0.035336
180.540,75.9015,-0.034997
180.650,75.9015,-0.034997
180.761,75.9015,-0.034997
180.872,75.9015,-0.034695
180.981,75.9015,-0.034695
181.091,75.9015,-0.034440
181.201,75.9015,-0.034440
181.311,75.9015,-0.034252
181.423,75.9015,-0.034252
181.532,75.9015,-0.034374
181.642,75.9015,-0.034374
181.751,75.9015,-0.034374
181.860,75.9015,-0.034770
181.969,75.9009,-0.034770
182.078,75.8930,-0.034959
182.187,75.8762,-0.034959
182.296,75.8543,-0.031848
182.404,75.8328,-0.031848
182.514,75.8109,-0.031848
182.624,75.7887,-0.020830
182.732,75.7673,-0.020830
182.842,75.7453,-0.005495
182.952,75.7233,-0.005495
183.062,75.7012,0.008181
183.171,75.6795,0.008181
183.278,75.6580,0.020387
183.387,75.6362,0.020387
183.497,75.6141,0.020387
183.607,75.5923,0.032574
183.717,75.5703,0.032574
183.827,75.5481,0.045336
183.935,75.5264,0.045336
184.044,75.5048,0.058692
184.155,75.4826,0.058692
184.266,75.4603,0.058692
184.374,75.4387,0.072594
184.483,75.4170,0.072594
184.592,75.3952,0.087279
184.700,75.3735,0.087279
184.809,75.3517,0.103208
184.919,75.3300,0.103208
185.027,75.3081,0.120551
185.137,75.2862,0.120551
185.247,75.2642,0.120551
185.356,75.2424,0.139609
185.466,75.2203,0.139609
185.575,75.1986,0.160496
185.683,75.1768,0.160496
185.793,75.1549,0.160496
185.901,75.1333,0.183494
186.010,75.1116,0.183494
186.119,75.0900,0.208961
186.228,75.0679,0.208961
186.336,75.0463,0.237087
186.446,75.0244,0.237087
186.555,75.0028,0.268219
186.664,74.9806,0.268219
186.775,74.9586,0.303064
186.883,74.9369,0.303064
186.994,74.9149,0.303064
187.103,74.8929,0.341935
187.213,74.8710,0.341935
187.324,74.8488,0.385056
187.432,74.8272,0.385056
187.542,74.8051,0.433135
187.652,74.7832,0.433135
187.760,74.7616,0.433135
187.870,74.7396,0.486747
187.981,74.7174,0.486747
188.089,74.6960,0.546598
188.198,74.6741,0.546598
188.305,74.6526,0.613349
188.414,74.6309,0.613349
188.522,74.6092,0.687461
188.631,74.5874,0.687461
188.740,74.5656,0.687461
188.848,74.5438,0.768868
188.957,74.5222,0.768868
189.067,74.5001,0.857947
189.177,74.4784,0.857947
189.285,74.4566,0.954821
189.395,74.4347,0.954821
189.504,74.4128,0.954821
189.614,74.3909,1.058623
189.724,74.3689,1.058623
189.832,74.3472,1.170390
189.941,74.3255,1.170390
190.051,74.3033,1.291035
190.159,74.2819,1.291035
190.267,74.2600,1.291035
190.377,74.2383,1.420050
190.487,74.2161,1.420050
190.596,74.1944,1.557029
190.704,74.1728,1.557029
190.813,74.1509,1.474745
190.923,74.1291,1.474745
191.033,74.1072,1.474745
191.142,74.0854,0.667969
191.251,74.0634,0.667969
191.361,74.0414,0.009491
191.471,74.0195,0.009491
191.579,73.9978,0.005156
191.689,73.9760,0.005156
191.797,73.9543,0.005203
191.905,73.9327,0.005203
192.015,73.9108,0.005203
192.123,73.8888,0.005203
192.233,73.8671,0.005203
192.342,73.8452,0.005165
192.451,73.8233,0.005165
192.560,73.8016,0.005175
192.668,73.7799,0.005175
192.777,73.7584,0.005184
192.885,73.7366,0.005184
192.995,73.7144,0.005184
193.104,73.6929,0.005165
193.213,73.6709,0.005165
193.322,73.6493,0.005090
193.431,73.6276,0.005090
193.540,73.6058,0.005090
193.649,73.5838,0.005090
193.760,73.5618,0.005090
193.868,73.5398,0.005071
193.976,73.5186,0.005071
194.086,73.4964,0.005071
194.196,73.4746,0.005071
194.304,73.4530,0.005099
194.413,73.4311,0.005099
194.522,73.4092,0.005099
194.630,73.3878,0.005071
194.738,73.3662,0.005071
194.846,73.3445,0.005109
194.957,73.3223,0.005109
195.065,73.3005,0.005137
195.174,73.2789,0.005137
195.283,73.2569,0.005137
195.392,73.2351,0.005137
195.500,73.2138,0.005137
195.609,73.1919,0.005137
195.718,73.1701,0.005137
195.827,73.1483,0.005137
195.935,73.1267,0.005118
196.045,73.1047,0.005156
196.153,73.0829,0.005156
196.263,73.0611,0.005156
196.372,73.0394,0.005184
196.480,73.0178,0.005184
196.590,72.9956,0.005156
196.698,72.9740,0.005156
196.807,72.9523,0.005203
196.916,72.9306,0.005203
197.025,72.9088,0.005203
197.134,72.8867,0.005241
197.242,72.8667,0.005241
197.352,72.8547,0.005156
197.460,72.8515,0.005156
197.569,72.8515,0.005014
197.678,72.8515,0.005014
197.787,72.8515,0.005024
197.896,72.8516,0.005024
198.005,72.8573,0.005024
198.114,72.8722,0.005014
198.223,72.8935,0.005014
198.332,72.9155,0.004845
198.441,72.9373,0.004845
198.549,72.9588,0.004788
198.658,72.9805,0.004788
198.767,73.0023,0.004788
198.876,73.0241,0.004760
198.987,73.0465,0.004760
199.097,73.0683,0.004741
199.205,73.0899,0.004741
199.314,73.1118,0.004722
199.424,73.1339,0.004722
199.533,73.1556,0.004656
199.641,73.1774,0.004656
199.750,73.1989,0.004656
199.858,73.2206,0.004618
199.967,73.2423,0.004618
200.078,73.2645,0.004562
200.186,73.2863,0.004562
200.296,73.3081,0.004534
200.403,73.3297,0.004534
200.512,73.3513,0.004534
200.620,73.3730,0.004552
200.730,73.3950,0.004552
200.838,73.4164,0.004534
200.946,73.4381,0.004534
201.055,73.4600,0.004496
201.164,73.4818,0.004496
201.272,73.5034,0.004496
201.382,73.5253,0.004449
201.489,73.5470,0.004449
201.598,73.5686,0.004430
201.708,73.5905,0.004430
201.818,73.6125,0.004364
201.927,73.6343,0.004364
202.035,73.6562,0.004298
202.144,73.6777,0.004298
202.253,73.6997,0.004298
202.364,73.7218,0.004289
202.475,73.7438,0.004289
202.583,73.7655,0.004260
202.691,73.7870,0.004260
202.800,73.8088,0.004241
202.909,73.8308,0.004241
203.018,73.8526,0.004241
203.128,73.8744,0.004175
203.236,73.8963,0.004175
203.346,73.9181,0.004128
203.454,73.9398,0.004128
203.565,73.9619,0.004147
203.676,73.9841,0.004147
203.787,74.0068,0.004147
203.894,74.0277,0.004138
204.004,74.0498,0.004138
204.113,74.0716,0.004043
204.223,74.0936,0.004043
204.331,74.1153,0.004015
204.439,74.1369,0.004015
204.548,74.1586,0.003968
204.659,74.1808,0.003968
204.769,74.2027,0.003968
204.877,74.2246,0.003912
204.985,74.2460,0.003912
205.095,74.2680,0.003930
205.205,74.2898,0.003930
205.315,74.3119,0.003836
205.422,74.3333,0.003836
205.531,74.3552,0.003836
205.639,74.3770,0.003723
205.750,74.3988,0.003723
205.858,74.4208,0.003723
205.968,74.4426,0.003723
206.078,74.4645,0.003714
206.189,74.4867,0.003714
206.299,74.5087,0.003676
206.410,74.5310,0.003676
206.519,74.5528,0.003676
206.629,74.5747,0.003582
206.738,74.5964,0.003582
206.848,74.6185,0.003497
206.957,74.6404,0.003497
207.067,74.6622,0.003421
207.176,74.6841,0.003421
207.286,74.7063,0.003337
207.394,74.7277,0.003337
207.502,74.7493,0.003337
207.611,74.7711,0.003252
207.720,74.7930,0.003252
207.829,74.8149,0.003120
207.937,74.8364,0.003120
208.046,74.8581,0.003016
208.156,74.8801,0.003016
208.266,74.9021,0.003016
208.375,74.9240,0.002837
208.486,74.9460,0.002837
208.593,74.9676,0.002592
208.703,74.9895,0.002592
208.811,75.0111,0.002592
208.920,75.0331,0.002385
209.029,75.0548,0.002140
209.139,75.0767,0.002140
209.247,75.0983,0.002140
209.355,75.1199,0.001763
209.464,75.1420,0.001763
209.574,75.1637,0.001282
209.682,75.1854,0.001282
209.791,75.2072,0.000707
209.902,75.2294,0.000707
210.011,75.2512,0.000707
210.120,75.2729,-0.000113
210.230,75.2951,-0.000113
210.340,75.3168,-0.001197
210.448,75.3384,-0.001197
210.559,75.3607,-0.002583
210.668,75.3826,-0.002583
210.776,75.4041,-0.004411
210.884,75.4258,-0.004411
210.992,75.4473,-0.004411
211.102,75.4693,-0.006711
211.212,75.4912,-0.006711
211.321,75.5130,-0.009557
211.430,75.5347,-0.009557
211.537,75.5563,-0.013035
211.646,75.5780,-0.013035
211.755,75.5999,-0.013035
211.866,75.6221,-0.016862
211.976,75.6440,-0.016862
212.086,75.6662,-0.020953
212.194,75.6878,-0.020953
212.303,75.7096,-0.025411
212.413,75.7314,-0.025411
212.522,75.7534,-0.029982
212.630,75.7748,-0.029982
212.740,75.7968,-0.029982
212.849,75.8188,-0.034676
212.958,75.8382,-0.034676
213.067,75.8491,-0.039436
213.176,75.8515,-0.039436
213.286,75.8515,-0.039436
213.397,75.8515,-0.041924
213.504,75.8515,-0.041924
