Elapsed Time (s),Position (mm),Force (N)
-0.016,64.3883,0.012129
0.016,64.3883,0.012129
0.047,64.3883,0.012129
0.078,64.3883,0.012054
0.109,64.3883,0.012054
0.140,64.3883,0.012054
0.171,64.3883,0.012054
0.202,64.3883,0.012054
0.233,64.3883,0.012054
0.265,64.3883,0.012054
0.296,64.3883,0.012054
0.327,64.3883,0.012054
0.357,64.3883,0.012063
0.389,64.3883,0.012063
0.418,64.3883,0.012063
0.450,64.3883,0.012063
0.482,64.3883,0.012063
0.513,64.3883,0.012063
0.544,64.3883,0.012063
0.576,64.3883,0.012045
0.607,64.3883,0.012045
0.638,64.3883,0.012045
0.669,64.3883,0.012045
0.699,64.3883,0.012045
0.730,64.3883,0.012045
0.760,64.3883,0.012045
0.792,64.3883,0.012045
0.824,64.3883,0.011998
0.854,64.3883,0.011998
0.884,64.3883,0.011998
0.915,64.3883,0.011998
0.946,64.3883,0.011998
0.977,64.3883,0.011998
1.008,64.3883,0.011998
1.039,64.3883,0.012007
1.071,64.3883,0.012007
1.101,64.3883,0.012007
1.133,64.3883,0.012007
1.165,64.3883,0.012007
1.196,64.3883,0.012007
1.228,64.3883,0.012007
1.259,64.3883,0.012007
1.290,64.3883,0.012054
1.320,64.3883,0.012054
1.351,64.3883,0.012054
1.382,64.3883,0.012054
1.412,64.3883,0.012054
1.442,64.3883,0.012054
1.473,64.3883,0.012054
1.504,64.3883,0.012054
1.535,64.3883,0.012054
1.566,64.3883,0.012054
1.599,64.3883,0.012054
1.630,64.3883,0.012054
1.661,64.3883,0.012054
1.692,64.3883,0.012054
1.724,64.3883,0.012054
1.755,64.3883,0.012054
1.786,64.3883,0.012054
1.817,64.3883,0.012035
1.848,64.3883,0.012035
1.879,64.3883,0.012035
1.912,64.3883,0.012035
1.942,64.3883,0.012035
1.973,64.3883,0.012035
2.005,64.3883,0.012035
2.035,64.3883,0.012035
2.065,64.3883,0.012035
2.096,64.3883,0.011998
2.128,64.3883,0.011998
2.159,64.3883,0.011998
2.190,64.3883,0.011998
2.222,64.3883,0.011998
2.254,64.3883,0.011998
2.285,64.3883,0.011998
2.316,64.3883,0.011998
2.348,64.3883,0.012026
2.379,64.3883,0.012026
2.410,64.3883,0.012026
2.441,64.3883,0.012026
2.471,64.3883,0.012026
2.502,64.3883,0.012026
2.534,64.3883,0.012026
2.565,64.3883,0.012026
2.597,64.3883,0.012092
2.627,64.3883,0.012092
2.659,64.3883,0.012092
2.690,64.3883,0.012092
2.720,64.3883,0.012092
2.751,64.3883,0.012092
2.782,64.3883,0.012092
2.813,64.3883,0.012063
2.845,64.3883,0.012063
2.877,64.3883,0.012063
2.908,64.3883,0.012063
2.940,64.3883,0.012063
2.972,64.3883,0.012063
3.003,64.3883,0.012063
3.034,64.3883,0.012063
3.065,64.3883,0.012016
3.096,64.3883,0.012016
3.126,64.3883,0.012016
3.157,64.3883,0.012016
3.188,64.3883,0.012016
3.219,64.3883,0.012016
3.250,64.3883,0.012016
3.281,64.3883,0.012016
3.313,64.3883,0.012045
3.344,64.3883,0.012045
3.375,64.3883,0.012045
3.406,64.3883,0.012045
3.438,64.3883,0.012045
3.469,64.3883,0.012045
3.500,64.3883,0.012045
3.531,64.3883,0.012045
3.563,64.3883,0.012045
3.593,64.3883,0.012045
3.624,64.3883,0.012045
3.654,64.3883,0.012045
3.686,64.3883,0.012045
3.716,64.3883,0.012045
3.747,64.3883,0.012045
3.779,64.3883,0.012045
3.809,64.3883,0.012026
3.841,64.3883,0.012026
3.873,64.3883,0.012026
3.905,64.3883,0.012026
3.936,64.3883,0.012026
3.968,64.3883,0.012026
3.998,64.3883,0.012026
4.031,64.3883,0.012007
4.062,64.3883,0.012007
4.093,64.3883,0.012007
4.126,64.3880,0.012007
4.156,64.3871,0.012007
4.188,64.3854,0.012007
4.220,64.3828,0.012007
4.250,64.3797,0.012007
4.280,64.3761,0.012007
4.311,64.3714,0.012007
4.342,64.3662,0.012073
4.373,64.3601,0.012073
4.404,64.3539,0.012073
4.436,64.3476,0.012073
4.467,64.3414,0.012073
4.499,64.3349,0.012073
4.531,64.3284,0.012073
4.561,64.3225,0.012073
4.592,64.3164,0.012110
4.623,64.3102,0.012110
4.654,64.3039,0.012110
4.685,64.2977,0.012110
4.716,64.2916,0.012110
4.746,64.2856,0.012110
4.777,64.2792,0.012110
4.808,64.2730,0.012035
4.839,64.2668,0.012035
4.871,64.2605,0.012035
4.902,64.2544,0.012035
4.933,64.2480,0.012035
4.964,64.2419,0.012035
4.995,64.2356,0.012035
5.027,64.2294,0.012035
5.058,64.2231,0.011988
5.090,64.2169,0.011988
5.120,64.2107,0.011988
5.150,64.2048,0.011988
5.181,64.1986,0.011988
5.211,64.1925,0.011988
5.242,64.1863,0.011988
5.273,64.1800,0.011988
5.303,64.1741,0.011988
5.334,64.1677,0.011988
5.366,64.1615,0.011988
5.396,64.1553,0.011988
5.427,64.1494,0.011988
5.459,64.1429,0.011988
5.489,64.1369,0.011988
5.521,64.1305,0.011988
5.552,64.1243,0.012016
5.583,64.1180,0.012016
5.614,64.1119,0.012016
5.646,64.1056,0.012016
5.676,64.0995,0.012016
5.707,64.0935,0.012016
5.738,64.0870,0.012016
5.769,64.0809,0.012016
5.800,64.0746,0.012035
5.833,64.0680,0.012035
5.861,64.0626,0.012035
5.892,64.0562,0.012035
5.923,64.0500,0.012035
5.953,64.0440,0.012035
5.984,64.0379,0.012035
6.015,64.0317,0.012035
6.046,64.0255,0.012016
6.077,64.0192,0.012016
6.108,64.0132,0.012016
6.139,64.0068,0.012016
6.171,64.0006,0.012016
6.203,63.9942,0.012016
6.234,63.9880,0.012016
6.265,63.9817,0.012016
6.296,63.9755,0.011998
6.328,63.9692,0.011998
6.359,63.9629,0.011998
6.391,63.9565,0.011998
6.421,63.9506,0.011998
6.452,63.9444,0.011998
6.483,63.9383,0.011998
6.515,63.9318,0.011998
6.546,63.9255,0.012016
6.577,63.9193,0.012016
6.608,63.9132,0.012016
6.638,63.9069,0.012016
6.670,63.9007,0.012016
6.702,63.8944,0.012016
6.732,63.8883,0.012016
6.763,63.8821,0.012016
6.794,63.8759,0.012016
6.824,63.8700,0.012016
6.855,63.8636,0.012016
6.886,63.8574,0.012016
6.918,63.8510,0.012016
6.949,63.8449,0.012016
6.980,63.8387,0.012016
7.010,63.8326,0.012016
7.041,63.8264,0.012016
7.072,63.8202,0.012016
7.104,63.8138,0.012016
7.136,63.8075,0.012016
7.168,63.8011,0.012016
7.198,63.7951,0.012016
7.230,63.7887,0.012016
7.261,63.7826,0.012016
7.293,63.7761,0.012035
7.323,63.7701,0.012035
7.354,63.7639,0.012035
7.383,63.7580,0.012035
7.414,63.7519,0.012035
7.446,63.7454,0.012035
7.477,63.7394,0.012035
7.509,63.7329,0.012035
7.539,63.7270,0.012035
7.571,63.7206,0.012054
7.602,63.7144,0.012054
7.634,63.7080,0.012054
7.665,63.7018,0.012054
7.695,63.6957,0.012054
7.726,63.6895,0.012054
7.758,63.6832,0.012054
7.788,63.6770,0.012054
7.819,63.6708,0.012063
7.850,63.6648,0.012063
7.881,63.6585,0.012063
7.912,63.6523,0.012063
7.943,63.6460,0.012063
7.974,63.6399,0.012063
8.005,63.6336,0.012063
8.036,63.6275,0.012063
8.067,63.6213,0.012063
8.099,63.6150,0.011998
8.129,63.6089,0.011998
8.160,63.6028,0.011998
8.192,63.5962,0.011998
8.223,63.5902,0.011998
8.254,63.5838,0.011998
8.285,63.5778,0.011998
8.316,63.5716,0.011979
8.346,63.5656,0.011979
8.377,63.5594,0.011979
8.408,63.5530,0.011979
8.439,63.5470,0.011979
8.470,63.5408,0.011979
8.502,63.5345,0.011979
8.531,63.5285,0.011979
8.562,63.5223,0.012016
8.593,63.5161,0.012016
8.624,63.5100,0.012016
8.655,63.5038,0.012016
8.686,63.4976,0.012016
8.716,63.4914,0.012016
8.747,63.4852,0.012016
8.779,63.4790,0.012016
8.810,63.4728,0.012026
8.842,63.4665,0.012026
8.872,63.4603,0.012026
8.903,63.4542,0.012026
8.934,63.4480,0.012026
8.964,63.4417,0.012026
8.996,63.4356,0.012026
9.026,63.4294,0.012054
9.058,63.4232,0.012054
9.089,63.4169,0.012054
9.118,63.4111,0.012054
9.149,63.4047,0.012054
9.181,63.3985,0.012054
9.212,63.3922,0.012054
9.243,63.3863,0.012054
9.274,63.3798,0.012054
9.305,63.3737,0.011998
9.337,63.3673,0.011998
9.367,63.3615,0.011998
9.398,63.3551,0.011998
9.430,63.3489,0.011998
9.461,63.3426,0.011998
9.491,63.3364,0.011998
9.522,63.3303,0.011988
9.553,63.3241,0.011988
9.584,63.3181,0.011988
9.614,63.3120,0.011988
9.646,63.3057,0.011988
9.676,63.2996,0.011988
9.708,63.2933,0.011988
9.738,63.2871,0.011988
9.770,63.2809,0.011988
9.800,63.2748,0.011988
9.831,63.2686,0.012035
9.863,63.2622,0.012035
9.893,63.2563,0.012035
9.925,63.2498,0.012035
9.956,63.2436,0.012035
9.986,63.2376,0.012035
10.017,63.2314,0.012035
10.048,63.2252,0.012007
10.079,63.2190,0.012007
10.111,63.2126,0.012007
10.142,63.2064,0.012007
10.173,63.2001,0.012007
10.204,63.1939,0.012007
10.235,63.1877,0.012007
10.267,63.1814,0.012007
10.297,63.1754,0.012026
10.328,63.1691,0.012026
10.360,63.1628,0.012026
10.391,63.1566,0.012026
10.422,63.1504,0.012026
10.455,63.1438,0.012026
10.484,63.1380,0.012026
10.515,63.1318,0.012026
10.546,63.1256,0.012054
10.577,63.1194,0.012054
10.609,63.1129,0.012054
10.640,63.1068,0.012054
10.671,63.1006,0.012054
10.702,63.0944,0.012054
10.733,63.0881,0.012054
10.764,63.0818,0.012054
10.796,63.0757,0.012054
10.827,63.0694,0.012063
10.858,63.0633,0.012063
10.888,63.0572,0.012063
10.919,63.0510,0.012063
10.950,63.0446,0.012063
10.982,63.0385,0.012063
11.013,63.0322,0.012063
11.044,63.0260,0.012054
11.075,63.0199,0.012054
11.106,63.0136,0.012054
11.137,63.0074,0.012054
11.168,63.0011,0.012054
11.200,62.9949,0.012054
11.230,62.9888,0.012054
11.261,62.9827,0.012054
11.292,62.9764,0.012054
11.324,62.9699,0.012063
11.355,62.9638,0.012063
11.386,62.9575,0.012063
11.417,62.9514,0.012063
11.448,62.9452,0.012063
11.479,62.9389,0.012063
11.511,62.9327,0.012063
11.542,62.9264,0.012073
11.573,62.9202,0.012073
11.604,62.9140,0.012073
11.635,62.9078,0.012073
11.665,62.9018,0.012073
11.696,62.8955,0.012073
11.728,62.8893,0.012073
11.759,62.8830,0.012073
11.790,62.8767,0.012073
11.821,62.8706,0.012073
11.852,62.8645,0.012073
11.882,62.8582,0.012073
11.914,62.8520,0.012073
11.944,62.8460,0.012073
11.976,62.8395,0.012073
12.006,62.8335,0.012073
12.037,62.8273,0.012073
12.068,62.8211,0.012073
12.100,62.8149,0.012045
12.130,62.8087,0.012045
12.161,62.8026,0.012045
12.192,62.7964,0.012045
12.223,62.7901,0.012045
12.254,62.7839,0.012045
12.285,62.7778,0.012045
12.317,62.7714,0.012045
12.347,62.7653,0.012007
12.377,62.7595,0.012007
12.408,62.7533,0.012007
12.439,62.7471,0.012007
12.470,62.7409,0.012007
12.501,62.7345,0.012007
12.532,62.7283,0.012007
12.565,62.7219,0.012045
12.596,62.7156,0.012045
12.627,62.7094,0.012045
12.658,62.7033,0.012045
12.689,62.6971,0.012045
12.719,62.6910,0.012045
12.751,62.6845,0.012045
12.782,62.6785,0.012045
12.813,62.6721,0.012045
12.844,62.6658,0.012063
12.875,62.6599,0.012063
12.906,62.6537,0.012063
12.937,62.6475,0.012063
12.967,62.6413,0.012063
12.999,62.6349,0.012063
13.029,62.6289,0.012063
13.060,62.6227,0.012035
13.091,62.6165,0.012035
13.121,62.6106,0.012035
13.153,62.6043,0.012035
13.183,62.5983,0.012035
13.214,62.5919,0.012035
13.245,62.5858,0.012035
13.275,62.5796,0.012035
13.306,62.5735,0.012035
13.337,62.5675,0.012035
13.368,62.5613,0.012035
13.400,62.5548,0.012035
13.430,62.5489,0.012035
13.461,62.5425,0.012035
13.492,62.5362,0.012035
13.523,62.5301,0.012035
13.554,62.5241,0.012035
13.585,62.5179,0.012007
13.616,62.5117,0.012007
13.647,62.5055,0.012007
13.677,62.4995,0.012007
13.707,62.4933,0.012007
13.738,62.4871,0.012007
13.769,62.4810,0.012007
13.801,62.4747,0.012026
13.831,62.4685,0.012026
13.863,62.4623,0.012026
13.894,62.4558,0.012026
13.926,62.4496,0.012026
13.957,62.4433,0.012026
13.987,62.4374,0.012026
14.018,62.4310,0.012026
14.049,62.4250,0.012026
14.080,62.4188,0.011941
14.111,62.4126,0.011941
14.142,62.4062,0.011941
14.173,62.4003,0.011941
14.204,62.3940,0.011941
14.235,62.3878,0.011941
14.266,62.3817,0.011941
14.297,62.3755,0.011913
14.329,62.3690,0.011913
14.360,62.3627,0.011913
14.390,62.3568,0.011913
14.421,62.3506,0.011913
14.453,62.3442,0.011913
14.483,62.3381,0.011913
14.515,62.3318,0.011913
14.545,62.3257,0.011979
14.576,62.3195,0.011979
14.607,62.3133,0.011979
14.639,62.3070,0.011979
14.669,62.3011,0.011979
14.699,62.2950,0.011979
14.730,62.2888,0.011979
14.761,62.2825,0.011979
14.793,62.2761,0.011979
14.824,62.2701,0.011979
14.856,62.2637,0.011979
14.886,62.2574,0.011979
14.918,62.2512,0.011979
14.949,62.2450,0.011979
14.979,62.2389,0.011979
15.011,62.2326,0.011979
15.042,62.2262,0.012016
15.073,62.2201,0.012016
15.105,62.2139,0.012016
15.135,62.2078,0.012016
15.166,62.2016,0.012016
15.198,62.1953,0.012016
15.227,62.1893,0.012016
15.259,62.1831,0.012016
15.289,62.1770,0.012063
15.320,62.1708,0.012063
15.351,62.1645,0.012063
15.382,62.1582,0.012063
15.414,62.1521,0.012063
15.445,62.1458,0.012063
15.476,62.1396,0.012063
15.507,62.1333,0.012063
15.538,62.1272,0.012035
15.569,62.1210,0.012035
15.601,62.1147,0.012035
15.632,62.1083,0.012035
15.664,62.1021,0.012035
15.694,62.0959,0.012035
15.725,62.0895,0.012035
15.756,62.0835,0.012035
15.787,62.0773,0.012035
15.818,62.0711,0.012035
15.849,62.0650,0.012007
15.880,62.0588,0.012007
15.910,62.0526,0.012007
15.941,62.0464,0.012007
15.972,62.0404,0.012007
16.003,62.0342,0.012007
16.035,62.0278,0.012007
16.066,62.0218,0.011979
16.097,62.0154,0.011979
16.128,62.0094,0.011979
16.159,62.0029,0.011979
16.190,61.9968,0.011979
16.221,61.9906,0.011979
16.252,61.9842,0.011979
16.284,61.9780,0.011979
16.314,61.9719,0.011979
16.346,61.9656,0.011979
16.377,61.9595,0.011979
16.408,61.9532,0.011979
16.439,61.9471,0.011979
16.470,61.9408,0.011979
16.501,61.9347,0.011979
16.532,61.9285,0.011979
16.563,61.9222,0.012045
16.594,61.9160,0.012045
16.625,61.9098,0.012045
16.655,61.9037,0.012045
16.686,61.8977,0.012045
16.717,61.8914,0.012045
16.748,61.8852,0.012045
16.779,61.8791,0.012045
16.810,61.8729,0.012045
16.842,61.8665,0.012035
16.872,61.8604,0.012035
16.903,61.8542,0.012035
16.934,61.8480,0.012035
16.966,61.8416,0.012035
16.997,61.8354,0.012035
17.028,61.8293,0.012035
17.059,61.8230,0.011969
17.090,61.8168,0.011969
17.121,61.8106,0.011969
17.152,61.8044,0.011969
17.183,61.7983,0.011969
17.214,61.7921,0.011969
17.245,61.7859,0.011969
17.276,61.7797,0.011969
17.307,61.7733,0.011998
17.338,61.7671,0.011998
17.369,61.7609,0.011998
17.401,61.7546,0.011998
17.431,61.7485,0.011998
17.462,61.7423,0.011998
17.493,61.7363,0.011998
17.524,61.7301,0.011998
17.555,61.7237,0.012054
17.586,61.7177,0.012054
17.617,61.7113,0.012054
17.649,61.7051,0.012054
17.680,61.6988,0.012054
17.711,61.6925,0.012054
17.742,61.6864,0.012054
17.773,61.6803,0.012054
17.805,61.6739,0.012026
17.836,61.6676,0.012026
17.867,61.6612,0.012026
17.898,61.6553,0.012026
17.929,61.6487,0.012026
17.960,61.6427,0.012026
17.991,61.6367,0.012026
18.022,61.6303,0.012026
18.053,61.6243,0.011988
18.085,61.6179,0.011988
18.115,61.6117,0.011988
18.147,61.6054,0.011988
18.179,61.5991,0.011988
18.210,61.5928,0.011988
18.241,61.5867,0.011988
18.272,61.5804,0.011988
18.304,61.5739,0.012016
18.334,61.5680,0.012016
18.365,61.5618,0.012016
18.396,61.5556,0.012016
18.428,61.5494,0.012016
18.458,61.5432,0.012016
18.489,61.5370,0.012016
18.520,61.5308,0.012016
18.551,61.5247,0.012016
18.582,61.5185,0.012026
18.614,61.5119,0.012026
18.644,61.5060,0.012026
18.675,61.4999,0.012026
18.706,61.4937,0.012026
18.737,61.4873,0.012026
18.769,61.4810,0.012026
18.801,61.4747,0.012045
18.831,61.4686,0.012045
18.863,61.4622,0.012045
18.893,61.4561,0.012045
18.924,61.4500,0.012045
18.955,61.4438,0.012045
18.986,61.4377,0.012045
19.017,61.4314,0.012045
19.048,61.4251,0.012045
19.079,61.4190,0.012063
19.111,61.4127,0.012063
19.141,61.4067,0.012063
19.171,61.4004,0.012063
19.202,61.3945,0.012063
19.234,61.3879,0.012063
19.265,61.3819,0.012063
19.296,61.3755,0.012063
19.327,61.3694,0.012016
19.359,61.3630,0.012016
19.389,61.3576,0.012016
19.420,61.3528,0.012016
19.451,61.3486,0.012016
19.482,61.3450,0.012016
19.512,61.3422,0.012016
19.544,61.3403,0.012016
19.574,61.3389,0.012016
19.606,61.3383,0.011988
19.637,61.3383,0.011988
19.668,61.3383,0.011988
19.699,61.3383,0.011988
19.730,61.3383,0.011988
19.761,61.3383,0.011988
19.793,61.3383,0.011988
19.823,61.3383,0.011988
19.854,61.3383,0.011988
19.885,61.3383,0.011988
19.917,61.3383,0.011988
19.948,61.3383,0.011988
19.979,61.3383,0.011988
20.010,61.3383,0.011988
20.041,61.3383,0.011988
20.072,61.3383,0.011951
20.103,61.3383,0.011951
20.134,61.3383,0.011951
20.166,61.3385,0.011951
20.197,61.3394,0.011951
20.228,61.3410,0.011951
20.259,61.3434,0.011951
20.289,61.3465,0.011951
20.321,61.3502,0.011951
20.352,61.3548,0.011951
20.383,61.3600,0.011951
20.414,61.3662,0.011951
20.445,61.3723,0.011951
20.477,61.3787,0.011951
20.509,61.3850,0.011951
20.540,61.3912,0.011998
20.571,61.3974,0.011998
20.602,61.4036,0.011998
20.633,61.4098,0.011998
20.664,61.4160,0.011998
20.695,61.4222,0.011998
20.726,61.4284,0.011998
20.758,61.4349,0.011998
20.789,61.4410,0.012007
20.820,61.4473,0.012007
20.851,61.4534,0.012007
20.883,61.4599,0.012007
20.914,61.4660,0.012007
20.947,61.4726,0.012007
20.978,61.4788,0.012007
21.008,61.4850,0.012007
21.040,61.4912,0.011998
21.071,61.4975,0.011998
21.103,61.5037,0.011998
21.133,61.5098,0.011998
21.164,61.5161,0.011998
21.194,61.5221,0.011998
21.225,61.5283,0.011998
21.257,61.5346,0.011998
21.288,61.5408,0.011998
21.319,61.5470,0.011998
21.350,61.5531,0.011998
21.380,61.5593,0.011998
21.410,61.5652,0.011998
21.441,61.5716,0.011998
21.472,61.5775,0.011998
21.504,61.5841,0.011998
21.535,61.5902,0.011998
21.566,61.5964,0.012026
21.597,61.6027,0.012026
21.628,61.6089,0.012026
21.659,61.6151,0.012026
21.689,61.6212,0.012026
21.721,61.6274,0.012026
21.752,61.6336,0.012026
21.783,61.6398,0.012026
21.813,61.6460,0.012026
21.844,61.6521,0.012063
21.875,61.6583,0.012063
21.907,61.6645,0.012063
21.939,61.6712,0.012063
21.969,61.6770,0.012063
22.001,61.6836,0.012063
22.032,61.6896,0.012063
22.063,61.6958,0.012035
22.094,61.7020,0.012035
22.125,61.7084,0.012035
22.156,61.7144,0.012035
22.187,61.7205,0.012035
22.218,61.7268,0.012035
22.249,61.7330,0.012035
22.281,61.7395,0.011988
22.311,61.7454,0.011988
22.342,61.7518,0.011988
22.375,61.7582,0.011988
22.405,61.7643,0.011988
22.436,61.7704,0.011988
22.468,61.7769,0.011988
22.498,61.7828,0.011988
22.530,61.7893,0.011988
22.562,61.7957,0.011988
22.591,61.8015,0.011988
22.622,61.8075,0.011988
22.652,61.8137,0.011988
22.684,61.8199,0.011988
22.715,61.8262,0.011988
22.746,61.8324,0.011988
22.777,61.8386,0.011998
22.808,61.8447,0.011998
22.839,61.8510,0.011998
22.869,61.8571,0.011998
22.901,61.8634,0.011998
22.932,61.8696,0.011998
22.963,61.8759,0.011998
22.995,61.8822,0.011998
23.026,61.8884,0.011998
23.057,61.8945,0.011988
23.087,61.9007,0.011988
23.119,61.9069,0.011988
23.150,61.9132,0.011988
23.182,61.9194,0.011988
23.212,61.9258,0.011988
23.243,61.9318,0.011988
23.275,61.9382,0.011988
23.306,61.9444,0.012007
23.337,61.9506,0.012007
23.367,61.9568,0.012007
23.397,61.9627,0.012007
23.428,61.9689,0.012007
23.459,61.9751,0.012007
23.490,61.9815,0.012007
23.521,61.9874,0.012007
23.552,61.9936,0.012016
23.586,62.0003,0.012016
23.616,62.0063,0.012016
23.646,62.0125,0.012016
23.678,62.0188,0.012016
23.709,62.0250,0.012016
23.739,62.0309,0.012016
23.770,62.0371,0.012016
23.801,62.0436,0.012016
23.832,62.0498,0.012026
23.864,62.0561,0.012026
23.895,62.0621,0.012026
23.925,62.0683,0.012026
23.956,62.0745,0.012026
23.987,62.0807,0.012026
24.018,62.0869,0.012026
24.049,62.0931,0.012026
24.081,62.0994,0.012035
24.110,62.1051,0.012035
24.142,62.1117,0.012035
24.172,62.1176,0.012035
24.202,62.1237,0.012035
24.233,62.1299,0.012035
24.265,62.1361,0.012035
24.296,62.1423,0.011988
24.327,62.1486,0.011988
24.358,62.1547,0.011988
24.389,62.1612,0.011988
24.421,62.1672,0.011988
24.452,62.1737,0.011988
24.483,62.1798,0.011988
24.514,62.1861,0.011988
24.545,62.1922,0.011988
24.576,62.1984,0.012035
24.606,62.2043,0.012035
24.639,62.2110,0.012035
24.669,62.2170,0.012035
24.701,62.2234,0.012035
24.732,62.2296,0.012035
24.764,62.2360,0.012035
24.795,62.2423,0.012007
24.825,62.2482,0.012007
24.855,62.2543,0.012007
24.888,62.2608,0.012007
24.917,62.2666,0.012007
24.948,62.2728,0.012007
24.978,62.2789,0.012007
25.009,62.2851,0.012007
25.041,62.2914,0.012007
25.072,62.2976,0.012007
25.102,62.3037,0.011979
25.134,62.3099,0.011979
25.165,62.3161,0.011979
25.196,62.3223,0.011979
25.228,62.3287,0.011979
25.258,62.3348,0.011979
25.289,62.3409,0.011979
25.320,62.3471,0.012026
25.351,62.3534,0.012026
25.381,62.3595,0.012026
25.412,62.3658,0.012026
25.444,62.3720,0.012026
25.475,62.3783,0.012026
25.507,62.3847,0.012026
25.538,62.3909,0.012026
25.569,62.3971,0.012026
25.600,62.4033,0.012007
25.631,62.4093,0.012007
25.662,62.4155,0.012007
25.692,62.4216,0.012007
25.724,62.4281,0.012007
25.756,62.4343,0.012007
25.787,62.4407,0.012007
25.818,62.4469,0.012045
25.851,62.4535,0.012045
25.880,62.4593,0.012045
25.911,62.4654,0.012045
25.942,62.4716,0.012045
25.973,62.4777,0.012045
26.004,62.4840,0.012045
26.035,62.4901,0.012045
26.066,62.4965,0.012092
26.097,62.5027,0.012092
26.128,62.5088,0.012092
26.160,62.5150,0.012092
26.191,62.5215,0.012092
26.221,62.5274,0.012092
26.253,62.5340,0.012092
26.284,62.5399,0.012092
26.314,62.5461,0.012092
26.347,62.5525,0.012092
26.377,62.5588,0.012092
26.408,62.5647,0.012092
26.439,62.5711,0.012092
26.470,62.5771,0.012092
26.501,62.5835,0.012092
26.532,62.5898,0.012092
26.564,62.5960,0.012026
26.597,62.6026,0.012026
26.626,62.6085,0.012026
26.657,62.6146,0.012026
26.688,62.6207,0.012026
26.719,62.6269,0.012026
26.750,62.6331,0.012026
26.781,62.6394,0.012026
26.812,62.6456,0.012026
26.843,62.6518,0.011979
26.874,62.6581,0.011979
26.905,62.6643,0.011979
26.936,62.6704,0.011979
26.967,62.6765,0.011979
26.998,62.6828,0.011979
27.029,62.6889,0.011979
27.060,62.6952,0.012016
27.091,62.7014,0.012016
27.122,62.7075,0.012016
27.153,62.7139,0.012016
27.185,62.7201,0.012016
27.217,62.7267,0.012016
27.248,62.7327,0.012016
27.278,62.7390,0.012016
27.310,62.7451,0.011998
27.341,62.7514,0.011998
27.372,62.7577,0.011998
27.401,62.7635,0.011998
27.432,62.7696,0.011998
27.463,62.7758,0.011998
27.494,62.7819,0.011998
27.524,62.7881,0.011998
27.555,62.7942,0.011998
27.586,62.8004,0.011998
27.618,62.8068,0.011998
27.648,62.8127,0.011998
27.678,62.8187,0.011998
27.709,62.8251,0.011998
27.740,62.8313,0.011998
27.770,62.8373,0.011998
27.802,62.8437,0.011998
27.834,62.8500,0.011988
27.866,62.8563,0.011988
27.896,62.8624,0.011988
27.928,62.8687,0.011988
27.958,62.8748,0.011988
27.989,62.8810,0.011988
28.020,62.8872,0.011988
28.051,62.8933,0.011988
28.082,62.8995,0.012026
28.112,62.9057,0.012026
28.144,62.9120,0.012026
28.174,62.9180,0.012026
28.205,62.9242,0.012026
28.236,62.9304,0.012026
28.267,62.9367,0.012026
28.298,62.9426,0.012026
28.330,62.9491,0.012063
28.361,62.9553,0.012063
28.391,62.9615,0.012063
28.422,62.9677,0.012063
28.453,62.9739,0.012063
28.484,62.9798,0.012063
28.514,62.9860,0.012063
28.545,62.9922,0.012054
28.576,62.9984,0.012054
28.606,63.0045,0.012054
28.637,63.0107,0.012054
28.668,63.0168,0.012054
28.699,63.0231,0.012054
28.730,63.0291,0.012054
28.762,63.0357,0.012054
28.792,63.0416,0.012045
28.824,63.0479,0.012045
28.856,63.0544,0.012045
28.885,63.0603,0.012045
28.917,63.0664,0.012045
28.948,63.0729,0.012045
28.980,63.0792,0.012045
29.012,63.0856,0.012045
29.043,63.0918,0.012026
29.076,63.0983,0.012026
29.106,63.1042,0.012026
29.137,63.1107,0.012026
29.169,63.1169,0.012026
29.200,63.1232,0.012026
29.232,63.1294,0.012026
29.263,63.1357,0.012026
29.294,63.1419,0.012016
29.324,63.1480,0.012016
29.355,63.1543,0.012016
29.386,63.1605,0.012016
29.418,63.1669,0.012016
29.449,63.1730,0.012016
29.479,63.1789,0.012016
29.511,63.1854,0.012016
29.542,63.1916,0.011998
29.573,63.1978,0.011998
29.605,63.2041,0.011998
29.636,63.2104,0.011998
29.667,63.2165,0.011998
29.697,63.2227,0.011998
29.729,63.2289,0.011998
29.759,63.2350,0.011998
29.791,63.2414,0.011969
29.822,63.2476,0.011969
29.853,63.2539,0.011969
29.885,63.2601,0.011969
29.916,63.2665,0.011969
29.947,63.2727,0.011969
29.976,63.2785,0.011969
30.007,63.2846,0.011969
30.039,63.2910,0.011969
30.070,63.2972,0.011969
30.101,63.3035,0.011969
30.133,63.3097,0.011969
30.165,63.3163,0.011969
30.196,63.3225,0.011969
30.228,63.3287,0.011969
30.259,63.3350,0.011969
30.290,63.3411,0.011969
30.321,63.3475,0.011969
30.352,63.3535,0.011969
30.382,63.3596,0.011969
30.413,63.3657,0.011969
30.445,63.3720,0.011969
30.475,63.3781,0.011969
30.506,63.3844,0.011969
30.538,63.3907,0.011969
30.569,63.3969,0.011969
30.600,63.4030,0.012007
30.630,63.4092,0.012007
30.660,63.4152,0.012007
30.691,63.4215,0.012007
30.723,63.4278,0.012007
30.754,63.4340,0.012007
30.786,63.4405,0.012007
30.816,63.4464,0.012007
30.847,63.4525,0.012035
30.878,63.4588,0.012035
30.909,63.4649,0.012035
30.941,63.4712,0.012035
30.971,63.4773,0.012035
31.002,63.4836,0.012035
31.032,63.4897,0.012035
31.064,63.4962,0.012035
31.095,63.5021,0.012026
31.126,63.5086,0.012026
31.158,63.5148,0.012026
31.190,63.5212,0.012026
31.222,63.5275,0.012026
31.253,63.5339,0.012026
31.284,63.5401,0.012026
31.315,63.5464,0.012007
31.346,63.5525,0.012007
31.377,63.5585,0.012007
31.408,63.5647,0.012007
31.438,63.5708,0.012007
31.469,63.5771,0.012007
31.501,63.5832,0.012007
31.532,63.5894,0.012007
31.563,63.5957,0.012007
31.595,63.6021,0.012007
31.626,63.6084,0.012007
31.657,63.6146,0.012007
31.688,63.6208,0.012007
31.719,63.6270,0.012007
31.750,63.6332,0.012007
31.781,63.6393,0.012007
31.813,63.6457,0.012007
31.845,63.6521,0.012007
31.876,63.6583,0.012007
31.906,63.6645,0.012007
31.937,63.6707,0.012007
31.968,63.6767,0.012007
31.999,63.6829,0.012007
32.030,63.6893,0.012007
32.061,63.6953,0.012026
32.093,63.7018,0.012026
32.124,63.7081,0.012026
32.155,63.7143,0.012026
32.187,63.7205,0.012026
32.217,63.7266,0.012026
32.248,63.7328,0.012026
32.280,63.7391,0.012026
32.311,63.7452,0.012035
32.342,63.7515,0.012035
32.373,63.7577,0.012035
32.403,63.7637,0.012035
32.434,63.7699,0.012035
32.464,63.7760,0.012035
32.494,63.7822,0.012035
32.525,63.7882,0.012035
32.556,63.7943,0.011998
32.587,63.8005,0.011998
32.618,63.8067,0.011998
32.649,63.8129,0.011998
32.679,63.8189,0.011998
32.710,63.8251,0.011998
32.741,63.8314,0.011998
32.772,63.8375,0.011998
32.803,63.8437,0.011998
32.834,63.8499,0.011998
32.866,63.8562,0.011998
32.897,63.8625,0.011998
32.928,63.8687,0.011998
32.959,63.8750,0.011998
32.990,63.8811,0.011998
33.022,63.8876,0.011998
33.052,63.8935,0.012016
33.084,63.8999,0.012016
33.115,63.9063,0.012016
33.146,63.9124,0.012016
33.178,63.9186,0.012016
33.209,63.9249,0.012016
33.240,63.9314,0.012016
33.272,63.9376,0.012016
33.302,63.9435,0.012016
33.333,63.9497,0.012016
33.364,63.9560,0.012016
33.396,63.9622,0.012016
33.426,63.9683,0.012016
33.457,63.9746,0.012016
33.488,63.9810,0.012016
33.518,63.9868,0.012016
33.549,63.9929,0.012045
33.580,63.9989,0.012045
33.611,64.0051,0.012045
33.642,64.0115,0.012045
33.674,64.0179,0.012045
33.704,64.0239,0.012045
33.735,64.0302,0.012045
33.766,64.0363,0.012045
33.797,64.0425,0.012045
33.828,64.0487,0.012045
33.859,64.0549,0.012026
33.890,64.0610,0.012026
33.922,64.0675,0.012026
33.952,64.0735,0.012026
33.982,64.0796,0.012026
34.014,64.0859,0.012026
34.045,64.0921,0.012026
34.076,64.0984,0.011998
34.107,64.1045,0.011998
34.138,64.1108,0.011998
34.169,64.1170,0.011998
34.200,64.1232,0.011998
34.230,64.1293,0.011998
34.261,64.1352,0.011998
34.292,64.1417,0.011998
34.323,64.1478,0.011998
34.355,64.1541,0.012007
34.385,64.1601,0.012007
34.416,64.1664,0.012007
34.447,64.1726,0.012007
34.478,64.1788,0.012007
34.508,64.1847,0.012007
34.540,64.1911,0.012007
34.571,64.1973,0.012035
34.602,64.2035,0.012035
34.634,64.2098,0.012035
34.666,64.2162,0.012035
34.697,64.2226,0.012035
34.729,64.2290,0.012035
34.760,64.2351,0.012035
34.791,64.2414,0.012035
34.822,64.2475,0.012035
34.853,64.2538,0.012035
34.884,64.2599,0.012035
34.915,64.2662,0.012035
34.947,64.2724,0.012035
34.978,64.2790,0.012035
35.010,64.2851,0.012035
35.041,64.2914,0.012035
35.071,64.2973,0.011969
35.103,64.3037,0.011969
35.134,64.3100,0.011969
35.165,64.3162,0.011969
35.197,64.3214,0.011969
35.228,64.3261,0.011969
35.258,64.3298,0.011969
35.289,64.3329,0.011969
35.321,64.3354,0.011998
35.351,64.3370,0.011998
35.382,64.3380,0.011998
35.413,64.3383,0.011998
35.444,64.3383,0.011998
35.475,64.3383,0.011998
35.506,64.3383,0.011998
35.537,64.3383,0.011998
35.569,64.3383,0.012054
35.600,64.3383,0.012054
35.630,64.3383,0.012054
35.661,64.3383,0.012054
35.693,64.3383,0.012054
35.724,64.3383,0.012054
35.755,64.3383,0.012054
35.787,64.3383,0.012054
35.817,64.3383,0.012054
35.848,64.3383,0.012054
35.878,64.3383,0.012054
35.909,64.3383,0.012054
35.940,64.3383,0.012054
35.971,64.3383,0.012054
36.003,64.3383,0.012054
36.032,64.3383,0.012054
36.062,64.3383,0.012026
36.093,64.3383,0.012026
36.123,64.3383,0.012026
36.155,64.3383,0.012026
36.186,64.3383,0.012026
36.218,64.3383,0.012026
36.250,64.3383,0.012026
36.281,64.3383,0.012026
36.312,64.3383,0.012026
36.345,64.3383,0.012026
36.375,64.3383,0.012026
36.406,64.3383,0.012026
36.437,64.3383,0.012026
36.469,64.3383,0.012026
36.500,64.3383,0.012026
36.530,64.3383,0.012026
36.561,64.3383,0.012026
36.592,64.3383,0.012016
36.623,64.3383,0.012016
36.654,64.3383,0.012016
36.685,64.3383,0.012016
36.717,64.3383,0.012016
36.748,64.3383,0.012016
36.780,64.3383,0.012016
36.811,64.3383,0.012016
36.842,64.3383,0.011979
36.874,64.3383,0.011979
36.906,64.3383,0.011979
36.936,64.3383,0.011979
36.969,64.3383,0.011979
36.999,64.3383,0.011979
37.030,64.3383,0.011979
37.061,64.3383,0.011979
37.092,64.3383,0.012016
37.124,64.3383,0.012016
37.154,64.3383,0.012016
37.185,64.3383,0.012016
37.216,64.3383,0.012016
37.247,64.3383,0.012016
37.279,64.3383,0.012016
37.309,64.3383,0.012016
37.339,64.3383,0.012007
37.370,64.3383,0.012007
37.402,64.3383,0.012007
37.434,64.3383,0.012007
37.466,64.3383,0.012007
37.497,64.3383,0.012007
37.528,64.3383,0.012007
37.558,64.3383,0.012007
37.590,64.3383,0.011998
37.622,64.3383,0.011998
37.653,64.3383,0.011998
37.684,64.3383,0.011998
37.716,64.3383,0.011998
37.747,64.3383,0.011998
37.779,64.3383,0.011998
37.809,64.3383,0.011998
37.841,64.3383,0.012007
37.871,64.3383,0.012007
37.902,64.3383,0.012007
37.932,64.3383,0.012007
37.964,64.3383,0.012007
37.995,64.3383,0.012007
38.026,64.3383,0.012007
38.057,64.3383,0.012007
38.088,64.3383,0.012026
38.119,64.3383,0.012026
38.150,64.3383,0.012026
38.181,64.3383,0.012026
38.212,64.3383,0.012026
38.243,64.3383,0.012026
38.275,64.3383,0.012026
38.304,64.3383,0.012045
38.335,64.3383,0.012045
38.366,64.3383,0.012045
38.396,64.3383,0.012045
38.427,64.3383,0.012045
38.458,64.3383,0.012045
38.489,64.3383,0.012045
38.519,64.3383,0.012045
38.550,64.3383,0.012045
38.580,64.3383,0.011998
38.612,64.3383,0.011998
38.643,64.3383,0.011998
38.674,64.3383,0.011998
38.705,64.3383,0.011998
38.736,64.3383,0.011998
38.768,64.3383,0.011998
38.799,64.3383,0.011998
38.830,64.3383,0.011979
38.862,64.3383,0.011979
38.892,64.3383,0.011979
38.923,64.3383,0.011979
38.954,64.3383,0.011979
38.985,64.3383,0.011979
39.016,64.3383,0.011979
39.048,64.3383,0.011998
39.079,64.3383,0.011998
39.111,64.3383,0.011998
39.142,64.3383,0.011998
39.174,64.3383,0.011998
39.205,64.3383,0.011998
39.236,64.3383,0.011998
39.268,64.3383,0.011998
39.300,64.3383,0.012026
39.329,64.3383,0.012026
39.360,64.3383,0.012026
39.391,64.3383,0.012026
39.422,64.3383,0.012026
39.453,64.3383,0.012026
39.485,64.3383,0.012026
39.515,64.3383,0.012026
39.547,64.3383,0.012026
39.578,64.3383,0.011969
39.609,64.3383,0.011969
39.641,64.3383,0.011969
39.672,64.3383,0.011969
39.703,64.3383,0.011969
39.733,64.3379,0.011969
39.764,64.3369,0.011969
39.797,64.3349,0.011969
39.827,64.3326,0.012007
39.858,64.3292,0.012007
39.889,64.3254,0.012007
39.920,64.3205,0.012007
39.952,64.3151,0.012007
39.982,64.3090,0.012007
40.014,64.3028,0.012007
40.045,64.2964,0.012129
40.076,64.2903,0.012129
40.107,64.2841,0.012129
40.138,64.2779,0.012129
40.169,64.2717,0.012129
40.201,64.2652,0.012129
40.232,64.2591,0.012129
40.263,64.2529,0.012129
40.295,64.2466,0.012110
40.326,64.2404,0.012110
40.357,64.2341,0.012110
40.388,64.2279,0.012110
40.419,64.2216,0.012110
40.450,64.2155,0.012110
40.481,64.2092,0.012110
40.513,64.2031,0.012110
40.543,64.1968,0.012007
40.574,64.1907,0.012007
40.606,64.1842,0.012007
40.638,64.1779,0.012007
40.670,64.1716,0.012007
40.701,64.1654,0.012007
40.732,64.1591,0.012007
40.763,64.1529,0.012007
40.794,64.1467,0.011998
40.825,64.1406,0.011998
40.855,64.1346,0.011998
40.886,64.1283,0.011998
40.918,64.1220,0.011998
40.950,64.1157,0.011998
40.980,64.1096,0.011998
41.011,64.1034,0.011998
41.041,64.0974,0.011998
41.072,64.0910,0.012035
41.103,64.0849,0.012035
41.134,64.0786,0.012035
41.166,64.0722,0.012035
41.197,64.0662,0.012035
41.228,64.0600,0.012035
41.259,64.0536,0.012035
41.291,64.0474,0.012035
41.322,64.0412,0.012026
41.352,64.0350,0.012026
41.382,64.0291,0.012026
41.414,64.0228,0.012026
41.444,64.0167,0.012026
41.476,64.0104,0.012026
41.507,64.0042,0.012026
41.538,63.9981,0.012026
41.569,63.9918,0.012026
41.599,63.9857,0.012026
41.630,63.9796,0.012026
41.661,63.9734,0.012026
41.694,63.9667,0.012026
41.724,63.9606,0.012026
41.755,63.9545,0.012026
41.786,63.9482,0.012026
41.818,63.9419,0.012035
41.848,63.9358,0.012035
41.879,63.9297,0.012035
41.910,63.9234,0.012035
41.941,63.9173,0.012035
41.972,63.9111,0.012035
42.003,63.9051,0.012035
42.034,63.8987,0.012063
42.065,63.8927,0.012063
42.095,63.8863,0.012063
42.126,63.8804,0.012063
42.159,63.8738,0.012063
42.189,63.8677,0.012063
42.220,63.8614,0.012063
42.251,63.8552,0.012063
42.284,63.8489,0.012063
42.313,63.8429,0.012063
42.344,63.8368,0.012073
42.375,63.8306,0.012073
42.407,63.8242,0.012073
42.437,63.8181,0.012073
42.468,63.8119,0.012073
42.500,63.8056,0.012073
42.530,63.7995,0.012073
42.561,63.7934,0.012073
42.593,63.7870,0.012054
42.622,63.7810,0.012054
42.653,63.7750,0.012054
42.684,63.7686,0.012054
42.716,63.7626,0.012054
42.747,63.7561,0.012054
42.777,63.7502,0.012054
42.808,63.7440,0.012054
42.839,63.7378,0.012054
42.869,63.7317,0.012054
42.900,63.7256,0.012054
42.932,63.7193,0.012054
42.963,63.7129,0.012054
42.995,63.7065,0.012054
43.026,63.7002,0.012054
43.057,63.6941,0.012054
43.088,63.6881,0.012054
43.119,63.6817,0.012035
43.150,63.6756,0.012035
43.181,63.6692,0.012035
43.211,63.6633,0.012035
43.243,63.6569,0.012035
43.274,63.6508,0.012035
43.306,63.6444,0.012035
43.337,63.6383,0.012045
43.367,63.6322,0.012045
43.399,63.6258,0.012045
43.429,63.6197,0.012045
43.461,63.6132,0.012045
43.491,63.6073,0.012045
43.522,63.6012,0.012045
43.553,63.5950,0.012035
43.584,63.5889,0.012035
43.615,63.5825,0.012035
43.646,63.5763,0.012035
43.677,63.5702,0.012035
43.708,63.5640,0.012035
43.739,63.5578,0.012035
43.770,63.5515,0.012035
43.802,63.5451,0.011998
43.833,63.5389,0.011998
43.864,63.5327,0.011998
43.896,63.5264,0.011998
43.926,63.5202,0.011998
43.957,63.5141,0.011998
43.988,63.5079,0.011998
44.019,63.5017,0.011998
44.050,63.4955,0.011979
44.082,63.4891,0.011979
44.113,63.4830,0.011979
44.145,63.4767,0.011979
44.175,63.4705,0.011979
44.207,63.4642,0.011979
44.238,63.4580,0.011979
44.269,63.4518,0.011979
44.300,63.4457,0.011988
44.331,63.4394,0.011988
44.363,63.4332,0.011988
44.393,63.4270,0.011988
44.424,63.4207,0.011988
44.455,63.4144,0.011988
44.487,63.4081,0.011988
44.519,63.4016,0.011988
44.551,63.3954,0.012054
44.582,63.3892,0.012054
44.612,63.3830,0.012054
44.643,63.3770,0.012054
44.674,63.3709,0.012054
44.705,63.3646,0.012054
44.735,63.3586,0.012054
44.767,63.3522,0.012054
44.798,63.3460,0.012054
44.829,63.3398,0.012073
44.859,63.3338,0.012073
44.891,63.3272,0.012073
44.922,63.3212,0.012073
44.953,63.3148,0.012073
44.985,63.3086,0.012073
45.016,63.3023,0.012073
45.047,63.2962,0.012063
45.079,63.2898,0.012063
45.110,63.2837,0.012063
45.141,63.2774,0.012063
45.172,63.2713,0.012063
45.203,63.2650,0.012063
45.234,63.2585,0.012063
45.266,63.2523,0.012063
45.297,63.2461,0.012063
45.330,63.2397,0.012054
45.358,63.2340,0.012054
45.389,63.2278,0.012054
45.419,63.2218,0.012054
45.449,63.2156,0.012054
45.481,63.2094,0.012054
45.511,63.2032,0.012054
45.542,63.1971,0.012054
45.573,63.1909,0.011998
45.604,63.1847,0.011998
45.636,63.1783,0.011998
45.668,63.1720,0.011998
45.699,63.1658,0.011998
45.731,63.1594,0.011998
45.762,63.1532,0.011998
45.793,63.1469,0.011998
45.825,63.1405,0.012026
45.855,63.1345,0.012026
45.887,63.1283,0.012026
45.918,63.1220,0.012026
45.949,63.1157,0.012026
45.979,63.1098,0.012026
46.010,63.1034,0.012026
46.042,63.0972,0.012054
46.074,63.0907,0.012054
46.105,63.0845,0.012054
46.136,63.0783,0.012054
46.168,63.0721,0.012054
46.200,63.0655,0.012054
46.230,63.0597,0.012054
46.261,63.0531,0.012054
46.293,63.0469,0.012007
46.325,63.0406,0.012007
46.355,63.0345,0.012007
46.387,63.0282,0.012007
46.418,63.0220,0.012007
46.449,63.0157,0.012007
46.480,63.0095,0.012007
46.511,63.0034,0.012007
46.542,62.9972,0.011988
46.573,62.9910,0.011988
46.604,62.9848,0.011988
46.635,62.9785,0.011988
46.666,62.9724,0.011988
46.697,62.9662,0.011988
46.728,62.9599,0.011988
46.760,62.9537,0.011988
46.790,62.9476,0.012035
46.821,62.9414,0.012035
46.852,62.9351,0.012035
46.882,62.9291,0.012035
46.913,62.9230,0.012035
46.944,62.9167,0.012035
46.975,62.9106,0.012035
47.006,62.9043,0.012035
47.036,62.8984,0.012035
47.067,62.8920,0.012054
47.098,62.8860,0.012054
47.129,62.8798,0.012054
47.161,62.8736,0.012054
47.193,62.8670,0.012054
47.224,62.8608,0.012054
47.255,62.8547,0.012054
47.285,62.8486,0.012035
47.316,62.8424,0.012035
47.348,62.8360,0.012035
47.378,62.8299,0.012035
47.409,62.8238,0.012035
47.439,62.8177,0.012035
47.470,62.8115,0.012035
47.502,62.8052,0.012035
47.534,62.7989,0.012035
47.565,62.7926,0.012035
47.596,62.7864,0.012007
47.627,62.7803,0.012007
47.658,62.7741,0.012007
47.689,62.7678,0.012007
47.721,62.7614,0.012007
47.752,62.7551,0.012007
47.783,62.7489,0.012007
47.815,62.7426,0.012016
47.847,62.7361,0.012016
47.877,62.7301,0.012016
47.908,62.7241,0.012016
47.939,62.7178,0.012016
47.969,62.7118,0.012016
48.002,62.7053,0.012016
48.030,62.6994,0.012016
48.061,62.6935,0.012016
48.092,62.6870,0.012016
48.124,62.6807,0.012016
48.155,62.6746,0.012016
48.185,62.6684,0.012016
48.217,62.6622,0.012016
48.248,62.6560,0.012016
48.280,62.6496,0.012016
48.311,62.6434,0.012054
48.342,62.6370,0.012054
48.374,62.6308,0.012054
48.405,62.6245,0.012054
48.436,62.6184,0.012054
48.467,62.6122,0.012054
48.498,62.6060,0.012054
48.529,62.5997,0.012054
48.560,62.5936,0.012073
48.592,62.5872,0.012073
48.623,62.5806,0.012073
48.655,62.5747,0.012073
48.685,62.5687,0.012073
48.715,62.5625,0.012073
48.746,62.5563,0.012073
48.778,62.5501,0.012073
48.809,62.5438,0.012054
48.840,62.5375,0.012054
48.871,62.5314,0.012054
48.902,62.5251,0.012054
48.933,62.5190,0.012054
48.964,62.5129,0.012054
48.995,62.5066,0.012054
49.026,62.5005,0.012054
49.057,62.4942,0.012045
49.089,62.4878,0.012045
49.120,62.4815,0.012045
49.151,62.4753,0.012045
49.183,62.4690,0.012045
49.214,62.4628,0.012045
49.245,62.4566,0.012045
49.276,62.4505,0.012045
49.306,62.4444,0.012007
49.337,62.4381,0.012007
49.368,62.4319,0.012007
49.401,62.4253,0.012007
49.433,62.4190,0.012007
49.462,62.4132,0.012007
49.494,62.4070,0.012007
49.524,62.4007,0.012007
49.556,62.3945,0.012026
49.586,62.3883,0.012026
49.617,62.3821,0.012026
49.649,62.3760,0.012026
49.680,62.3695,0.012026
49.711,62.3634,0.012026
49.743,62.3570,0.012026
49.774,62.3509,0.012026
49.804,62.3448,0.012026
49.835,62.3386,0.012016
49.866,62.3324,0.012016
49.897,62.3262,0.012016
49.929,62.3198,0.012016
49.960,62.3136,0.012016
49.991,62.3075,0.012016
50.023,62.3011,0.012016
50.053,62.2950,0.012016
50.085,62.2885,0.012016
50.115,62.2827,0.012016
50.146,62.2764,0.012016
50.177,62.2703,0.012016
50.208,62.2641,0.012016
50.239,62.2578,0.012016
50.270,62.2517,0.012016
50.302,62.2453,0.012016
50.332,62.2393,0.012026
50.363,62.2330,0.012026
50.393,62.2270,0.012026
50.425,62.2205,0.012026
50.456,62.2144,0.012026
50.487,62.2080,0.012026
50.518,62.2020,0.012026
50.550,62.1956,0.012026
50.582,62.1892,0.012016
50.612,62.1834,0.012016
50.642,62.1773,0.012016
50.673,62.1710,0.012016
50.704,62.1648,0.012016
50.734,62.1588,0.012016
50.766,62.1525,0.012016
50.797,62.1462,0.011998
50.828,62.1401,0.011998
50.859,62.1339,0.011998
50.890,62.1277,0.011998
50.921,62.1216,0.011998
50.952,62.1153,0.011998
50.982,62.1092,0.011998
51.013,62.1030,0.011998
51.044,62.0968,0.011969
51.076,62.0903,0.011969
51.107,62.0840,0.011969
51.139,62.0778,0.011969
51.169,62.0717,0.011969
51.201,62.0654,0.011969
51.231,62.0593,0.011969
51.262,62.0530,0.011969
51.294,62.0468,0.011998
51.325,62.0406,0.011998
51.356,62.0344,0.011998
51.387,62.0282,0.011998
51.418,62.0220,0.011998
51.449,62.0159,0.011998
51.480,62.0097,0.011998
51.510,62.0037,0.011998
51.542,61.9973,0.012045
51.573,61.9909,0.012045
51.605,61.9847,0.012045
51.637,61.9782,0.012045
51.668,61.9720,0.012045
51.699,61.9657,0.012045
51.730,61.9596,0.012045
51.761,61.9536,0.012045
51.791,61.9474,0.012054
51.823,61.9410,0.012054
51.854,61.9349,0.012054
51.885,61.9285,0.012054
51.916,61.9224,0.012054
51.948,61.9160,0.012054
51.980,61.9096,0.012054
52.009,61.9037,0.012054
52.040,61.8976,0.012092
52.072,61.8910,0.012092
52.103,61.8851,0.012092
52.134,61.8786,0.012092
52.166,61.8724,0.012092
52.198,61.8661,0.012092
52.229,61.8599,0.012092
52.260,61.8535,0.012092
52.292,61.8470,0.012063
52.321,61.8413,0.012063
52.352,61.8352,0.012063
52.383,61.8290,0.012063
52.415,61.8227,0.012063
52.446,61.8164,0.012063
52.476,61.8102,0.012063
52.507,61.8041,0.012063
52.537,61.7982,0.012063
52.568,61.7921,0.012063
52.598,61.7860,0.012035
52.630,61.7795,0.012035
52.661,61.7736,0.012035
52.692,61.7671,0.012035
52.723,61.7611,0.012035
52.755,61.7547,0.012035
52.785,61.7487,0.012035
52.817,61.7421,0.012035
52.848,61.7361,0.012045
52.878,61.7299,0.012045
52.910,61.7237,0.012045
52.940,61.7175,0.012045
52.971,61.7112,0.012045
53.003,61.7051,0.012045
53.033,61.6988,0.012045
53.064,61.6929,0.011998
53.094,61.6867,0.011998
53.125,61.6806,0.011998
53.156,61.6744,0.011998
53.186,61.6684,0.011998
53.217,61.6622,0.011998
53.249,61.6558,0.011998
53.279,61.6498,0.011998
53.311,61.6434,0.012007
53.342,61.6373,0.012007
53.374,61.6308,0.012007
53.405,61.6246,0.012007
53.435,61.6187,0.012007
53.465,61.6125,0.012007
53.496,61.6065,0.012007
53.527,61.6001,0.012007
53.557,61.5941,0.012007
53.589,61.5878,0.012082
53.619,61.5819,0.012082
53.649,61.5757,0.012082
53.680,61.5696,0.012082
53.711,61.5634,0.012082
53.742,61.5572,0.012082
53.774,61.5507,0.012082
53.806,61.5444,0.012054
53.837,61.5382,0.012054
53.869,61.5320,0.012054
53.899,61.5258,0.012054
53.931,61.5195,0.012054
53.962,61.5131,0.012054
53.992,61.5073,0.012054
54.023,61.5010,0.012054
54.053,61.4950,0.011998
54.084,61.4887,0.011998
54.115,61.4825,0.011998
54.146,61.4762,0.011998
54.177,61.4702,0.011998
54.208,61.4640,0.011998
54.239,61.4578,0.011998
54.271,61.4515,0.011998
54.302,61.4453,0.011998
54.333,61.4390,0.011998
54.364,61.4328,0.011998
54.395,61.4267,0.011998
54.426,61.4205,0.011998
54.457,61.4142,0.011998
54.488,61.4081,0.011998
54.519,61.4019,0.011998
54.550,61.3957,0.011998
54.581,61.3894,0.011998
54.612,61.3833,0.011998
54.643,61.3768,0.011998
54.674,61.3705,0.011998
54.705,61.3646,0.011998
54.735,61.3586,0.011998
54.767,61.3522,0.011998
54.798,61.3460,0.011979
54.830,61.3396,0.011979
54.861,61.3336,0.011979
54.892,61.3271,0.011979
54.924,61.3208,0.011979
54.955,61.3145,0.011979
54.986,61.3088,0.011979
55.018,61.3035,0.011979
55.048,61.2993,0.011979
55.079,61.2957,0.011979
55.110,61.2926,0.011979
55.142,61.2905,0.011979
55.173,61.2890,0.011979
55.205,61.2884,0.011979
55.235,61.2883,0.011979
55.266,61.2883,0.011979
55.298,61.2883,0.011979
55.328,61.2883,0.011988
55.359,61.2883,0.011988
55.390,61.2887,0.011988
55.421,61.2898,0.011988
55.451,61.2915,0.011988
55.483,61.2941,0.011988
55.514,61.2973,0.011988
55.546,61.3016,0.012007
55.577,61.3064,0.012007
55.608,61.3117,0.012007
55.639,61.3181,0.012007
55.670,61.3243,0.012007
55.701,61.3305,0.012007
55.733,61.3368,0.012007
55.763,61.3429,0.012007
55.794,61.3489,0.012007
55.826,61.3553,0.012045
55.857,61.3615,0.012045
55.888,61.3677,0.012045
55.919,61.3740,0.012045
55.950,61.3802,0.012045
55.980,61.3863,0.012045
56.012,61.3927,0.012045
56.043,61.3988,0.012092
56.075,61.4051,0.012092
56.106,61.4113,0.012092
56.136,61.4175,0.012092
56.167,61.4235,0.012092
56.198,61.4298,0.012092
56.230,61.4361,0.012092
56.261,61.4425,0.012092
56.292,61.4488,0.012063
56.324,61.4550,0.012063
56.354,61.4609,0.012063
56.386,61.4673,0.012063
56.416,61.4733,0.012063
56.447,61.4795,0.012063
56.479,61.4859,0.012063
56.510,61.4922,0.012063
56.541,61.4983,0.012035
56.571,61.5045,0.012035
56.602,61.5105,0.012035
56.633,61.5166,0.012035
56.665,61.5233,0.012035
56.696,61.5294,0.012035
56.727,61.5355,0.012035
56.758,61.5418,0.012035
56.790,61.5480,0.012035
56.820,61.5542,0.012035
56.852,61.5606,0.012035
56.883,61.5667,0.012035
56.914,61.5728,0.012035
56.945,61.5790,0.012035
56.975,61.5852,0.012035
57.007,61.5915,0.012035
57.038,61.5976,0.012035
57.068,61.6038,0.012035
57.100,61.6104,0.012016
57.130,61.6162,0.012016
57.161,61.6223,0.012016
57.193,61.6287,0.012016
57.224,61.6348,0.012016
57.255,61.6411,0.012016
57.287,61.6476,0.012016
57.316,61.6534,0.012016
57.347,61.6596,0.012045
57.379,61.6659,0.012045
57.410,61.6721,0.012045
57.440,61.6782,0.012045
57.471,61.6845,0.012045
57.503,61.6906,0.012045
57.535,61.6972,0.012045
57.564,61.7030,0.012035
57.594,61.7090,0.012035
57.626,61.7153,0.012035
57.656,61.7214,0.012035
57.687,61.7276,0.012035
57.718,61.7338,0.012035
57.749,61.7399,0.012035
57.779,61.7459,0.012016
57.811,61.7524,0.012016
57.842,61.7585,0.012016
57.872,61.7645,0.012016
57.903,61.7707,0.012016
57.935,61.7771,0.012016
57.966,61.7831,0.012016
57.996,61.7893,0.012016
58.027,61.7955,0.012016
58.058,61.8017,0.011998
58.089,61.8081,0.011998
58.120,61.8141,0.011998
58.152,61.8205,0.011998
58.184,61.8268,0.011998
58.214,61.8330,0.011998
58.245,61.8392,0.011998
58.275,61.8453,0.011998
58.306,61.8514,0.011998
58.338,61.8577,0.011988
58.369,61.8639,0.011988
58.399,61.8700,0.011988
58.430,61.8763,0.011988
58.461,61.8822,0.011988
58.493,61.8888,0.011988
58.524,61.8949,0.011988
58.555,61.9012,0.011988
58.587,61.9074,0.012035
58.619,61.9139,0.012035
58.648,61.9198,0.012035
58.679,61.9260,0.012035
58.709,61.9320,0.012035
58.741,61.9384,0.012035
58.773,61.9447,0.012035
58.804,61.9512,0.012035
58.835,61.9570,0.012035
58.865,61.9632,0.012035
58.898,61.9698,0.012035
58.928,61.9756,0.012035
58.959,61.9821,0.012035
58.990,61.9883,0.012035
59.021,61.9944,0.012035
59.053,62.0007,0.012054
59.084,62.0069,0.012054
59.115,62.0132,0.012054
59.146,62.0194,0.012054
59.177,62.0255,0.012054
59.208,62.0318,0.012054
59.240,62.0380,0.012054
59.271,62.0443,0.012054
59.302,62.0505,0.012054
59.333,62.0569,0.012054
59.364,62.0629,0.012054
59.396,62.0694,0.012054
59.427,62.0755,0.012054
59.458,62.0817,0.012054
59.489,62.0880,0.012054
59.520,62.0942,0.012054
59.551,62.1003,0.012045
59.582,62.1066,0.012045
59.613,62.1127,0.012045
59.644,62.1190,0.012045
59.674,62.1250,0.012045
59.705,62.1312,0.012045
59.735,62.1372,0.012045
59.766,62.1433,0.012045
59.797,62.1494,0.012063
59.829,62.1560,0.012063
59.860,62.1620,0.012063
59.890,62.1681,0.012063
59.921,62.1743,0.012063
59.952,62.1805,0.012063
59.983,62.1868,0.012063
60.014,62.1928,0.012063
60.045,62.1991,0.012063
60.076,62.2053,0.012063
60.106,62.2114,0.012063
60.137,62.2176,0.012063
60.168,62.2236,0.012063
60.199,62.2300,0.012063
60.230,62.2361,0.012063
60.260,62.2422,0.012063
60.292,62.2485,0.012063
60.323,62.2547,0.012063
60.355,62.2610,0.012063
60.385,62.2672,0.012063
60.417,62.2734,0.012063
60.448,62.2797,0.012063
60.479,62.2859,0.012063
60.510,62.2923,0.012063
60.542,62.2983,0.012007
60.572,62.3047,0.012007
60.603,62.3107,0.012007
60.634,62.3168,0.012007
60.664,62.3229,0.012007
60.695,62.3292,0.012007
60.726,62.3354,0.012007
60.757,62.3414,0.012007
60.787,62.3477,0.012007
60.818,62.3539,0.011998
60.849,62.3600,0.011998
60.879,62.3659,0.011998
60.910,62.3720,0.011998
60.941,62.3783,0.011998
60.973,62.3847,0.011998
61.005,62.3911,0.011998
61.037,62.3976,0.012035
61.066,62.4033,0.012035
61.096,62.4093,0.012035
61.128,62.4158,0.012035
61.159,62.4219,0.012035
61.190,62.4281,0.012035
61.221,62.4343,0.012035
61.252,62.4405,0.012035
61.283,62.4467,0.012035
61.315,62.4530,0.012035
61.347,62.4594,0.012045
61.377,62.4654,0.012045
61.408,62.4717,0.012045
61.439,62.4779,0.012045
61.470,62.4840,0.012045
61.500,62.4901,0.012045
61.532,62.4965,0.012045
61.563,62.5026,0.012073
61.594,62.5089,0.012073
61.624,62.5149,0.012073
61.655,62.5211,0.012073
61.686,62.5272,0.012073
61.716,62.5334,0.012073
61.747,62.5397,0.012073
61.779,62.5459,0.012073
61.810,62.5522,0.012082
61.842,62.5584,0.012082
61.873,62.5652,0.012082
61.904,62.5709,0.012082
61.936,62.5773,0.012082
61.967,62.5835,0.012082
61.998,62.5898,0.012082
62.029,62.5960,0.012082
62.061,62.6024,0.012026
62.092,62.6085,0.012026
62.124,62.6150,0.012026
62.155,62.6212,0.012026
62.187,62.6275,0.012026
62.218,62.6336,0.012026
62.248,62.6398,0.012026
62.279,62.6459,0.011979
62.310,62.6523,0.011979
62.342,62.6586,0.011979
62.372,62.6646,0.011979
62.402,62.6707,0.011979
62.433,62.6766,0.011979
62.463,62.6828,0.011979
62.495,62.6891,0.011979
62.525,62.6952,0.011979
62.557,62.7014,0.012016
62.588,62.7077,0.012016
62.619,62.7139,0.012016
62.650,62.7200,0.012016
62.681,62.7263,0.012016
62.712,62.7324,0.012016
62.743,62.7387,0.012016
62.774,62.7449,0.012016
62.805,62.7511,0.012026
62.837,62.7576,0.012026
62.868,62.7638,0.012026
62.899,62.7699,0.012026
62.930,62.7761,0.012026
62.962,62.7824,0.012026
62.993,62.7887,0.012026
63.023,62.7948,0.012026
63.055,62.8013,0.012026
63.085,62.8071,0.012045
63.115,62.8133,0.012045
63.146,62.8194,0.012045
63.178,62.8257,0.012045
63.208,62.8318,0.012045
63.240,62.8381,0.012045
63.272,62.8444,0.012045
63.300,62.8502,0.012045
63.332,62.8566,0.012026
63.363,62.8629,0.012026
63.394,62.8691,0.012026
63.425,62.8752,0.012026
63.456,62.8814,0.012026
63.487,62.8874,0.012026
63.518,62.8938,0.012026
63.549,62.9000,0.012026
63.579,62.9061,0.012016
63.611,62.9123,0.012016
63.642,62.9186,0.012016
63.672,62.9245,0.012016
63.703,62.9306,0.012016
63.734,62.9368,0.012016
63.765,62.9430,0.012016
63.796,62.9496,0.012063
63.827,62.9555,0.012063
63.859,62.9620,0.012063
63.890,62.9682,0.012063
63.921,62.9743,0.012063
63.952,62.9806,0.012063
63.983,62.9867,0.012063
64.015,62.9931,0.012063
64.046,62.9992,0.012026
64.077,63.0055,0.012026
64.108,63.0118,0.012026
64.139,63.0180,0.012026
64.171,63.0242,0.012026
64.202,63.0306,0.012026
64.233,63.0366,0.012026
64.265,63.0431,0.012026
64.296,63.0492,0.012026
64.326,63.0554,0.012026
64.357,63.0615,0.012026
64.388,63.0677,0.012026
64.418,63.0739,0.012026
64.450,63.0801,0.012026
64.481,63.0863,0.012026
64.512,63.0923,0.012026
64.542,63.0985,0.012026
64.574,63.1050,0.012026
64.604,63.1109,0.012026
64.636,63.1173,0.012026
64.667,63.1235,0.012026
64.698,63.1297,0.012026
64.728,63.1357,0.012026
64.759,63.1418,0.012026
64.789,63.1479,0.011988
64.821,63.1543,0.011988
64.851,63.1603,0.011988
64.883,63.1665,0.011988
64.914,63.1728,0.011988
64.946,63.1792,0.011988
64.977,63.1856,0.011988
65.007,63.1914,0.011988
65.039,63.1979,0.012016
65.068,63.2038,0.012016
65.100,63.2102,0.012016
65.131,63.2162,0.012016
65.162,63.2224,0.012016
65.193,63.2288,0.012016
65.225,63.2351,0.012016
65.256,63.2413,0.012016
65.288,63.2479,0.012016
65.319,63.2538,0.011998
65.351,63.2601,0.011998
65.381,63.2662,0.011998
65.413,63.2727,0.011998
65.444,63.2789,0.011998
65.474,63.2849,0.011998
65.505,63.2910,0.011998
65.536,63.2973,0.011998
65.567,63.3034,0.011998
65.598,63.3097,0.011998
65.628,63.3157,0.011998
65.660,63.3220,0.011998
65.690,63.3282,0.011998
65.722,63.3344,0.011998
65.753,63.3408,0.011998
65.784,63.3470,0.012026
65.816,63.3532,0.012026
65.847,63.3595,0.012026
65.879,63.3658,0.012026
65.910,63.3723,0.012026
65.942,63.3785,0.012026
65.973,63.3850,0.012026
66.004,63.3909,0.012026
66.036,63.3976,0.012026
66.065,63.4031,0.012026
66.097,63.4095,0.012035
66.129,63.4159,0.012035
66.159,63.4217,0.012035
66.190,63.4281,0.012035
66.220,63.4341,0.012035
66.252,63.4406,0.012035
66.283,63.4467,0.012035
66.314,63.4530,0.012035
66.345,63.4591,0.012026
66.376,63.4653,0.012026
66.408,63.4718,0.012026
66.439,63.4779,0.012026
66.472,63.4844,0.012026
66.501,63.4903,0.012026
66.533,63.4968,0.012026
66.563,63.5027,0.012026
66.594,63.5089,0.011988
66.624,63.5149,0.011988
66.654,63.5210,0.011988
66.685,63.5272,0.011988
66.718,63.5336,0.011988
66.748,63.5397,0.011988
66.779,63.5458,0.011988
66.809,63.5520,0.011988
66.841,63.5584,0.011979
66.872,63.5645,0.011979
66.903,63.5708,0.011979
66.934,63.5768,0.011979
66.964,63.5831,0.011979
66.996,63.5893,0.011979
67.028,63.5957,0.011979
67.059,63.6018,0.011988
67.090,63.6080,0.011988
67.121,63.6142,0.011988
67.152,63.6204,0.011988
67.183,63.6268,0.011988
67.214,63.6328,0.011988
67.245,63.6390,0.011988
67.276,63.6452,0.011988
67.307,63.6514,0.011988
67.339,63.6579,0.012016
67.369,63.6638,0.012016
67.400,63.6702,0.012016
67.431,63.6762,0.012016
67.462,63.6824,0.012016
67.492,63.6885,0.012016
67.524,63.6948,0.012016
67.555,63.7010,0.011988
67.587,63.7074,0.011988
67.617,63.7136,0.011988
67.648,63.7199,0.011988
67.679,63.7258,0.011988
67.711,63.7322,0.011988
67.742,63.7385,0.011988
67.773,63.7447,0.011988
67.803,63.7508,0.011988
67.834,63.7569,0.011988
67.865,63.7632,0.011988
67.896,63.7693,0.011988
67.928,63.7756,0.011988
67.959,63.7819,0.011988
67.989,63.7880,0.011988
68.021,63.7943,0.011988
68.052,63.8004,0.012054
68.083,63.8068,0.012054
68.115,63.8132,0.012054
68.146,63.8191,0.012054
68.176,63.8253,0.012054
68.207,63.8315,0.012054
68.238,63.8376,0.012054
68.269,63.8439,0.012054
68.300,63.8501,0.012035
68.331,63.8563,0.012035
68.362,63.8626,0.012035
68.393,63.8687,0.012035
68.424,63.8749,0.012035
68.456,63.8814,0.012035
68.486,63.8874,0.012035
68.518,63.8937,0.012035
68.550,63.9000,0.012035
68.580,63.9061,0.012007
68.612,63.9125,0.012007
68.643,63.9186,0.012007
68.675,63.9250,0.012007
68.706,63.9312,0.012007
68.737,63.9374,0.012007
68.768,63.9438,0.012007
68.798,63.9497,0.012007
68.829,63.9558,0.011998
68.860,63.9620,0.011998
68.891,63.9683,0.011998
68.922,63.9745,0.011998
68.953,63.9805,0.011998
68.983,63.9868,0.011998
69.014,63.9929,0.011998
69.045,63.9992,0.011998
69.076,64.0053,0.012054
69.107,64.0115,0.012054
69.138,64.0177,0.012054
69.169,64.0239,0.012054
69.201,64.0301,0.012054
69.231,64.0363,0.012054
69.262,64.0425,0.012054
69.294,64.0488,0.012054
69.325,64.0551,0.012082
69.356,64.0615,0.012082
69.388,64.0678,0.012082
69.418,64.0736,0.012082
69.448,64.0798,0.012082
69.479,64.0859,0.012082
69.509,64.0920,0.012082
69.540,64.0982,0.012082
69.573,64.1046,0.012092
69.603,64.1106,0.012092
69.634,64.1168,0.012092
69.665,64.1230,0.012092
69.695,64.1290,0.012092
69.726,64.1352,0.012092
69.758,64.1416,0.012092
69.790,64.1480,0.012092
69.821,64.1542,0.012110
69.852,64.1604,0.012110
69.883,64.1666,0.012110
69.914,64.1730,0.012110
69.945,64.1789,0.012110
69.975,64.1851,0.012110
70.006,64.1913,0.012110
70.037,64.1975,0.012110
70.069,64.2038,0.012110
70.099,64.2099,0.012063
70.130,64.2162,0.012063
70.161,64.2223,0.012063
70.192,64.2286,0.012063
70.223,64.2347,0.012063
70.254,64.2410,0.012063
70.285,64.2471,0.012063
70.316,64.2534,0.012035
70.348,64.2598,0.012035
70.379,64.2657,0.012035
70.410,64.2711,0.012035
70.442,64.2758,0.012035
70.472,64.2796,0.012035
70.503,64.2827,0.012035
70.534,64.2853,0.012035
70.564,64.2869,0.012063
70.595,64.2880,0.012063
70.625,64.2883,0.012063
70.656,64.2883,0.012063
70.686,64.2883,0.012063
70.718,64.2883,0.012063
70.750,64.2883,0.012063
70.781,64.2883,0.012063
70.813,64.2883,0.012092
70.843,64.2883,0.012092
70.874,64.2883,0.012092
70.905,64.2883,0.012092
70.937,64.2883,0.012092
70.967,64.2883,0.012092
70.998,64.2883,0.012092
71.029,64.2883,0.012092
71.060,64.2883,0.012054
71.091,64.2883,0.012054
71.122,64.2883,0.012054
71.154,64.2883,0.012054
71.185,64.2883,0.012054
71.216,64.2883,0.012054
71.247,64.2883,0.012054
71.278,64.2883,0.012054
71.309,64.2883,0.012063
71.340,64.2883,0.012063
71.370,64.2883,0.012063
71.401,64.2883,0.012063
71.432,64.2883,0.012063
71.464,64.2883,0.012063
71.495,64.2883,0.012063
71.526,64.2883,0.012063
71.557,64.2883,0.012045
71.588,64.2883,0.012045
71.620,64.2883,0.012045
71.652,64.2883,0.012045
71.682,64.2883,0.012045
71.713,64.2883,0.012045
71.744,64.2883,0.012045
71.775,64.2883,0.012045
71.806,64.2883,0.012016
71.837,64.2883,0.012016
71.868,64.2883,0.012016
71.900,64.2883,0.012016
71.931,64.2883,0.012016
71.962,64.2883,0.012016
71.994,64.2883,0.012016
72.025,64.2883,0.012016
72.056,64.2883,0.012016
72.088,64.2883,0.012016
72.119,64.2883,0.012016
72.150,64.2883,0.012016
72.181,64.2883,0.012016
72.213,64.2883,0.012016
72.244,64.2883,0.012016
72.275,64.2883,0.012016
72.307,64.2883,0.012035
72.338,64.2883,0.012035
72.369,64.2883,0.012035
72.399,64.2883,0.012035
72.430,64.2883,0.012035
72.460,64.2883,0.012035
72.491,64.2883,0.012035
72.522,64.2883,0.012035
72.554,64.2883,0.012035
72.584,64.2883,0.012035
72.615,64.2883,0.012035
72.646,64.2883,0.012035
72.677,64.2883,0.012035
72.709,64.2883,0.012035
72.740,64.2883,0.012035
72.770,64.2883,0.012035
72.801,64.2883,0.012035
72.832,64.2883,0.012035
72.864,64.2883,0.012007
72.893,64.2883,0.012007
72.924,64.2883,0.012007
72.955,64.2883,0.012007
72.986,64.2883,0.012007
73.018,64.2883,0.012007
73.049,64.2883,0.012007
73.081,64.2883,0.012035
73.112,64.2883,0.012035
73.143,64.2883,0.012035
73.173,64.2883,0.012035
73.205,64.2883,0.012035
73.235,64.2883,0.012035
73.267,64.2883,0.012035
73.298,64.2883,0.012035
73.328,64.2883,0.012082
73.359,64.2883,0.012082
73.390,64.2883,0.012082
73.420,64.2883,0.012082
73.451,64.2883,0.012082
73.482,64.2883,0.012082
73.512,64.2883,0.012082
73.543,64.2883,0.012082
73.575,64.2883,0.012054
73.605,64.2883,0.012054
73.636,64.2883,0.012054
73.668,64.2883,0.012054
73.699,64.2883,0.012054
73.730,64.2883,0.012054
73.762,64.2883,0.012054
73.792,64.2883,0.012035
73.823,64.2883,0.012035
73.854,64.2883,0.012035
73.885,64.2883,0.012035
73.916,64.2883,0.012035
73.948,64.2883,0.012035
73.977,64.2883,0.012035
74.008,64.2883,0.012035
74.039,64.2883,0.012026
74.071,64.2883,0.012026
74.102,64.2883,0.012026
74.132,64.2883,0.012026
74.163,64.2883,0.012026
74.194,64.2883,0.012026
74.225,64.2883,0.012026
74.256,64.2883,0.012026
74.288,64.2883,0.012054
74.319,64.2883,0.012054
74.351,64.2883,0.012054
74.381,64.2883,0.012054
74.412,64.2883,0.012054
74.443,64.2883,0.012054
74.474,64.2883,0.012054
74.505,64.2883,0.012054
74.536,64.2883,0.012054
74.567,64.2883,0.012082
74.598,64.2883,0.012082
74.630,64.2883,0.012082
74.662,64.2883,0.012082
74.693,64.2883,0.012082
74.723,64.2883,0.012082
74.754,64.2883,0.012082
74.785,64.2883,0.012082
74.817,64.2883,0.012054
74.848,64.2883,0.012054
74.879,64.2883,0.012054
74.909,64.2883,0.012054
74.941,64.2883,0.012054
74.972,64.2883,0.012054
75.004,64.2882,0.012054
75.035,64.2874,0.012054
75.066,64.2859,0.012035
75.098,64.2837,0.012035
75.129,64.2806,0.012035
75.161,64.2768,0.012035
75.191,64.2725,0.012035
75.224,64.2671,0.012035
75.254,64.2613,0.012035
75.285,64.2552,0.012035
75.317,64.2486,0.012035
75.348,64.2425,0.012148
75.378,64.2365,0.012148
75.408,64.2305,0.012148
75.439,64.2243,0.012148
75.470,64.2180,0.012148
75.501,64.2119,0.012148
75.532,64.2056,0.012148
75.562,64.1995,0.012148
75.594,64.1933,0.012176
75.624,64.1873,0.012176
75.655,64.1811,0.012176
75.687,64.1748,0.012176
75.718,64.1685,0.012176
75.750,64.1623,0.012176
75.782,64.1557,0.012176
75.813,64.1495,0.012045
75.845,64.1431,0.012045
75.876,64.1370,0.012045
75.907,64.1304,0.012045
75.938,64.1245,0.012045
75.969,64.1184,0.012045
75.999,64.1123,0.012045
76.031,64.1059,0.012045
76.061,64.0998,0.012045
76.093,64.0935,0.011998
76.123,64.0874,0.011998
76.154,64.0814,0.011998
76.184,64.0751,0.011998
76.215,64.0691,0.011998
76.246,64.0628,0.011998
76.278,64.0565,0.011998
76.310,64.0500,0.012016
76.342,64.0438,0.012016
76.373,64.0374,0.012016
76.405,64.0312,0.012016
76.436,64.0249,0.012016
76.468,64.0185,0.012016
76.499,64.0125,0.012016
76.530,64.0061,0.012016
76.561,63.9999,0.012063
76.592,63.9936,0.012063
76.624,63.9870,0.012063
76.655,63.9812,0.012063
76.685,63.9750,0.012063
76.717,63.9687,0.012063
76.747,63.9627,0.012063
76.778,63.9567,0.012063
76.808,63.9505,0.012082
76.840,63.9441,0.012082
76.871,63.9379,0.012082
76.902,63.9317,0.012082
76.934,63.9254,0.012082
76.965,63.9192,0.012082
76.996,63.9131,0.012082
77.028,63.9067,0.012082
77.058,63.9006,0.011998
77.089,63.8943,0.011998
77.119,63.8883,0.011998
77.151,63.8820,0.011998
77.182,63.8755,0.011998
77.213,63.8696,0.011998
77.243,63.8634,0.011998
77.273,63.8574,0.011998
77.305,63.8512,0.011979
77.335,63.8452,0.011979
77.367,63.8388,0.011979
77.398,63.8325,0.011979
77.428,63.8263,0.011979
77.460,63.8201,0.011979
77.492,63.8138,0.011979
77.522,63.8076,0.011979
77.553,63.8015,0.011979
77.585,63.7952,0.011979
77.616,63.7891,0.011979
77.646,63.7829,0.011979
77.677,63.7768,0.011979
77.708,63.7705,0.011979
77.739,63.7643,0.011979
77.770,63.7582,0.011979
77.800,63.7521,0.011979
77.831,63.7459,0.011969
77.861,63.7399,0.011969
77.893,63.7335,0.011969
77.924,63.7275,0.011969
77.956,63.7210,0.011969
77.987,63.7148,0.011969
78.017,63.7086,0.011969
78.048,63.7025,0.012026
78.079,63.6963,0.012026
78.110,63.6901,0.012026
78.142,63.6837,0.012026
78.173,63.6775,0.012026
78.205,63.6712,0.012026
78.235,63.6652,0.012026
78.266,63.6587,0.012026
78.297,63.6527,0.012073
78.329,63.6463,0.012073
78.359,63.6403,0.012073
78.392,63.6338,0.012073
78.422,63.6277,0.012073
78.453,63.6214,0.012073
78.483,63.6156,0.012073
78.514,63.6094,0.012073
78.545,63.6033,0.012082
78.576,63.5969,0.012082
78.607,63.5907,0.012082
78.639,63.5845,0.012082
78.670,63.5783,0.012082
78.701,63.5719,0.012082
78.731,63.5661,0.012082
78.762,63.5597,0.012082
78.793,63.5536,0.012073
78.825,63.5471,0.012073
78.856,63.5408,0.012073
78.887,63.5347,0.012073
78.918,63.5285,0.012073
78.948,63.5224,0.012073
78.979,63.5164,0.012073
79.010,63.5100,0.012073
79.041,63.5041,0.012073
79.072,63.4978,0.012073
79.103,63.4916,0.012073
79.135,63.4852,0.012073
79.165,63.4789,0.012073
79.196,63.4728,0.012073
79.228,63.4666,0.012073
79.259,63.4604,0.012073
79.290,63.4542,0.012054
79.321,63.4482,0.012054
79.352,63.4418,0.012054
79.383,63.4356,0.012054
79.413,63.4296,0.012054
79.444,63.4234,0.012054
79.475,63.4172,0.012054
79.506,63.4110,0.012054
79.539,63.4045,0.012035
79.569,63.3982,0.012035
79.601,63.3920,0.012035
79.633,63.3857,0.012035
79.664,63.3793,0.012035
79.695,63.3732,0.012035
79.727,63.3668,0.012035
79.757,63.3607,0.012035
79.788,63.3544,0.012035
79.819,63.3482,0.012035
79.850,63.3422,0.012045
79.882,63.3358,0.012045
79.914,63.3293,0.012045
79.945,63.3231,0.012045
79.975,63.3172,0.012045
80.006,63.3110,0.012045
80.037,63.3048,0.012045
80.068,63.2983,0.012045
80.099,63.2923,0.012026
80.130,63.2862,0.012026
80.162,63.2799,0.012026
80.192,63.2737,0.012026
80.223,63.2676,0.012026
80.254,63.2614,0.012026
80.286,63.2551,0.012026
80.317,63.2489,0.012026
80.347,63.2427,0.011998
80.378,63.2367,0.011998
80.410,63.2301,0.011998
80.440,63.2240,0.011998
80.471,63.2180,0.011998
80.502,63.2118,0.011998
80.533,63.2056,0.012026
80.564,63.1995,0.012026
80.596,63.1929,0.012026
80.626,63.1871,0.012026
80.657,63.1806,0.012026
80.689,63.1744,0.012026
80.719,63.1682,0.012026
80.751,63.1620,0.012026
80.783,63.1555,0.012026
80.814,63.1493,0.012026
80.846,63.1429,0.012045
80.876,63.1369,0.012045
80.907,63.1308,0.012045
80.938,63.1246,0.012045
80.969,63.1185,0.012045
81.000,63.1121,0.012045
81.031,63.1061,0.012045
81.062,63.0997,0.012045
81.093,63.0936,0.012045
81.124,63.0874,0.012045
81.154,63.0813,0.012045
81.185,63.0752,0.012045
81.216,63.0691,0.012045
81.247,63.0627,0.012045
81.278,63.0566,0.012045
81.309,63.0503,0.012045
81.339,63.0443,0.012026
81.370,63.0381,0.012026
81.403,63.0316,0.012026
81.433,63.0256,0.012026
81.464,63.0194,0.012026
81.496,63.0131,0.012026
81.528,63.0066,0.012026
81.558,63.0006,0.012016
81.589,62.9945,0.012016
81.620,62.9882,0.012016
81.651,62.9822,0.012016
81.683,62.9755,0.012016
81.715,62.9692,0.012016
81.745,62.9631,0.012016
81.775,62.9571,0.012016
81.807,62.9506,0.012016
81.838,62.9445,0.012016
81.870,62.9379,0.012016
81.902,62.9318,0.012016
81.932,62.9256,0.012016
81.964,62.9192,0.012016
81.994,62.9132,0.012016
82.025,62.9072,0.012016
82.056,62.9010,0.012016
82.087,62.8948,0.012016
82.117,62.8887,0.012016
82.149,62.8825,0.012016
82.180,62.8762,0.012016
82.211,62.8700,0.012016
82.242,62.8638,0.012016
82.273,62.8577,0.012016
82.304,62.8514,0.012016
82.335,62.8452,0.012063
82.367,62.8390,0.012063
82.397,62.8328,0.012063
82.428,62.8266,0.012063
82.459,62.8204,0.012063
82.490,62.8140,0.012063
82.522,62.8078,0.012063
82.553,62.8015,0.012063
82.584,62.7955,0.012063
82.615,62.7892,0.012063
82.646,62.7828,0.012063
82.678,62.7767,0.012063
82.709,62.7705,0.012063
82.740,62.7642,0.012063
82.771,62.7581,0.012063
82.802,62.7518,0.012063
82.834,62.7454,0.011998
82.864,62.7392,0.011998
82.895,62.7332,0.011998
82.926,62.7270,0.011998
82.957,62.7208,0.011998
82.988,62.7147,0.011998
83.019,62.7082,0.011998
83.050,62.7022,0.011960
83.082,62.6958,0.011960
83.113,62.6895,0.011960
83.144,62.6834,0.011960
83.174,62.6774,0.011960
83.208,62.6707,0.011960
83.237,62.6647,0.011960
83.269,62.6584,0.011960
83.299,62.6524,0.012007
83.331,62.6460,0.012007
83.362,62.6396,0.012007
83.392,62.6339,0.012007
83.422,62.6277,0.012007
83.453,62.6217,0.012007
83.484,62.6155,0.012007
83.515,62.6091,0.012007
83.546,62.6028,0.012016
83.576,62.5971,0.012016
83.607,62.5907,0.012016
83.638,62.5846,0.012016
83.669,62.5784,0.012016
83.700,62.5721,0.012016
83.731,62.5660,0.012016
83.764,62.5595,0.012016
83.795,62.5532,0.011998
83.824,62.5473,0.011998
83.856,62.5411,0.011998
83.886,62.5348,0.011998
83.917,62.5286,0.011998
83.949,62.5223,0.011998
83.980,62.5162,0.011998
84.011,62.5099,0.011998
84.043,62.5036,0.011998
84.074,62.4973,0.012035
84.106,62.4909,0.012035
84.136,62.4851,0.012035
84.166,62.4789,0.012035
84.197,62.4728,0.012035
84.228,62.4664,0.012035
84.259,62.4606,0.012035
84.289,62.4544,0.012035
84.321,62.4480,0.012063
84.352,62.4417,0.012063
84.383,62.4353,0.012063
84.414,62.4293,0.012063
84.446,62.4230,0.012063
84.477,62.4169,0.012063
84.508,62.4106,0.012063
84.540,62.4043,0.012063
84.570,62.3982,0.012063
84.602,62.3917,0.012063
84.633,62.3856,0.012063
84.664,62.3793,0.012063
84.696,62.3730,0.012063
84.726,62.3669,0.012063
84.756,62.3608,0.012063
84.788,62.3546,0.012026
84.819,62.3484,0.012026
84.850,62.3422,0.012026
84.881,62.3360,0.012026
84.912,62.3297,0.012026
84.942,62.3238,0.012026
84.975,62.3173,0.012026
85.005,62.3111,0.012026
85.036,62.3049,0.011998
85.068,62.2987,0.011998
85.099,62.2923,0.011998
85.131,62.2861,0.011998
85.162,62.2797,0.011998
85.193,62.2737,0.011998
85.224,62.2673,0.011998
85.255,62.2613,0.011998
85.286,62.2549,0.011998
85.318,62.2486,0.011998
85.348,62.2427,0.011998
85.380,62.2362,0.011998
85.410,62.2302,0.011998
85.441,62.2242,0.011998
85.472,62.2180,0.011998
85.503,62.2116,0.011998
85.534,62.2053,0.011998
85.564,62.1992,0.011998
85.596,62.1930,0.011998
85.627,62.1868,0.011998
85.659,62.1803,0.011998
85.690,62.1743,0.011998
85.721,62.1681,0.011998
85.752,62.1618,0.011998
85.783,62.1556,0.011998
85.814,62.1494,0.011998
85.845,62.1432,0.011969
85.876,62.1370,0.011969
85.907,62.1308,0.011969
85.939,62.1245,0.011969
85.970,62.1183,0.011969
86.001,62.1119,0.011969
86.031,62.1061,0.011969
86.062,62.0997,0.011988
86.094,62.0933,0.011988
86.125,62.0871,0.011988
86.155,62.0812,0.011988
86.186,62.0748,0.011988
86.217,62.0688,0.011988
86.249,62.0624,0.011988
86.280,62.0562,0.011988
86.312,62.0497,0.011988
86.344,62.0435,0.011979
86.375,62.0371,0.011979
86.405,62.0312,0.011979
86.436,62.0251,0.011979
86.468,62.0187,0.011979
86.497,62.0127,0.011979
86.528,62.0065,0.011979
86.559,62.0003,0.011969
86.590,61.9942,0.011969
86.621,61.9880,0.011969
86.653,61.9817,0.011969
86.683,61.9756,0.011969
86.714,61.9696,0.011969
86.745,61.9633,0.011969
86.776,61.9570,0.011969
86.807,61.9507,0.011969
86.839,61.9445,0.011979
86.870,61.9383,0.011979
86.901,61.9320,0.011979
86.932,61.9258,0.011979
86.963,61.9197,0.011979
86.994,61.9132,0.011979
87.025,61.9072,0.011979
87.056,61.9010,0.011960
87.086,61.8950,0.011960
87.117,61.8888,0.011960
87.148,61.8825,0.011960
87.178,61.8765,0.011960
87.209,61.8706,0.011960
87.240,61.8643,0.011960
87.271,61.8581,0.011960
87.301,61.8521,0.011960
87.331,61.8459,0.012016
87.363,61.8396,0.012016
87.394,61.8335,0.012016
87.425,61.8273,0.012016
87.456,61.8208,0.012016
87.488,61.8144,0.012016
87.519,61.8083,0.012016
87.550,61.8022,0.012016
87.581,61.7960,0.012016
87.611,61.7900,0.012016
87.643,61.7836,0.012016
87.674,61.7776,0.012016
87.705,61.7711,0.012016
87.736,61.7652,0.012016
87.767,61.7588,0.012016
87.797,61.7528,0.011998
87.828,61.7464,0.011998
87.859,61.7405,0.011998
87.890,61.7342,0.011998
87.922,61.7280,0.011998
87.954,61.7215,0.011998
87.983,61.7157,0.011998
88.014,61.7095,0.011998
88.045,61.7031,0.012045
88.077,61.6968,0.012045
88.108,61.6905,0.012045
88.139,61.6844,0.012045
88.170,61.6782,0.012045
88.200,61.6721,0.012045
88.232,61.6659,0.012045
88.263,61.6596,0.012045
88.294,61.6535,0.012045
88.325,61.6472,0.012054
88.357,61.6409,0.012054
88.388,61.6347,0.012054
88.419,61.6285,0.012054
88.451,61.6220,0.012054
88.482,61.6160,0.012054
88.513,61.6096,0.012054
88.543,61.6037,0.012035
88.573,61.5975,0.012035
88.605,61.5913,0.012035
88.636,61.5848,0.012035
88.667,61.5788,0.012035
88.698,61.5726,0.012035
88.730,61.5661,0.012035
88.760,61.5601,0.012035
88.792,61.5539,0.012007
88.823,61.5475,0.012007
88.853,61.5415,0.012007
88.885,61.5352,0.012007
88.917,61.5290,0.012007
88.948,61.5227,0.012007
88.979,61.5165,0.012007
89.010,61.5103,0.012007
89.041,61.5041,0.012016
89.072,61.4979,0.012016
89.103,61.4917,0.012016
89.133,61.4855,0.012016
89.164,61.4794,0.012016
89.195,61.4732,0.012016
89.227,61.4668,0.012016
89.258,61.4606,0.012016
89.290,61.4541,0.012045
89.321,61.4479,0.012045
89.353,61.4417,0.012045
89.387,61.4350,0.012045
89.415,61.4292,0.012045
89.446,61.4230,0.012045
89.476,61.4170,0.012045
89.509,61.4105,0.012045
89.539,61.4045,0.012045
89.570,61.3982,0.012007
89.600,61.3921,0.012007
89.632,61.3858,0.012007
89.662,61.3797,0.012007
89.694,61.3734,0.012007
89.724,61.3674,0.012007
89.757,61.3607,0.012007
89.787,61.3548,0.012007
89.819,61.3486,0.011979
89.849,61.3424,0.011979
89.881,61.3362,0.011979
89.912,61.3297,0.011979
89.943,61.3238,0.011979
89.974,61.3174,0.011979
90.004,61.3115,0.011979
90.037,61.3049,0.011979
90.067,61.2990,0.011998
90.098,61.2926,0.011998
90.129,61.2866,0.011998
90.160,61.2802,0.011998
90.192,61.2738,0.011998
90.222,61.2678,0.011998
90.253,61.2617,0.011998
90.285,61.2560,0.011998
90.317,61.2512,0.012045
90.347,61.2474,0.012045
90.377,61.2441,0.012045
90.408,61.2417,0.012045
90.439,61.2397,0.012045
90.471,61.2386,0.012045
90.503,61.2382,0.012045
90.534,61.2382,0.012045
90.565,61.2382,0.012026
90.596,61.2382,0.012026
90.626,61.2382,0.012026
90.658,61.2382,0.012026
90.689,61.2382,0.012026
90.720,61.2382,0.012026
90.751,61.2382,0.012026
90.782,61.2382,0.012026
90.814,61.2382,0.011998
90.844,61.2382,0.011998
90.875,61.2382,0.011998
90.906,61.2382,0.011998
90.937,61.2382,0.011998
90.967,61.2382,0.011998
90.998,61.2382,0.011998
91.030,61.2382,0.011998
91.061,61.2382,0.012045
91.092,61.2382,0.012045
91.125,61.2382,0.012045
91.155,61.2388,0.012045
91.185,61.2400,0.012045
91.216,61.2420,0.012045
91.248,61.2449,0.012045
91.279,61.2484,0.012045
91.309,61.2524,0.012035
91.340,61.2573,0.012035
91.373,61.2635,0.012035
91.402,61.2693,0.012035
91.433,61.2753,0.012035
91.464,61.2816,0.012035
91.495,61.2877,0.012035
91.526,61.2940,0.012016
91.558,61.3003,0.012016
91.588,61.3064,0.012016
91.619,61.3126,0.012016
91.650,61.3188,0.012016
91.681,61.3250,0.012016
91.712,61.3312,0.012016
91.743,61.3374,0.012016
91.773,61.3435,0.012016
91.805,61.3498,0.012007
91.836,61.3560,0.012007
91.868,61.3626,0.012007
91.900,61.3687,0.012007
91.930,61.3749,0.012007
91.962,61.3811,0.012007
91.993,61.3875,0.012007
92.024,61.3936,0.012007
92.055,61.3998,0.011988
92.086,61.4059,0.011988
92.117,61.4122,0.011988
92.149,61.4185,0.011988
92.180,61.4247,0.011988
92.212,61.4312,0.011988
92.242,61.4371,0.011988
92.273,61.4433,0.011988
92.304,61.4495,0.011979
92.334,61.4556,0.011979
92.365,61.4617,0.011979
92.395,61.4676,0.011979
92.426,61.4740,0.011979
92.458,61.4803,0.011979
92.489,61.4865,0.011979
92.520,61.4928,0.011979
92.551,61.4990,0.011979
92.582,61.5051,0.011988
92.613,61.5114,0.011988
92.644,61.5176,0.011988
92.675,61.5238,0.011988
92.706,61.5301,0.011988
92.737,61.5362,0.011988
92.768,61.5425,0.011988
92.800,61.5487,0.011988
92.831,61.5551,0.011988
92.863,61.5614,0.011988
92.894,61.5676,0.011988
92.925,61.5738,0.011988
92.956,61.5801,0.011988
92.987,61.5862,0.011988
93.019,61.5926,0.011988
93.050,61.5988,0.011988
93.082,61.6052,0.012026
93.112,61.6111,0.012026
93.143,61.6174,0.012026
93.175,61.6236,0.012026
93.205,61.6297,0.012026
93.236,61.6361,0.012026
93.268,61.6423,0.012026
93.298,61.6485,0.012045
93.329,61.6545,0.012045
93.360,61.6609,0.012045
93.390,61.6668,0.012045
93.422,61.6733,0.012045
93.453,61.6795,0.012045
93.485,61.6859,0.012045
93.517,61.6921,0.012045
93.548,61.6986,0.012045
93.580,61.7046,0.012035
93.612,61.7111,0.012035
93.641,61.7170,0.012035
93.673,61.7234,0.012035
93.705,61.7298,0.012035
93.736,61.7359,0.012035
93.767,61.7421,0.012035
93.798,61.7484,0.012035
93.829,61.7545,0.012035
93.860,61.7608,0.012035
93.892,61.7671,0.012035
93.923,61.7733,0.012035
93.954,61.7795,0.012035
93.985,61.7857,0.012035
94.016,61.7918,0.012035
94.047,61.7980,0.012035
94.078,61.8044,0.011998
94.109,61.8104,0.011998
94.139,61.8166,0.011998
94.170,61.8228,0.011998
94.201,61.8289,0.011998
94.232,61.8351,0.011998
94.263,61.8413,0.011998
94.294,61.8475,0.011998
94.325,61.8538,0.011998
94.356,61.8599,0.011998
94.387,61.8661,0.011998
94.418,61.8723,0.011998
94.449,61.8785,0.011998
94.479,61.8846,0.011998
94.510,61.8908,0.011998
94.541,61.8969,0.011998
94.572,61.9032,0.012026
94.604,61.9095,0.012026
94.635,61.9158,0.012026
94.666,61.9219,0.012026
94.697,61.9280,0.012026
94.727,61.9341,0.012026
94.758,61.9403,0.012026
94.790,61.9469,0.012026
94.821,61.9528,0.011979
94.852,61.9591,0.011979
94.883,61.9653,0.011979
94.915,61.9718,0.011979
94.945,61.9777,0.011979
94.977,61.9842,0.011979
95.006,61.9899,0.011979
95.037,61.9962,0.011979
95.070,62.0027,0.011969
95.099,62.0085,0.011969
95.129,62.0146,0.011969
95.161,62.0209,0.011969
95.192,62.0272,0.011969
95.224,62.0334,0.011969
95.255,62.0396,0.011969
95.286,62.0459,0.011988
95.317,62.0520,0.011988
95.348,62.0585,0.011988
95.379,62.0646,0.011988
95.410,62.0708,0.011988
95.440,62.0767,0.011988
95.471,62.0830,0.011988
95.502,62.0892,0.011988
95.533,62.0953,0.011988
95.564,62.1015,0.011979
95.596,62.1077,0.011979
95.627,62.1142,0.011979
95.659,62.1204,0.011979
95.690,62.1268,0.011979
95.721,62.1328,0.011979
95.752,62.1392,0.011979
95.784,62.1454,0.011969
95.815,62.1517,0.011969
95.845,62.1577,0.011969
95.876,62.1640,0.011969
95.908,62.1702,0.011969
95.939,62.1765,0.011969
95.970,62.1827,0.011969
96.001,62.1889,0.011969
96.032,62.1953,0.011969
96.062,62.2011,0.011979
96.093,62.2073,0.011979
96.124,62.2135,0.011979
96.155,62.2197,0.011979
96.186,62.2259,0.011979
96.217,62.2320,0.011979
96.248,62.2384,0.011979
96.279,62.2445,0.011979
96.309,62.2506,0.011998
96.340,62.2567,0.011998
96.373,62.2632,0.011998
96.402,62.2691,0.011998
96.433,62.2753,0.011998
96.465,62.2817,0.011998
96.496,62.2879,0.011998
96.527,62.2941,0.011998
96.558,62.3003,0.011998
96.590,62.3068,0.011969
96.620,62.3127,0.011969
96.650,62.3188,0.011969
96.681,62.3249,0.011969
96.712,62.3312,0.011969
96.744,62.3375,0.011969
96.775,62.3437,0.011969
96.806,62.3499,0.011988
96.837,62.3561,0.011988
96.867,62.3622,0.011988
96.899,62.3685,0.011988
96.930,62.3746,0.011988
96.960,62.3808,0.011988
96.992,62.3873,0.011988
97.023,62.3933,0.011988
97.054,62.3997,0.011979
97.085,62.4057,0.011979
97.117,62.4126,0.011979
97.148,62.4183,0.011979
97.180,62.4248,0.011979
97.210,62.4307,0.011979
97.241,62.4370,0.011979
97.272,62.4431,0.011979
97.304,62.4494,0.011979
97.335,62.4558,0.011979
97.366,62.4618,0.011979
97.396,62.4679,0.011979
97.427,62.4741,0.011979
97.458,62.4804,0.011979
97.490,62.4866,0.011979
97.521,62.4929,0.011979
97.552,62.4990,0.011979
97.583,62.5052,0.012007
97.615,62.5117,0.012007
97.646,62.5179,0.012007
97.677,62.5242,0.012007
97.708,62.5303,0.012007
97.739,62.5365,0.012007
97.769,62.5425,0.012007
97.801,62.5487,0.012007
97.832,62.5552,0.011998
97.863,62.5614,0.011998
97.895,62.5678,0.011998
97.925,62.5738,0.011998
97.956,62.5800,0.011998
97.987,62.5863,0.011998
98.018,62.5923,0.011998
98.050,62.5987,0.011998
98.082,62.6050,0.011998
98.113,62.6112,0.011998
98.144,62.6176,0.011998
98.175,62.6237,0.011998
98.206,62.6297,0.011998
98.236,62.6359,0.011998
98.267,62.6421,0.011998
98.298,62.6485,0.011998
98.329,62.6545,0.012063
98.360,62.6607,0.012063
98.390,62.6668,0.012063
98.421,62.6729,0.012063
98.453,62.6792,0.012063
98.483,62.6855,0.012063
98.516,62.6919,0.012063
98.547,62.6979,0.012063
98.579,62.7044,0.012026
98.608,62.7102,0.012026
98.640,62.7167,0.012026
98.671,62.7229,0.012026
98.702,62.7291,0.012026
98.733,62.7354,0.012026
98.764,62.7415,0.012026
98.796,62.7479,0.012026
98.828,62.7541,0.012035
98.858,62.7602,0.012035
98.889,62.7664,0.012035
98.920,62.7726,0.012035
98.951,62.7789,0.012035
98.982,62.7851,0.012035
99.013,62.7913,0.012035
99.045,62.7978,0.012035
99.075,62.8037,0.012063
99.106,62.8099,0.012063
99.136,62.8159,0.012063
99.167,62.8221,0.012063
99.199,62.8284,0.012063
99.229,62.8345,0.012063
99.260,62.8408,0.012063
99.291,62.8470,0.012063
99.323,62.8533,0.012035
99.354,62.8593,0.012035
99.384,62.8655,0.012035
99.414,62.8714,0.012035
99.446,62.8779,0.012035
99.477,62.8840,0.012035
99.508,62.8903,0.012035
99.539,62.8965,0.012016
99.571,62.9028,0.012016
99.602,62.9090,0.012016
99.632,62.9151,0.012016
99.664,62.9216,0.012016
99.695,62.9276,0.012016
99.725,62.9337,0.012016
99.757,62.9400,0.012016
99.787,62.9461,0.012035
99.819,62.9526,0.012035
99.850,62.9585,0.012035
99.881,62.9648,0.012035
99.912,62.9709,0.012035
99.942,62.9771,0.012035
99.974,62.9834,0.012035
100.005,62.9896,0.012035
100.037,62.9960,0.012026
100.068,63.0023,0.012026
100.100,63.0086,0.012026
100.129,63.0146,0.012026
100.162,63.0211,0.012026
100.192,63.0271,0.012026
100.224,63.0334,0.012026
100.253,63.0393,0.012026
100.285,63.0456,0.012026
100.316,63.0518,0.011969
100.348,63.0584,0.011969
100.379,63.0644,0.011969
100.410,63.0706,0.011969
100.441,63.0768,0.011969
100.471,63.0830,0.011969
100.503,63.0894,0.011969
100.533,63.0953,0.011969
100.565,63.1016,0.011969
100.596,63.1078,0.011969
100.627,63.1140,0.011969
100.658,63.1204,0.011969
100.690,63.1266,0.011969
100.721,63.1329,0.011969
100.753,63.1392,0.011969
100.783,63.1453,0.011969
100.813,63.1515,0.011969
100.845,63.1577,0.011988
100.877,63.1640,0.011988
100.909,63.1703,0.011988
100.940,63.1767,0.011988
100.971,63.1830,0.011988
101.002,63.1891,0.011988
101.032,63.1952,0.011988
101.063,63.2012,0.011988
101.093,63.2073,0.012026
101.124,63.2135,0.012026
101.155,63.2197,0.012026
101.186,63.2259,0.012026
101.215,63.2317,0.012026
101.246,63.2378,0.012026
101.278,63.2443,0.012026
101.308,63.2505,0.012026
101.340,63.2565,0.012054
101.371,63.2630,0.012054
101.402,63.2689,0.012054
101.433,63.2753,0.012054
101.464,63.2815,0.012054
101.494,63.2877,0.012054
101.526,63.2939,0.012054
101.556,63.2998,0.012054
101.588,63.3063,0.012082
101.619,63.3124,0.012082
101.650,63.3188,0.012082
101.680,63.3246,0.012082
101.712,63.3312,0.012082
101.743,63.3373,0.012082
101.774,63.3436,0.012082
101.806,63.3498,0.012073
101.836,63.3559,0.012073
101.868,63.3622,0.012073
101.898,63.3683,0.012073
101.930,63.3747,0.012073
101.961,63.3808,0.012073
101.991,63.3868,0.012073
102.022,63.3930,0.012073
102.053,63.3993,0.012073
102.085,63.4056,0.012045
102.116,63.4117,0.012045
102.146,63.4180,0.012045
102.178,63.4241,0.012045
102.209,63.4305,0.012045
102.241,63.4367,0.012045
102.272,63.4429,0.012045
102.303,63.4493,0.012045
102.334,63.4556,0.012045
102.366,63.4618,0.012045
102.396,63.4680,0.012045
102.427,63.4740,0.012045
102.458,63.4803,0.012045
102.489,63.4865,0.012045
102.520,63.4926,0.012045
102.550,63.4989,0.012045
102.581,63.5048,0.012045
102.612,63.5113,0.012045
102.644,63.5174,0.012045
102.674,63.5236,0.012045
102.705,63.5298,0.012045
102.736,63.5360,0.012045
102.767,63.5420,0.012045
102.799,63.5485,0.012007
102.830,63.5547,0.012007
102.861,63.5611,0.012007
102.893,63.5672,0.012007
102.924,63.5737,0.012007
102.956,63.5800,0.012007
102.988,63.5862,0.012007
103.019,63.5924,0.012007
103.050,63.5986,0.011998
103.081,63.6049,0.011998
103.111,63.6109,0.011998
103.142,63.6170,0.011998
103.172,63.6232,0.011998
103.204,63.6296,0.011998
103.234,63.6356,0.011998
103.266,63.6420,0.011998
103.297,63.6480,0.012035
103.328,63.6542,0.012035
103.358,63.6602,0.012035
103.390,63.6667,0.012035
103.421,63.6728,0.012035
103.453,63.6791,0.012035
103.484,63.6854,0.012035
103.515,63.6917,0.012035
103.546,63.6981,0.012054
103.578,63.7041,0.012054
103.609,63.7103,0.012054
103.639,63.7164,0.012054
103.670,63.7226,0.012054
103.701,63.7289,0.012054
103.732,63.7351,0.012054
103.764,63.7415,0.012054
103.795,63.7477,0.012054
103.826,63.7540,0.012054
103.857,63.7601,0.012054
103.887,63.7663,0.012054
103.919,63.7724,0.012054
103.950,63.7788,0.012054
103.981,63.7848,0.012054
104.011,63.7908,0.012054
104.043,63.7972,0.012035
104.075,63.8036,0.012035
104.105,63.8098,0.012035
104.137,63.8160,0.012035
104.169,63.8223,0.012035
104.201,63.8288,0.012035
104.231,63.8349,0.012035
104.262,63.8413,0.012035
104.293,63.8473,0.012035
104.324,63.8535,0.011988
104.355,63.8595,0.011988
104.386,63.8657,0.011988
104.416,63.8719,0.011988
104.447,63.8780,0.011988
104.478,63.8842,0.011988
104.509,63.8904,0.011988
104.541,63.8968,0.011998
104.572,63.9031,0.011998
104.603,63.9093,0.011998
104.634,63.9155,0.011998
104.666,63.9219,0.011998
104.696,63.9280,0.011998
104.727,63.9341,0.011998
104.759,63.9404,0.011998
104.790,63.9466,0.011998
104.821,63.9531,0.011998
104.853,63.9595,0.011998
104.885,63.9658,0.011998
104.915,63.9717,0.011998
104.946,63.9779,0.011998
104.977,63.9841,0.011998
105.009,63.9905,0.011998
105.039,63.9965,0.011998
105.070,64.0027,0.011998
105.101,64.0089,0.012035
105.133,64.0154,0.012035
105.165,64.0216,0.012035
105.196,64.0278,0.012035
105.228,64.0342,0.012035
105.259,64.0405,0.012035
105.290,64.0467,0.012054
105.321,64.0529,0.012054
105.352,64.0590,0.012054
105.382,64.0651,0.012054
105.413,64.0711,0.012054
105.444,64.0775,0.012054
105.476,64.0838,0.012054
105.507,64.0901,0.012054
105.537,64.0961,0.012054
105.569,64.1025,0.012054
105.600,64.1086,0.011998
105.632,64.1152,0.011998
105.663,64.1212,0.011998
105.694,64.1274,0.011998
105.725,64.1336,0.011998
105.756,64.1398,0.011998
105.786,64.1460,0.011998
105.817,64.1521,0.012007
105.849,64.1584,0.012007
105.880,64.1646,0.012007
105.911,64.1708,0.012007
105.941,64.1769,0.012007
105.973,64.1831,0.012007
106.003,64.1892,0.012007
106.034,64.1955,0.012007
106.065,64.2016,0.012026
106.096,64.2080,0.012026
106.128,64.2141,0.012026
106.159,64.2197,0.012026
106.190,64.2245,0.012026
106.221,64.2286,0.012026
106.252,64.2320,0.012026
106.283,64.2347,0.012026
106.314,64.2366,0.012063
106.345,64.2377,0.012063
106.376,64.2382,0.012063
106.407,64.2382,0.012063
106.438,64.2382,0.012063
106.469,64.2382,0.012063
106.500,64.2382,0.012063
106.532,64.2382,0.012063
106.563,64.2382,0.012063
106.594,64.2382,0.012101
106.625,64.2382,0.012101
106.657,64.2382,0.012101
106.688,64.2382,0.012101
106.718,64.2382,0.012101
106.748,64.2382,0.012101
106.779,64.2382,0.012101
106.810,64.2382,0.012063
106.840,64.2382,0.012063
106.871,64.2382,0.012063
106.902,64.2382,0.012063
106.933,64.2382,0.012063
106.964,64.2382,0.012063
106.995,64.2382,0.012063
107.026,64.2382,0.012063
107.057,64.2382,0.012007
107.089,64.2382,0.012007
107.119,64.2382,0.012007
107.150,64.2382,0.012007
107.181,64.2382,0.012007
107.212,64.2382,0.012007
107.243,64.2382,0.012007
107.274,64.2382,0.012007
107.305,64.2382,0.012007
107.337,64.2382,0.011913
107.368,64.2382,0.011913
107.399,64.2382,0.011913
107.431,64.2382,0.011913
107.462,64.2382,0.011913
107.493,64.2382,0.011913
107.525,64.2382,0.011913
107.556,64.2382,0.011913
107.587,64.2382,0.011903
107.618,64.2382,0.011903
107.649,64.2382,0.011903
107.680,64.2382,0.011903
107.711,64.2382,0.011903
107.743,64.2382,0.011903
107.774,64.2382,0.011903
107.805,64.2382,0.011903
107.837,64.2382,0.011979
107.868,64.2382,0.011979
107.899,64.2382,0.011979
107.929,64.2382,0.011979
107.961,64.2382,0.011979
107.992,64.2382,0.011979
108.022,64.2382,0.011979
108.054,64.2382,0.011979
108.085,64.2382,0.012016
108.116,64.2382,0.012016
108.148,64.2382,0.012016
108.180,64.2382,0.012016
108.210,64.2382,0.012016
108.241,64.2382,0.012016
108.273,64.2382,0.012016
108.303,64.2382,0.012016
108.334,64.2382,0.012016
108.365,64.2382,0.012016
108.396,64.2382,0.012016
108.427,64.2382,0.012016
108.459,64.2382,0.012016
108.491,64.2382,0.012016
108.521,64.2382,0.012016
108.552,64.2382,0.012045
108.584,64.2382,0.012045
108.615,64.2382,0.012045
108.646,64.2382,0.012045
108.677,64.2382,0.012045
108.709,64.2382,0.012045
108.739,64.2382,0.012045
108.770,64.2382,0.012045
108.800,64.2382,0.012026
108.832,64.2382,0.012026
108.862,64.2382,0.012026
108.893,64.2382,0.012026
108.924,64.2382,0.012026
108.955,64.2382,0.012026
108.987,64.2382,0.012026
109.017,64.2382,0.012026
109.049,64.2382,0.011979
109.080,64.2382,0.011979
109.112,64.2382,0.011979
109.144,64.2382,0.011979
109.175,64.2382,0.011979
109.206,64.2382,0.011979
109.238,64.2382,0.011979
109.270,64.2382,0.011979
109.301,64.2382,0.011979
109.332,64.2382,0.012016
109.363,64.2382,0.012016
109.394,64.2382,0.012016
109.425,64.2382,0.012016
109.456,64.2382,0.012016
109.488,64.2382,0.012016
109.519,64.2382,0.012016
109.550,64.2382,0.012016
109.582,64.2382,0.012016
109.612,64.2382,0.012016
109.643,64.2382,0.012016
109.673,64.2382,0.012016
109.704,64.2382,0.012016
109.735,64.2382,0.012016
109.766,64.2382,0.012016
109.797,64.2382,0.012016
109.829,64.2382,0.012016
109.860,64.2382,0.011969
109.891,64.2382,0.011969
109.923,64.2382,0.011969
109.955,64.2382,0.011969
109.986,64.2382,0.011969
110.017,64.2382,0.011969
110.047,64.2382,0.011969
110.079,64.2382,0.011979
110.110,64.2382,0.011979
110.142,64.2382,0.011979
110.174,64.2382,0.011979
110.206,64.2382,0.011979
110.237,64.2382,0.011979
110.268,64.2382,0.011979
110.300,64.2382,0.011979
110.331,64.2382,0.012016
110.363,64.2382,0.012016
110.393,64.2382,0.012016
110.422,64.2382,0.012016
110.454,64.2382,0.012016
110.485,64.2382,0.012016
110.516,64.2382,0.012016
110.548,64.2382,0.012016
110.579,64.2382,0.011979
110.611,64.2382,0.011979
110.642,64.2382,0.011979
110.674,64.2382,0.011979
110.704,64.2382,0.011979
110.735,64.2382,0.011979
110.765,64.2382,0.011979
110.796,64.2378,0.011979
110.827,64.2367,0.012007
110.859,64.2348,0.012007
110.890,64.2322,0.012007
110.921,64.2289,0.012007
110.952,64.2248,0.012007
110.983,64.2201,0.012007
111.014,64.2145,0.012007
111.045,64.2085,0.012129
111.076,64.2021,0.012129
111.108,64.1958,0.012129
111.139,64.1897,0.012129
111.170,64.1831,0.012129
111.201,64.1772,0.012129
111.232,64.1710,0.012129
111.263,64.1646,0.012129
111.294,64.1586,0.012082
111.325,64.1522,0.012082
111.356,64.1462,0.012082
111.387,64.1400,0.012082
111.417,64.1339,0.012082
111.449,64.1276,0.012082
111.479,64.1216,0.012082
111.510,64.1153,0.012082
111.542,64.1091,0.011998
111.573,64.1025,0.011998
111.604,64.0966,0.011998
111.635,64.0904,0.011998
111.666,64.0843,0.011998
111.697,64.0778,0.011998
111.728,64.0719,0.011998
111.759,64.0657,0.011998
111.790,64.0592,0.012016
111.822,64.0530,0.012016
111.852,64.0469,0.012016
111.883,64.0407,0.012016
111.914,64.0345,0.012016
111.945,64.0285,0.012016
111.976,64.0223,0.012016
112.007,64.0159,0.012016
112.039,64.0096,0.012016
112.069,64.0035,0.011960
112.101,63.9973,0.011960
112.132,63.9910,0.011960
112.162,63.9851,0.011960
112.193,63.9787,0.011960
112.225,63.9725,0.011960
112.255,63.9663,0.011960
112.286,63.9601,0.011979
112.318,63.9538,0.011979
112.348,63.9478,0.011979
112.379,63.9416,0.011979
112.409,63.9354,0.011979
112.441,63.9292,0.011979
112.472,63.9229,0.011979
112.503,63.9167,0.011979
112.534,63.9105,0.011979
112.565,63.9044,0.011979
112.597,63.8979,0.012026
112.628,63.8918,0.012026
112.659,63.8855,0.012026
112.691,63.8793,0.012026
112.721,63.8731,0.012026
112.752,63.8670,0.012026
112.783,63.8609,0.012026
112.814,63.8546,0.012007
112.846,63.8483,0.012007
112.878,63.8417,0.012007
112.908,63.8357,0.012007
112.939,63.8297,0.012007
112.969,63.8235,0.012007
113.001,63.8173,0.012007
113.032,63.8109,0.012007
113.063,63.8048,0.012007
113.094,63.7986,0.012026
113.124,63.7926,0.012026
113.156,63.7862,0.012026
113.186,63.7802,0.012026
113.219,63.7737,0.012026
113.250,63.7674,0.012026
113.281,63.7612,0.012026
113.312,63.7550,0.012045
113.343,63.7488,0.012045
113.374,63.7426,0.012045
113.405,63.7364,0.012045
113.435,63.7304,0.012045
113.466,63.7242,0.012045
113.497,63.7182,0.012045
113.528,63.7118,0.012045
113.558,63.7059,0.012054
113.589,63.6996,0.012054
113.620,63.6935,0.012054
113.650,63.6873,0.012054
113.681,63.6812,0.012054
113.712,63.6751,0.012054
113.742,63.6689,0.012054
113.774,63.6626,0.012054
113.804,63.6564,0.011988
113.835,63.6503,0.011988
113.866,63.6444,0.011988
113.897,63.6379,0.011988
113.928,63.6318,0.011988
113.960,63.6254,0.011988
113.990,63.6196,0.011988
114.021,63.6131,0.011988
114.052,63.6070,0.011969
114.083,63.6008,0.011969
114.113,63.5948,0.011969
114.145,63.5884,0.011969
114.176,63.5824,0.011969
114.207,63.5759,0.011969
114.237,63.5699,0.011969
114.268,63.5637,0.011969
114.299,63.5577,0.011979
114.330,63.5515,0.011979
114.361,63.5453,0.011979
114.391,63.5392,0.011979
114.421,63.5330,0.011979
114.453,63.5268,0.011979
114.483,63.5208,0.011979
114.515,63.5144,0.011979
114.545,63.5084,0.011998
114.577,63.5019,0.011998
114.608,63.4958,0.011998
114.639,63.4896,0.011998
114.669,63.4836,0.011998
114.700,63.4773,0.011998
114.731,63.4712,0.011998
114.763,63.4648,0.011998
114.793,63.4588,0.011998
114.824,63.4526,0.012035
114.855,63.4464,0.012035
114.886,63.4401,0.012035
114.917,63.4339,0.012035
114.948,63.4278,0.012035
114.979,63.4217,0.012035
115.010,63.4154,0.012035
115.041,63.4091,0.011988
115.073,63.4029,0.011988
115.103,63.3969,0.011988
115.134,63.3906,0.011988
115.165,63.3845,0.011988
115.196,63.3782,0.011988
115.227,63.3720,0.011988
115.258,63.3657,0.011988
115.289,63.3596,0.011988
115.320,63.3533,0.011988
115.351,63.3471,0.011969
115.382,63.3410,0.011969
115.413,63.3347,0.011969
115.444,63.3286,0.011969
115.475,63.3225,0.011969
115.506,63.3162,0.011969
115.537,63.3099,0.011969
115.568,63.3038,0.011960
115.599,63.2976,0.011960
115.630,63.2914,0.011960
115.662,63.2851,0.011960
115.693,63.2789,0.011960
115.724,63.2725,0.011960
115.755,63.2665,0.011960
115.786,63.2601,0.011960
115.817,63.2541,0.011960
115.849,63.2476,0.011998
115.879,63.2417,0.011998
115.910,63.2353,0.011998
115.941,63.2293,0.011998
115.972,63.2228,0.011998
116.004,63.2167,0.011998
116.035,63.2104,0.011998
116.066,63.2042,0.012035
116.097,63.1979,0.012035
116.128,63.1919,0.012035
116.159,63.1856,0.012035
116.190,63.1795,0.012035
116.221,63.1732,0.012035
116.252,63.1669,0.012035
116.282,63.1610,0.012035
116.313,63.1547,0.012016
116.343,63.1489,0.012016
116.374,63.1427,0.012016
116.404,63.1366,0.012016
116.436,63.1302,0.012016
116.467,63.1241,0.012016
116.498,63.1179,0.012016
116.528,63.1118,0.012016
116.559,63.1056,0.012016
116.590,63.0995,0.012016
116.621,63.0932,0.012016
116.652,63.0871,0.012016
116.683,63.0808,0.012016
116.714,63.0745,0.012016
116.745,63.0685,0.012016
116.775,63.0623,0.012016
116.806,63.0561,0.011932
116.837,63.0499,0.011932
116.868,63.0436,0.011932
116.899,63.0376,0.011932
116.930,63.0313,0.011932
116.960,63.0252,0.011932
116.990,63.0194,0.011932
117.021,63.0132,0.011932
117.052,63.0070,0.011903
117.083,63.0008,0.011903
117.114,62.9946,0.011903
117.145,62.9884,0.011903
117.177,62.9821,0.011903
117.208,62.9758,0.011903
117.239,62.9696,0.011903
117.270,62.9634,0.011903
117.301,62.9573,0.011969
117.333,62.9508,0.011969
117.363,62.9446,0.011969
117.394,62.9387,0.011969
117.425,62.9323,0.011969
117.456,62.9261,0.011969
117.487,62.9196,0.011969
117.519,62.9136,0.011969
117.549,62.9078,0.011969
117.579,62.9016,0.012016
117.610,62.8954,0.012016
117.642,62.8891,0.012016
117.672,62.8830,0.012016
117.703,62.8767,0.012016
117.735,62.8705,0.012016
117.766,62.8643,0.012016
117.796,62.8582,0.012063
117.827,62.8521,0.012063
117.859,62.8457,0.012063
117.891,62.8393,0.012063
117.922,62.8329,0.012063
117.952,62.8269,0.012063
117.984,62.8207,0.012063
118.014,62.8145,0.012063
118.046,62.8083,0.012063
118.078,62.8016,0.012045
118.108,62.7958,0.012045
118.139,62.7896,0.012045
118.170,62.7834,0.012045
118.201,62.7772,0.012045
118.233,62.7710,0.012045
118.263,62.7648,0.012045
118.294,62.7586,0.012016
118.325,62.7523,0.012016
118.356,62.7463,0.012016
118.387,62.7400,0.012016
118.418,62.7338,0.012016
118.449,62.7277,0.012016
118.479,62.7215,0.012016
118.510,62.7153,0.012016
118.542,62.7090,0.011979
118.573,62.7029,0.011979
118.604,62.6963,0.011979
118.635,62.6904,0.011979
118.665,62.6844,0.011979
118.696,62.6782,0.011979
118.727,62.6720,0.011979
118.758,62.6658,0.011979
118.789,62.6596,0.011998
118.821,62.6534,0.011998
118.852,62.6471,0.011998
118.883,62.6408,0.011998
118.915,62.6346,0.011998
118.945,62.6284,0.011998
118.976,62.6223,0.011998
119.007,62.6162,0.011998
119.038,62.6096,0.011998
119.070,62.6036,0.011998
119.101,62.5974,0.011998
119.131,62.5913,0.011998
119.162,62.5851,0.011998
119.193,62.5788,0.011998
119.225,62.5726,0.011998
119.256,62.5662,0.011998
119.287,62.5602,0.011988
119.317,62.5539,0.011988
119.349,62.5477,0.011988
119.379,62.5415,0.011988
119.410,62.5355,0.011988
119.441,62.5291,0.011988
119.472,62.5231,0.011988
119.503,62.5169,0.011988
119.534,62.5107,0.011988
119.565,62.5045,0.012016
119.596,62.4981,0.012016
119.627,62.4922,0.012016
119.658,62.4859,0.012016
119.688,62.4799,0.012016
119.720,62.4735,0.012016
119.750,62.4674,0.012016
119.781,62.4612,0.012016
119.812,62.4551,0.012026
119.844,62.4487,0.012026
119.875,62.4425,0.012026
119.906,62.4361,0.012026
119.937,62.4302,0.012026
119.968,62.4238,0.012026
119.998,62.4178,0.012026
120.029,62.4116,0.012026
120.061,62.4052,0.012016
120.092,62.3990,0.012016
120.123,62.3930,0.012016
120.154,62.3866,0.012016
120.185,62.3804,0.012016
120.216,62.3744,0.012016
120.246,62.3682,0.012016
120.278,62.3618,0.012016
120.309,62.3555,0.012016
120.339,62.3496,0.012007
120.371,62.3434,0.012007
120.400,62.3375,0.012007
120.431,62.3312,0.012007
120.462,62.3250,0.012007
120.493,62.3189,0.012007
120.524,62.3127,0.012007
120.556,62.3064,0.012045
120.587,62.2999,0.012045
120.618,62.2939,0.012045
120.649,62.2877,0.012045
120.681,62.2812,0.012045
120.712,62.2751,0.012045
120.742,62.2691,0.012045
120.772,62.2630,0.012045
120.803,62.2567,0.012016
120.834,62.2506,0.012016
120.865,62.2443,0.012016
120.897,62.2382,0.012016
120.928,62.2319,0.012016
120.958,62.2258,0.012016
120.990,62.2196,0.012016
121.021,62.2134,0.012016
121.052,62.2072,0.012016
121.083,62.2009,0.011969
121.114,62.1947,0.011969
121.145,62.1886,0.011969
121.176,62.1823,0.011969
121.207,62.1760,0.011969
121.239,62.1696,0.011969
121.270,62.1635,0.011969
121.301,62.1573,0.011969
121.332,62.1509,0.012045
121.363,62.1449,0.012045
121.394,62.1387,0.012045
121.425,62.1324,0.012045
121.457,62.1262,0.012045
121.488,62.1199,0.012045
121.520,62.1135,0.012045
121.550,62.1073,0.012045
121.582,62.1011,0.012045
121.613,62.0948,0.012045
121.644,62.0887,0.012045
121.675,62.0825,0.012045
121.706,62.0763,0.012045
121.736,62.0701,0.012045
121.767,62.0639,0.012045
121.798,62.0579,0.012045
121.829,62.0515,0.011988
121.861,62.0453,0.011988
121.892,62.0390,0.011988
121.923,62.0328,0.011988
121.954,62.0266,0.011988
121.985,62.0206,0.011988
122.016,62.0143,0.011988
122.047,62.0080,0.011988
122.078,62.0018,0.011960
122.109,61.9956,0.011960
122.141,61.9894,0.011960
122.171,61.9832,0.011960
122.202,61.9771,0.011960
122.234,61.9707,0.011960
122.264,61.9647,0.011960
122.296,61.9584,0.011960
122.327,61.9521,0.011969
122.357,61.9460,0.011969
122.387,61.9400,0.011969
122.417,61.9340,0.011969
122.447,61.9279,0.011969
122.479,61.9217,0.011969
122.509,61.9156,0.011969
122.540,61.9094,0.011969
122.571,61.9033,0.012007
122.602,61.8971,0.012007
122.633,61.8909,0.012007
122.664,61.8847,0.012007
122.694,61.8786,0.012007
122.727,61.8721,0.012007
122.757,61.8661,0.012007
122.788,61.8598,0.012007
122.819,61.8536,0.011979
122.850,61.8474,0.011979
122.880,61.8414,0.011979
122.911,61.8352,0.011979
122.941,61.8293,0.011979
122.974,61.8227,0.011979
123.004,61.8166,0.011979
123.036,61.8103,0.011979
123.068,61.8040,0.012016
123.099,61.7977,0.012016
123.129,61.7915,0.012016
123.160,61.7854,0.012016
123.193,61.7787,0.012016
123.224,61.7726,0.012016
123.255,61.7665,0.012016
123.286,61.7603,0.012016
123.316,61.7542,0.012016
123.347,61.7479,0.012016
123.378,61.7418,0.012016
123.409,61.7358,0.012016
123.440,61.7294,0.012016
123.471,61.7232,0.012016
123.502,61.7169,0.012016
123.534,61.7107,0.011988
123.564,61.7048,0.011988
123.596,61.6982,0.011988
123.627,61.6920,0.011988
123.659,61.6857,0.011988
123.690,61.6796,0.011988
123.721,61.6731,0.011988
123.753,61.6668,0.011988
123.784,61.6606,0.011988
123.816,61.6542,0.011988
123.847,61.6481,0.011969
123.878,61.6418,0.011969
123.909,61.6358,0.011969
123.939,61.6297,0.011969
123.970,61.6233,0.011969
124.001,61.6172,0.011969
124.032,61.6110,0.011969
124.063,61.6048,0.011932
124.094,61.5986,0.011932
124.125,61.5924,0.011932
124.156,61.5863,0.011932
124.187,61.5800,0.011932
124.218,61.5739,0.011932
124.250,61.5673,0.011932
124.282,61.5611,0.011932
124.313,61.5549,0.011875
124.343,61.5489,0.011875
124.373,61.5428,0.011875
124.405,61.5366,0.011875
124.435,61.5305,0.011875
124.466,61.5243,0.011875
124.498,61.5180,0.011875
124.529,61.5115,0.011913
124.559,61.5057,0.011913
124.590,61.4994,0.011913
124.621,61.4933,0.011913
124.653,61.4870,0.011913
124.683,61.4808,0.011913
124.714,61.4746,0.011913
124.745,61.4685,0.011913
124.776,61.4623,0.011913
124.807,61.4561,0.011979
124.838,61.4499,0.011979
124.868,61.4437,0.011979
124.900,61.4375,0.011979
124.931,61.4310,0.011979
124.963,61.4250,0.011979
124.995,61.4185,0.011979
125.025,61.4124,0.011941
125.056,61.4062,0.011941
125.087,61.3999,0.011941
125.118,61.3940,0.011941
125.148,61.3876,0.011941
125.179,61.3818,0.011941
125.210,61.3755,0.011941
125.241,61.3694,0.011941
125.272,61.3632,0.011941
125.303,61.3569,0.011941
125.335,61.3505,0.012007
125.367,61.3442,0.012007
125.398,61.3378,0.012007
125.429,61.3317,0.012007
125.460,61.3256,0.012007
125.491,61.3193,0.012007
125.521,61.3132,0.012007
125.552,61.3071,0.012007
125.583,61.3008,0.012007
125.614,61.2946,0.012007
125.646,61.2882,0.012007
125.676,61.2822,0.012007
125.707,61.2760,0.012007
125.739,61.2697,0.012007
125.770,61.2635,0.012007
125.802,61.2572,0.011979
125.834,61.2507,0.011979
125.864,61.2448,0.011979
125.895,61.2384,0.011979
125.926,61.2324,0.011979
125.958,61.2258,0.011979
125.988,61.2198,0.011979
126.020,61.2135,0.011979
126.052,61.2077,0.011969
126.083,61.2026,0.011969
126.114,61.1985,0.011969
126.143,61.1951,0.011969
126.174,61.1923,0.011969
126.206,61.1902,0.011969
126.237,61.1888,0.011969
126.268,61.1882,0.011969
126.299,61.1882,0.011969
126.329,61.1882,0.011913
126.361,61.1882,0.011913
126.392,61.1882,0.011913
126.423,61.1882,0.011913
126.454,61.1885,0.011913
126.485,61.1894,0.011913
126.516,61.1911,0.011913
126.549,61.1938,0.011932
126.578,61.1968,0.011932
126.609,61.2006,0.011932
126.640,61.2053,0.011932
126.672,61.2107,0.011932
126.702,61.2167,0.011932
126.734,61.2232,0.011932
126.765,61.2294,0.011932
126.795,61.2353,0.011932
126.826,61.2414,0.011932
126.857,61.2476,0.011903
126.888,61.2538,0.011903
126.919,61.2600,0.011903
126.950,61.2661,0.011903
126.980,61.2723,0.011903
127.011,61.2785,0.011903
127.042,61.2846,0.011903
127.073,61.2910,0.011951
127.104,61.2971,0.011951
127.135,61.3032,0.011951
127.166,61.3095,0.011951
127.198,61.3158,0.011951
127.229,61.3221,0.011951
127.261,61.3283,0.011951
127.292,61.3346,0.011951
127.323,61.3409,0.011951
127.354,61.3471,0.012007
127.385,61.3532,0.012007
127.416,61.3596,0.012007
127.447,61.3654,0.012007
127.477,61.3716,0.012007
127.508,61.3777,0.012007
127.538,61.3840,0.012007
127.569,61.3901,0.011969
127.601,61.3964,0.011969
127.631,61.4026,0.011969
127.663,61.4087,0.011969
127.694,61.4150,0.011969
127.725,61.4212,0.011969
127.757,61.4274,0.011969
127.788,61.4340,0.011969
127.820,61.4402,0.011979
127.851,61.4464,0.011979
127.880,61.4524,0.011979
127.911,61.4585,0.011979
127.943,61.4648,0.011979
127.973,61.4709,0.011979
128.005,61.4772,0.011979
128.035,61.4833,0.011979
128.066,61.4893,0.011988
128.097,61.4957,0.011988
128.128,61.5020,0.011988
128.159,61.5081,0.011988
128.190,61.5143,0.011988
128.221,61.5205,0.011988
128.252,61.5265,0.011988
128.283,61.5329,0.011988
128.314,61.5389,0.011979
128.345,61.5454,0.011979
128.376,61.5513,0.011979
128.407,61.5577,0.011979
128.438,61.5637,0.011979
128.470,61.5702,0.011979
128.500,61.5763,0.011979
128.531,61.5826,0.011979
128.563,61.5888,0.011988
128.596,61.5954,0.011988
128.626,61.6013,0.011988
128.657,61.6078,0.011988
128.689,61.6140,0.011988
128.720,61.6202,0.011988
128.752,61.6265,0.011988
128.783,61.6330,0.011988
128.815,61.6392,0.012035
128.846,61.6455,0.012035
128.878,61.6517,0.012035
128.910,61.6581,0.012035
128.940,61.6641,0.012035
128.971,61.6704,0.012035
129.002,61.6769,0.012035
129.034,61.6831,0.012035
129.065,61.6893,0.012035
129.095,61.6953,0.012035
129.127,61.7015,0.012035
129.158,61.7077,0.012035
129.189,61.7141,0.012035
129.219,61.7200,0.012035
129.250,61.7262,0.012035
129.281,61.7323,0.012035
129.311,61.7385,0.011988
129.342,61.7446,0.011988
129.373,61.7509,0.011988
129.405,61.7572,0.011988
129.435,61.7632,0.011988
129.466,61.7694,0.011988
129.497,61.7756,0.011988
129.528,61.7817,0.011988
129.558,61.7880,0.011941
129.589,61.7941,0.011941
129.620,61.8004,0.011941
129.652,61.8066,0.011941
129.683,61.8128,0.011941
129.714,61.8190,0.011941
129.745,61.8253,0.011941
129.776,61.8315,0.011941
129.808,61.8378,0.011979
129.839,61.8440,0.011979
129.871,61.8505,0.011979
129.902,61.8566,0.011979
129.934,61.8630,0.011979
129.965,61.8691,0.011979
129.996,61.8754,0.011979
130.027,61.8815,0.011979
130.058,61.8878,0.011988
130.089,61.8940,0.011988
130.121,61.9003,0.011988
130.151,61.9063,0.011988
130.182,61.9125,0.011988
130.213,61.9188,0.011988
130.244,61.9249,0.011988
130.275,61.9311,0.011988
130.306,61.9374,0.011969
130.338,61.9438,0.011969
130.370,61.9501,0.011969
130.401,61.9564,0.011969
130.432,61.9626,0.011969
130.462,61.9686,0.011969
130.493,61.9748,0.011969
130.523,61.9808,0.011969
130.555,61.9872,0.011969
130.586,61.9935,0.011960
130.617,61.9996,0.011960
130.648,62.0060,0.011960
130.680,62.0121,0.011960
130.711,62.0185,0.011960
130.742,62.0247,0.011960
130.773,62.0309,0.011960
130.804,62.0370,0.011960
130.835,62.0435,0.011979
130.867,62.0495,0.011979
130.898,62.0559,0.011979
130.929,62.0619,0.011979
130.960,62.0681,0.011979
130.990,62.0742,0.011979
131.021,62.0804,0.011979
131.052,62.0868,0.011979
131.084,62.0928,0.012026
131.115,62.0992,0.012026
131.145,62.1052,0.012026
131.177,62.1117,0.012026
131.208,62.1179,0.012026
131.240,62.1243,0.012026
131.270,62.1303,0.012026
131.301,62.1364,0.012026
131.332,62.1424,0.012026
131.363,62.1488,0.012026
131.393,62.1547,0.012026
131.424,62.1610,0.012026
131.454,62.1672,0.012026
131.486,62.1733,0.012026
131.516,62.1794,0.012026
131.548,62.1857,0.012026
131.579,62.1919,0.012026
131.611,62.1984,0.012026
131.642,62.2046,0.012026
131.673,62.2108,0.012026
131.705,62.2171,0.012026
131.736,62.2233,0.012026
131.767,62.2295,0.012026
131.799,62.2360,0.012026
131.829,62.2419,0.012026
131.860,62.2481,0.012026
131.891,62.2542,0.012026
131.922,62.2606,0.012026
131.953,62.2668,0.012026
131.983,62.2728,0.012026
132.014,62.2792,0.012026
132.046,62.2854,0.012026
132.077,62.2915,0.012016
132.108,62.2978,0.012016
132.140,62.3040,0.012016
132.170,62.3104,0.012016
132.201,62.3163,0.012016
132.233,62.3226,0.012016
132.263,62.3287,0.012016
132.294,62.3349,0.012016
132.325,62.3415,0.011941
132.357,62.3476,0.011941
132.387,62.3535,0.011941
132.418,62.3597,0.011941
132.448,62.3658,0.011941
132.479,62.3720,0.011941
132.510,62.3782,0.011941
132.541,62.3843,0.011941
132.571,62.3904,0.011951
132.602,62.3966,0.011951
132.633,62.4026,0.011951
132.663,62.4090,0.011951
132.694,62.4150,0.011951
132.725,62.4212,0.011951
132.757,62.4276,0.011951
132.787,62.4336,0.011951
132.819,62.4401,0.011969
132.850,62.4462,0.011969
132.880,62.4522,0.011969
132.913,62.4587,0.011969
132.943,62.4648,0.011969
132.975,62.4712,0.011969
133.007,62.4776,0.011969
133.039,62.4840,0.011969
133.071,62.4903,0.011913
133.102,62.4967,0.011913
133.133,62.5027,0.011913
133.163,62.5089,0.011913
133.194,62.5149,0.011913
133.225,62.5211,0.011913
133.255,62.5274,0.011913
133.286,62.5334,0.011913
133.317,62.5397,0.012007
133.349,62.5459,0.012007
133.379,62.5522,0.012007
133.411,62.5584,0.012007
133.442,62.5646,0.012007
133.473,62.5708,0.012007
133.504,62.5770,0.012007
133.535,62.5832,0.012007
133.565,62.5892,0.012045
133.596,62.5955,0.012045
133.628,62.6017,0.012045
133.659,62.6079,0.012045
133.691,62.6143,0.012045
133.722,62.6205,0.012045
133.753,62.6266,0.012045
133.784,62.6331,0.012016
133.814,62.6392,0.012016
133.846,62.6454,0.012016
133.875,62.6512,0.012016
133.906,62.6573,0.012016
133.936,62.6633,0.012016
133.967,62.6697,0.012016
133.998,62.6759,0.012016
134.031,62.6826,0.012016
134.061,62.6884,0.012016
134.092,62.6947,0.012026
134.123,62.7007,0.012026
134.153,62.7067,0.012026
134.184,62.7131,0.012026
134.216,62.7194,0.012026
134.247,62.7256,0.012026
134.278,62.7317,0.012026
134.309,62.7379,0.012016
134.339,62.7442,0.012016
134.371,62.7503,0.012016
134.402,62.7566,0.012016
134.432,62.7627,0.012016
134.464,62.7690,0.012016
134.495,62.7751,0.012016
134.525,62.7814,0.012016
134.557,62.7876,0.011998
134.589,62.7939,0.011998
134.620,62.8001,0.011998
134.652,62.8066,0.011998
134.683,62.8128,0.011998
134.715,62.8192,0.011998
134.746,62.8253,0.011998
134.776,62.8315,0.011998
134.808,62.8377,0.011979
134.839,62.8439,0.011979
134.870,62.8502,0.011979
134.901,62.8564,0.011979
134.932,62.8626,0.011979
134.964,62.8688,0.011979
134.995,62.8750,0.011979
135.027,62.8816,0.011979
135.057,62.8874,0.011979
135.087,62.8938,0.011988
135.119,62.8999,0.011988
135.149,62.9061,0.011988
135.181,62.9124,0.011988
135.212,62.9185,0.011988
135.243,62.9247,0.011988
135.273,62.9309,0.011988
135.304,62.9369,0.012016
135.335,62.9433,0.012016
135.367,62.9496,0.012016
135.398,62.9558,0.012016
135.429,62.9620,0.012016
135.460,62.9682,0.012016
135.491,62.9745,0.012016
135.522,62.9807,0.012016
135.553,62.9868,0.012016
135.584,62.9930,0.011988
135.615,62.9991,0.011988
135.646,63.0054,0.011988
135.677,63.0116,0.011988
135.708,63.0178,0.011988
135.739,63.0240,0.011988
135.770,63.0301,0.011988
135.801,63.0363,0.011969
135.832,63.0426,0.011969
135.864,63.0489,0.011969
135.895,63.0551,0.011969
135.926,63.0615,0.011969
135.957,63.0675,0.011969
135.987,63.0735,0.011969
136.018,63.0799,0.011969
136.050,63.0860,0.011998
136.080,63.0922,0.011998
136.111,63.0987,0.011998
136.142,63.1046,0.011998
136.174,63.1111,0.011998
136.205,63.1171,0.011998
136.237,63.1236,0.011998
136.268,63.1297,0.011998
136.298,63.1359,0.012007
136.329,63.1419,0.012007
136.359,63.1481,0.012007
136.390,63.1542,0.012007
136.422,63.1607,0.012007
136.453,63.1667,0.012007
136.484,63.1730,0.012007
136.514,63.1790,0.012007
136.546,63.1854,0.011998
136.577,63.1917,0.011998
136.608,63.1978,0.011998
136.640,63.2042,0.011998
136.671,63.2103,0.011998
136.702,63.2167,0.011998
136.733,63.2228,0.011998
136.764,63.2289,0.011998
136.794,63.2350,0.011969
136.825,63.2412,0.011969
136.856,63.2474,0.011969
136.887,63.2536,0.011969
136.918,63.2598,0.011969
136.950,63.2661,0.011969
136.981,63.2723,0.011969
137.012,63.2785,0.011969
137.043,63.2848,0.011979
137.073,63.2908,0.011979
137.104,63.2970,0.011979
137.136,63.3033,0.011979
137.167,63.3095,0.011979
137.199,63.3159,0.011979
137.229,63.3219,0.011979
137.259,63.3281,0.011979
137.291,63.3343,0.011979
137.321,63.3405,0.011988
137.353,63.3467,0.011988
137.383,63.3529,0.011988
137.414,63.3590,0.011988
137.446,63.3654,0.011988
137.478,63.3716,0.011988
137.510,63.3781,0.011988
137.541,63.3843,0.011988
137.572,63.3905,0.011988
137.603,63.3967,0.011969
137.634,63.4030,0.011969
137.665,63.4093,0.011969
137.697,63.4154,0.011969
137.728,63.4219,0.011969
137.760,63.4281,0.011969
137.791,63.4343,0.011969
137.824,63.4410,0.012007
137.853,63.4468,0.012007
137.884,63.4529,0.012007
137.915,63.4592,0.012007
137.946,63.4654,0.012007
137.978,63.4717,0.012007
138.009,63.4778,0.012007
138.040,63.4840,0.012007
138.071,63.4903,0.012054
138.102,63.4967,0.012054
138.133,63.5027,0.012054
138.164,63.5089,0.012054
138.196,63.5154,0.012054
138.228,63.5217,0.012054
138.259,63.5279,0.012054
138.290,63.5342,0.012054
138.321,63.5407,0.012054
138.352,63.5466,0.012016
138.383,63.5527,0.012016
138.414,63.5590,0.012016
138.445,63.5651,0.012016
138.477,63.5716,0.012016
138.509,63.5779,0.012016
138.539,63.5841,0.012016
138.570,63.5903,0.011979
138.602,63.5967,0.011979
138.633,63.6028,0.011979
138.665,63.6090,0.011979
138.695,63.6152,0.011979
138.727,63.6215,0.011979
138.757,63.6277,0.011979
138.788,63.6337,0.011979
138.819,63.6399,0.011951
138.850,63.6461,0.011951
138.881,63.6523,0.011951
138.912,63.6585,0.011951
138.942,63.6646,0.011951
138.973,63.6708,0.011951
139.005,63.6770,0.011951
139.036,63.6834,0.011951
139.067,63.6895,0.011979
139.098,63.6957,0.011979
139.130,63.7020,0.011979
139.161,63.7084,0.011979
139.193,63.7147,0.011979
139.223,63.7210,0.011979
139.254,63.7270,0.011979
139.285,63.7332,0.011979
139.316,63.7394,0.012026
139.348,63.7456,0.012026
139.379,63.7520,0.012026
139.410,63.7581,0.012026
139.441,63.7644,0.012026
139.473,63.7709,0.012026
139.502,63.7767,0.012026
139.534,63.7829,0.012026
139.565,63.7892,0.012035
139.596,63.7954,0.012035
139.628,63.8017,0.012035
139.659,63.8080,0.012035
139.691,63.8144,0.012035
139.722,63.8206,0.012035
139.753,63.8269,0.012035
139.785,63.8331,0.012035
139.816,63.8396,0.012035
139.847,63.8454,0.012035
139.878,63.8517,0.012035
139.908,63.8577,0.012035
139.939,63.8639,0.012035
139.970,63.8703,0.012035
140.001,63.8763,0.012035
140.033,63.8827,0.012035
140.063,63.8888,0.012035
140.094,63.8951,0.011969
140.126,63.9012,0.011969
140.156,63.9075,0.011969
140.188,63.9136,0.011969
140.218,63.9198,0.011969
140.250,63.9261,0.011969
140.282,63.9326,0.011969
140.313,63.9387,0.011960
140.344,63.9451,0.011960
140.376,63.9513,0.011960
140.407,63.9579,0.011960
140.437,63.9636,0.011960
140.468,63.9697,0.011960
140.500,63.9761,0.011960
140.530,63.9822,0.011960
140.561,63.9884,0.011960
140.591,63.9945,0.011979
140.623,64.0008,0.011979
140.653,64.0069,0.011979
140.685,64.0132,0.011979
140.716,64.0194,0.011979
140.747,64.0257,0.011979
140.779,64.0318,0.011979
140.809,64.0381,0.011979
140.840,64.0442,0.011979
140.872,64.0507,0.011979
140.902,64.0566,0.011979
140.934,64.0629,0.011979
140.965,64.0691,0.011979
140.997,64.0753,0.011979
141.027,64.0818,0.011979
141.059,64.0879,0.011969
141.090,64.0941,0.011969
141.121,64.1005,0.011969
141.151,64.1066,0.011969
141.183,64.1128,0.011969
141.214,64.1190,0.011969
141.245,64.1252,0.011969
141.277,64.1314,0.011969
141.307,64.1377,0.011960
141.338,64.1438,0.011960
141.369,64.1500,0.011960
141.400,64.1561,0.011960
141.431,64.1625,0.011960
141.463,64.1682,0.011960
141.494,64.1733,0.011960
141.525,64.1777,0.011960
141.557,64.1813,0.012035
141.588,64.1841,0.012035
141.619,64.1862,0.012035
141.650,64.1876,0.012035
141.681,64.1882,0.012035
141.713,64.1882,0.012035
141.743,64.1882,0.012035
141.774,64.1882,0.012035
141.805,64.1882,0.012063
141.836,64.1882,0.012063
141.867,64.1882,0.012063
141.899,64.1882,0.012063
141.931,64.1882,0.012063
141.962,64.1882,0.012063
141.992,64.1882,0.012063
142.022,64.1882,0.012063
142.053,64.1882,0.012016
142.083,64.1882,0.012016
142.114,64.1882,0.012016
142.145,64.1882,0.012016
142.177,64.1882,0.012016
142.208,64.1882,0.012016
142.238,64.1882,0.012016
142.269,64.1882,0.012016
142.301,64.1882,0.011960
142.330,64.1882,0.011960
142.361,64.1882,0.011960
142.392,64.1882,0.011960
142.423,64.1882,0.011960
142.455,64.1882,0.011960
142.486,64.1882,0.011960
142.516,64.1882,0.011960
142.548,64.1882,0.011922
142.579,64.1882,0.011922
142.610,64.1882,0.011922
142.641,64.1882,0.011922
142.672,64.1882,0.011922
142.703,64.1882,0.011922
142.734,64.1882,0.011922
142.766,64.1882,0.011922
142.797,64.1882,0.011922
142.827,64.1882,0.011922
142.857,64.1882,0.011951
142.888,64.1882,0.011951
142.919,64.1882,0.011951
142.950,64.1882,0.011951
142.980,64.1882,0.011951
143.012,64.1882,0.011951
143.043,64.1882,0.011951
143.074,64.1882,0.012026
143.104,64.1882,0.012026
143.136,64.1882,0.012026
143.167,64.1882,0.012026
143.198,64.1882,0.012026
143.230,64.1882,0.012026
143.260,64.1882,0.012026
143.292,64.1882,0.012026
143.323,64.1882,0.012026
143.353,64.1882,0.012026
143.384,64.1882,0.012026
143.415,64.1882,0.012026
143.446,64.1882,0.012026
143.478,64.1882,0.012026
143.509,64.1882,0.012026
143.539,64.1882,0.012026
143.570,64.1882,0.011988
143.601,64.1882,0.011988
143.632,64.1882,0.011988
143.663,64.1882,0.011988
143.695,64.1882,0.011988
143.726,64.1882,0.011988
143.757,64.1882,0.011988
143.787,64.1882,0.011988
143.819,64.1882,0.011969
143.849,64.1882,0.011969
143.880,64.1882,0.011969
143.911,64.1882,0.011969
143.942,64.1882,0.011969
143.974,64.1882,0.011969
144.006,64.1882,0.011969
144.037,64.1882,0.012007
144.067,64.1882,0.012007
144.098,64.1882,0.012007
144.129,64.1882,0.012007
144.160,64.1882,0.012007
144.191,64.1882,0.012007
144.222,64.1882,0.012007
144.253,64.1882,0.012007
144.284,64.1882,0.012007
144.315,64.1882,0.012007
144.346,64.1882,0.011998
144.377,64.1882,0.011998
144.408,64.1882,0.011998
144.439,64.1882,0.011998
144.470,64.1882,0.011998
144.501,64.1882,0.011998
144.532,64.1882,0.011998
144.563,64.1882,0.012007
144.595,64.1882,0.012007
144.625,64.1882,0.012007
144.657,64.1882,0.012007
144.688,64.1882,0.012007
144.719,64.1882,0.012007
144.750,64.1882,0.012007
144.782,64.1882,0.012007
144.813,64.1882,0.012054
144.843,64.1882,0.012054
144.875,64.1882,0.012054
144.906,64.1882,0.012054
144.937,64.1882,0.012054
144.968,64.1882,0.012054
144.999,64.1882,0.012054
145.029,64.1882,0.012054
145.061,64.1882,0.012045
145.092,64.1882,0.012045
145.123,64.1882,0.012045
145.155,64.1882,0.012045
145.186,64.1882,0.012045
145.218,64.1882,0.012045
145.249,64.1882,0.012045
145.279,64.1882,0.012045
145.311,64.1882,0.011988
145.342,64.1882,0.011988
145.373,64.1882,0.011988
145.404,64.1882,0.011988
145.435,64.1882,0.011988
145.466,64.1882,0.011988
145.497,64.1882,0.011988
145.529,64.1882,0.011988
145.560,64.1882,0.011998
145.591,64.1882,0.011998
145.622,64.1882,0.011998
145.653,64.1882,0.011998
145.685,64.1882,0.011998
145.716,64.1882,0.011998
145.746,64.1882,0.011998
145.778,64.1882,0.011998
145.809,64.1882,0.012035
145.840,64.1882,0.012035
145.870,64.1882,0.012035
145.902,64.1882,0.012035
145.933,64.1882,0.012035
145.965,64.1882,0.012035
145.995,64.1882,0.012035
146.026,64.1878,0.012035
146.057,64.1866,0.012026
146.088,64.1847,0.012026
146.119,64.1823,0.012026
146.150,64.1788,0.012026
146.181,64.1748,0.012026
146.212,64.1699,0.012026
146.243,64.1644,0.012026
146.275,64.1581,0.012026
146.306,64.1520,0.012082
146.337,64.1455,0.012082
146.367,64.1396,0.012082
146.399,64.1331,0.012082
146.431,64.1269,0.012082
146.463,64.1205,0.012082
146.495,64.1142,0.012082
146.525,64.1081,0.012082
146.555,64.1020,0.012073
146.586,64.0959,0.012073
146.617,64.0896,0.012073
146.649,64.0833,0.012073
146.679,64.0773,0.012073
146.710,64.0711,0.012073
146.741,64.0649,0.012073
146.772,64.0588,0.012073
146.803,64.0525,0.011969
146.835,64.0460,0.011969
146.865,64.0401,0.011969
146.896,64.0340,0.011969
146.926,64.0277,0.011969
146.957,64.0216,0.011969
146.988,64.0154,0.011969
147.019,64.0092,0.011969
147.050,64.0032,0.011969
147.081,63.9968,0.011932
147.113,63.9905,0.011932
147.144,63.9841,0.011932
147.175,63.9780,0.011932
147.206,63.9719,0.011932
147.238,63.9656,0.011932
147.268,63.9595,0.011932
147.300,63.9531,0.011932
147.331,63.9470,0.011998
147.362,63.9407,0.011998
147.392,63.9347,0.011998
147.424,63.9283,0.011998
147.456,63.9219,0.011998
147.487,63.9157,0.011998
147.517,63.9096,0.011998
147.549,63.9033,0.011998
147.581,63.8970,0.012045
147.612,63.8908,0.012045
147.643,63.8846,0.012045
147.673,63.8784,0.012045
147.705,63.8717,0.012045
147.737,63.8656,0.012045
147.767,63.8598,0.012045
147.797,63.8537,0.012045
147.828,63.8474,0.011998
147.860,63.8411,0.011998
147.891,63.8350,0.011998
147.922,63.8287,0.011998
147.954,63.8223,0.011998
147.985,63.8161,0.011998
148.016,63.8101,0.011998
148.046,63.8037,0.011998
148.078,63.7977,0.011998
148.109,63.7912,0.011998
148.141,63.7850,0.011998
148.171,63.7788,0.011998
148.203,63.7725,0.011998
148.234,63.7663,0.011998
148.265,63.7600,0.011998
148.296,63.7538,0.011998
148.328,63.7473,0.011998
148.360,63.7412,0.011979
148.391,63.7348,0.011979
148.421,63.7289,0.011979
148.452,63.7225,0.011979
148.484,63.7163,0.011979
148.516,63.7098,0.011979
148.547,63.7038,0.011979
148.578,63.6973,0.011960
148.609,63.6912,0.011960
148.641,63.6849,0.011960
148.671,63.6788,0.011960
148.702,63.6728,0.011960
148.733,63.6664,0.011960
148.763,63.6605,0.011960
148.794,63.6544,0.011960
148.824,63.6483,0.011960
148.855,63.6420,0.011988
148.887,63.6358,0.011988
148.919,63.6295,0.011988
148.950,63.6232,0.011988
148.982,63.6168,0.011988
149.012,63.6106,0.011988
149.044,63.6044,0.011988
149.076,63.5980,0.011969
149.107,63.5917,0.011969
149.139,63.5855,0.011969
149.170,63.5789,0.011969
149.202,63.5728,0.011969
149.233,63.5666,0.011969
149.263,63.5603,0.011969
149.295,63.5541,0.011969
149.325,63.5480,0.011960
149.357,63.5417,0.011960
149.387,63.5355,0.011960
149.419,63.5293,0.011960
149.449,63.5232,0.011960
149.481,63.5170,0.011960
149.511,63.5109,0.011960
149.542,63.5046,0.011960
149.573,63.4985,0.011988
149.604,63.4922,0.011988
149.636,63.4860,0.011988
149.667,63.4795,0.011988
149.699,63.4735,0.011988
149.731,63.4669,0.011988
149.760,63.4612,0.011988
149.791,63.4550,0.011988
149.822,63.4488,0.012026
149.854,63.4425,0.012026
149.886,63.4359,0.012026
149.916,63.4299,0.012026
149.947,63.4238,0.012026
149.978,63.4175,0.012026
150.009,63.4113,0.012026
150.040,63.4051,0.012026
150.070,63.3992,0.012026
150.101,63.3928,0.012026
150.131,63.3869,0.012026
150.163,63.3804,0.012026
150.195,63.3741,0.012026
150.226,63.3678,0.012026
150.256,63.3620,0.012026
150.287,63.3555,0.012026
150.319,63.3493,0.012026
150.351,63.3430,0.012026
150.383,63.3367,0.012026
150.414,63.3303,0.012026
150.445,63.3241,0.012026
150.476,63.3181,0.012026
150.506,63.3120,0.012026
150.538,63.3055,0.012026
150.568,63.2995,0.012026
150.599,63.2935,0.012026
150.630,63.2871,0.012026
150.661,63.2810,0.012026
150.692,63.2746,0.012026
150.723,63.2684,0.012026
150.754,63.2624,0.012026
150.785,63.2563,0.012063
150.816,63.2500,0.012063
150.847,63.2438,0.012063
150.877,63.2377,0.012063
150.909,63.2312,0.012063
150.940,63.2253,0.012063
150.972,63.2188,0.012063
151.002,63.2128,0.012063
151.034,63.2064,0.012063
151.064,63.2001,0.012063
151.095,63.1942,0.012063
151.126,63.1877,0.012063
151.157,63.1816,0.012063
151.188,63.1753,0.012063
151.220,63.1690,0.012063
151.251,63.1629,0.012063
151.282,63.1567,0.012063
151.314,63.1503,0.012063
151.345,63.1442,0.011998
151.375,63.1380,0.011998
151.406,63.1319,0.011998
151.438,63.1254,0.011998
151.469,63.1194,0.011998
151.500,63.1133,0.011998
151.531,63.1070,0.011998
151.562,63.1006,0.011998
151.593,63.0944,0.011988
151.624,63.0882,0.011988
151.655,63.0822,0.011988
151.686,63.0760,0.011988
151.718,63.0696,0.011988
151.749,63.0634,0.011988
151.780,63.0571,0.011988
151.811,63.0508,0.011988
151.842,63.0447,0.011988
151.873,63.0386,0.011988
151.904,63.0324,0.011988
151.935,63.0261,0.011988
151.967,63.0198,0.011988
151.998,63.0135,0.011988
152.030,63.0071,0.011988
152.061,63.0011,0.011988
152.091,62.9950,0.011998
152.123,62.9884,0.011998
152.154,62.9825,0.011998
152.185,62.9760,0.011998
152.216,62.9700,0.011998
152.247,62.9637,0.011998
152.279,62.9573,0.011998
152.310,62.9511,0.012016
152.342,62.9447,0.012016
152.373,62.9387,0.012016
152.404,62.9322,0.012016
152.435,62.9260,0.012016
152.466,62.9198,0.012016
152.497,62.9137,0.012016
152.528,62.9074,0.012016
152.559,62.9013,0.012016
152.592,62.8948,0.012035
152.622,62.8888,0.012035
152.653,62.8825,0.012035
152.685,62.8762,0.012035
152.715,62.8698,0.012035
152.746,62.8639,0.012035
152.776,62.8579,0.012035
152.807,62.8517,0.012026
152.839,62.8453,0.012026
152.870,62.8390,0.012026
152.901,62.8329,0.012026
152.932,62.8268,0.012026
152.963,62.8206,0.012026
152.993,62.8145,0.012026
153.024,62.8083,0.012026
153.056,62.8020,0.012026
153.087,62.7958,0.012007
153.118,62.7895,0.012007
153.149,62.7833,0.012007
153.181,62.7771,0.012007
153.212,62.7707,0.012007
153.242,62.7645,0.012007
153.273,62.7583,0.012007
153.304,62.7523,0.012035
153.335,62.7462,0.012035
153.367,62.7399,0.012035
153.397,62.7335,0.012035
153.429,62.7273,0.012035
153.460,62.7211,0.012035
153.491,62.7148,0.012035
153.522,62.7087,0.012035
153.553,62.7024,0.012035
153.587,62.6958,0.012026
153.616,62.6898,0.012026
153.646,62.6839,0.012026
153.678,62.6775,0.012026
153.709,62.6714,0.012026
153.741,62.6650,0.012026
153.772,62.6589,0.012026
153.803,62.6523,0.012035
153.835,62.6461,0.012035
153.865,62.6400,0.012035
153.896,62.6339,0.012035
153.927,62.6277,0.012035
153.959,62.6214,0.012035
153.989,62.6152,0.012035
154.019,62.6094,0.012035
154.050,62.6032,0.012026
154.081,62.5971,0.012026
154.112,62.5908,0.012026
154.144,62.5843,0.012026
154.173,62.5785,0.012026
154.204,62.5722,0.012026
154.235,62.5661,0.012026
154.266,62.5598,0.012026
154.297,62.5537,0.012026
154.328,62.5475,0.011979
154.360,62.5413,0.011979
154.392,62.5347,0.011979
154.422,62.5288,0.011979
154.453,62.5224,0.011979
154.485,62.5162,0.011979
154.515,62.5102,0.011979
154.546,62.5040,0.012007
154.577,62.4978,0.012007
154.608,62.4913,0.012007
154.639,62.4852,0.012007
154.671,62.4790,0.012007
154.701,62.4728,0.012007
154.733,62.4666,0.012007
154.764,62.4604,0.012007
154.795,62.4542,0.012026
154.827,62.4477,0.012026
154.857,62.4416,0.012026
154.890,62.4353,0.012026
154.919,62.4293,0.012026
154.950,62.4231,0.012026
154.981,62.4170,0.012026
155.011,62.4108,0.012026
155.043,62.4046,0.011979
155.074,62.3984,0.011979
155.105,62.3921,0.011979
155.137,62.3859,0.011979
155.167,62.3798,0.011979
155.199,62.3734,0.011979
155.230,62.3672,0.011979
155.261,62.3610,0.011979
155.293,62.3546,0.011922
155.323,62.3486,0.011922
155.354,62.3422,0.011922
155.385,62.3362,0.011922
155.416,62.3298,0.011922
155.447,62.3239,0.011922
155.478,62.3174,0.011922
155.509,62.3114,0.011922
155.540,62.3053,0.012007
155.571,62.2990,0.012007
155.602,62.2929,0.012007
155.632,62.2867,0.012007
155.664,62.2804,0.012007
155.696,62.2739,0.012007
155.727,62.2677,0.012007
155.759,62.2613,0.012007
155.789,62.2553,0.012016
155.820,62.2492,0.012016
155.851,62.2429,0.012016
155.882,62.2368,0.012016
155.913,62.2304,0.012016
155.945,62.2243,0.012016
155.975,62.2178,0.012016
156.005,62.2121,0.012016
156.037,62.2057,0.012016
156.068,62.1997,0.012016
156.100,62.1932,0.012007
156.131,62.1871,0.012007
156.161,62.1809,0.012007
156.192,62.1746,0.012007
156.223,62.1684,0.012007
156.255,62.1622,0.012007
156.287,62.1557,0.012007
156.318,62.1496,0.012007
156.349,62.1434,0.012101
156.380,62.1372,0.012101
156.410,62.1312,0.012101
156.440,62.1251,0.012101
156.472,62.1189,0.012101
156.503,62.1124,0.012101
156.535,62.1061,0.012101
156.565,62.1001,0.012101
156.596,62.0941,0.012035
156.627,62.0877,0.012035
156.658,62.0815,0.012035
156.689,62.0752,0.012035
156.721,62.0690,0.012035
156.752,62.0626,0.012035
156.784,62.0565,0.012035
156.815,62.0500,0.012007
156.847,62.0438,0.012007
156.878,62.0376,0.012007
156.909,62.0314,0.012007
156.940,62.0252,0.012007
156.972,62.0188,0.012007
157.003,62.0127,0.012007
157.034,62.0063,0.012007
157.065,62.0001,0.012007
157.094,61.9944,0.012073
157.125,61.9882,0.012073
157.156,61.9820,0.012073
157.187,61.9758,0.012073
157.218,61.9696,0.012073
157.249,61.9635,0.012073
157.280,61.9571,0.012073
157.311,61.9509,0.012007
157.342,61.9447,0.012007
157.373,61.9385,0.012007
157.403,61.9325,0.012007
157.433,61.9264,0.012007
157.465,61.9202,0.012007
157.496,61.9140,0.012007
157.526,61.9079,0.012007
157.558,61.9017,0.011998
157.588,61.8955,0.011998
157.619,61.8893,0.011998
157.650,61.8831,0.011998
157.681,61.8769,0.011998
157.712,61.8707,0.011998
157.744,61.8645,0.011998
157.775,61.8581,0.011998
157.807,61.8517,0.011998
157.838,61.8455,0.011998
157.869,61.8395,0.011998
157.899,61.8332,0.011998
157.931,61.8270,0.011998
157.962,61.8207,0.011998
157.994,61.8144,0.011998
158.025,61.8081,0.011998
158.056,61.8017,0.011979
158.087,61.7958,0.011979
158.119,61.7895,0.011979
158.149,61.7834,0.011979
158.180,61.7769,0.011979
158.211,61.7711,0.011979
158.243,61.7645,0.011979
158.272,61.7587,0.011979
158.303,61.7525,0.012016
158.334,61.7462,0.012016
158.366,61.7399,0.012016
158.397,61.7337,0.012016
158.427,61.7278,0.012016
158.459,61.7214,0.012016
158.490,61.7151,0.012016
158.521,61.7090,0.012016
158.552,61.7028,0.012045
158.584,61.6965,0.012045
158.614,61.6904,0.012045
158.645,61.6842,0.012045
158.675,61.6780,0.012045
158.706,61.6720,0.012045
158.738,61.6654,0.012045
158.768,61.6596,0.012045
158.797,61.6535,0.012045
158.829,61.6473,0.012063
158.861,61.6409,0.012063
158.892,61.6348,0.012063
158.923,61.6284,0.012063
158.955,61.6223,0.012063
158.987,61.6157,0.012063
159.019,61.6094,0.012063
159.049,61.6033,0.012063
159.081,61.5971,0.012045
159.112,61.5908,0.012045
159.142,61.5846,0.012045
159.173,61.5786,0.012045
159.204,61.5726,0.012045
159.235,61.5664,0.012045
159.266,61.5600,0.012045
159.297,61.5538,0.012045
159.328,61.5475,0.012045
159.360,61.5413,0.011988
159.391,61.5351,0.011988
159.422,61.5288,0.011988
159.453,61.5226,0.011988
159.484,61.5162,0.011988
159.515,61.5103,0.011988
159.546,61.5041,0.011988
159.578,61.4976,0.011988
159.609,61.4913,0.011988
159.640,61.4852,0.011988
159.671,61.4789,0.011988
159.703,61.4727,0.011988
159.734,61.4664,0.011988
159.765,61.4602,0.011988
159.795,61.4542,0.011988
159.826,61.4480,0.011988
159.857,61.4418,0.012026
159.887,61.4358,0.012026
159.919,61.4293,0.012026
159.950,61.4232,0.012026
159.980,61.4172,0.012026
160.011,61.4108,0.012026
160.043,61.4046,0.012026
160.074,61.3984,0.012016
160.105,61.3921,0.012016
160.137,61.3858,0.012016
160.168,61.3796,0.012016
160.199,61.3734,0.012016
160.231,61.3669,0.012016
160.262,61.3610,0.012016
160.293,61.3546,0.012016
160.322,61.3488,0.012035
160.353,61.3426,0.012035
160.384,61.3363,0.012035
160.415,61.3302,0.012035
160.446,61.3239,0.012035
160.477,61.3178,0.012035
160.508,61.3116,0.012035
160.539,61.3053,0.012035
160.570,61.2992,0.012035
160.601,61.2930,0.012035
160.632,61.2868,0.012035
160.664,61.2805,0.012035
160.695,61.2743,0.012035
160.726,61.2678,0.012035
160.757,61.2617,0.012035
160.788,61.2555,0.012035
160.820,61.2492,0.012007
160.851,61.2430,0.012007
160.882,61.2366,0.012007
160.913,61.2305,0.012007
160.944,61.2243,0.012007
160.975,61.2183,0.012007
161.006,61.2120,0.012007
161.037,61.2058,0.012007
161.068,61.1997,0.012016
161.098,61.1935,0.012016
161.129,61.1873,0.012016
161.160,61.1810,0.012016
161.193,61.1746,0.012016
161.223,61.1686,0.012016
161.253,61.1628,0.012016
161.285,61.1569,0.012026
161.315,61.1522,0.012026
161.346,61.1480,0.012026
161.376,61.1447,0.012026
161.408,61.1419,0.012026
161.438,61.1400,0.012026
161.470,61.1387,0.012026
161.501,61.1382,0.012026
161.533,61.1382,0.012026
161.564,61.1382,0.011969
161.596,61.1382,0.011969
161.628,61.1382,0.011969
161.658,61.1382,0.011969
161.690,61.1386,0.011969
161.721,61.1396,0.011969
161.752,61.1413,0.011969
161.784,61.1438,0.011951
161.814,61.1470,0.011951
161.845,61.1510,0.011951
161.876,61.1557,0.011951
161.906,61.1609,0.011951
161.937,61.1670,0.011951
161.969,61.1732,0.011951
162.000,61.1794,0.011951
162.031,61.1858,0.011951
162.063,61.1919,0.011951
162.093,61.1982,0.011960
162.124,61.2043,0.011960
162.155,61.2107,0.011960
162.187,61.2167,0.011960
162.218,61.2232,0.011960
162.249,61.2294,0.011960
162.281,61.2357,0.011960
162.311,61.2418,0.011988
162.343,61.2482,0.011988
162.374,61.2543,0.011988
162.404,61.2603,0.011988
162.435,61.2663,0.011988
162.465,61.2725,0.011988
162.497,61.2789,0.011988
162.528,61.2849,0.011988
162.558,61.2910,0.011988
162.589,61.2972,0.012016
162.620,61.3035,0.012016
162.650,61.3095,0.012016
162.681,61.3157,0.012016
162.712,61.3220,0.012016
162.744,61.3282,0.012016
162.775,61.3344,0.012016
162.807,61.3408,0.012035
162.838,61.3471,0.012035
162.869,61.3533,0.012035
162.901,61.3596,0.012035
162.932,61.3658,0.012035
162.962,61.3721,0.012035
162.993,61.3781,0.012035
163.024,61.3843,0.012035
163.056,61.3906,0.012035
163.087,61.3968,0.012035
163.118,61.4033,0.012035
163.150,61.4095,0.012035
163.180,61.4155,0.012035
163.210,61.4216,0.012035
163.242,61.4279,0.012035
163.274,61.4343,0.012035
163.305,61.4406,0.012026
163.336,61.4465,0.012026
163.367,61.4530,0.012026
163.397,61.4589,0.012026
163.428,61.4653,0.012026
163.459,61.4713,0.012026
163.491,61.4775,0.012026
163.521,61.4835,0.012026
163.551,61.4897,0.012007
163.583,61.4962,0.012007
163.614,61.5021,0.012007
163.645,61.5084,0.012007
163.676,61.5146,0.012007
163.707,61.5208,0.012007
163.737,61.5269,0.012007
163.768,61.5330,0.012007
163.798,61.5391,0.011988
163.830,61.5455,0.011988
163.861,61.5517,0.011988
163.892,61.5578,0.011988
163.922,61.5640,0.011988
163.953,61.5699,0.011988
163.982,61.5759,0.011988
164.013,61.5821,0.011988
164.045,61.5884,0.012007
164.076,61.5948,0.012007
164.107,61.6008,0.012007
164.139,61.6072,0.012007
164.169,61.6132,0.012007
164.200,61.6193,0.012007
164.230,61.6258,0.012007
164.263,61.6320,0.012007
164.293,61.6380,0.012007
164.324,61.6442,0.011969
164.355,61.6504,0.011969
164.386,61.6568,0.011969
164.418,61.6630,0.011969
164.448,61.6690,0.011969
164.480,61.6754,0.011969
164.510,61.6816,0.011969
164.541,61.6876,0.011979
164.572,61.6940,0.011979
164.603,61.7000,0.011979
164.635,61.7065,0.011979
164.666,61.7127,0.011979
164.697,61.7188,0.011979
164.728,61.7252,0.011979
164.759,61.7312,0.011979
164.790,61.7375,0.011979
164.821,61.7436,0.011979
164.851,61.7497,0.011979
164.882,61.7559,0.011979
164.913,61.7621,0.011979
164.944,61.7683,0.011979
164.976,61.7746,0.011979
165.007,61.7809,0.011979
165.039,61.7871,0.012026
165.069,61.7933,0.012026
165.099,61.7993,0.012026
165.130,61.8055,0.012026
165.162,61.8118,0.012026
165.193,61.8181,0.012026
165.224,61.8243,0.012026
165.255,61.8305,0.012026
165.287,61.8368,0.012016
165.318,61.8430,0.012016
165.349,61.8494,0.012016
165.381,61.8556,0.012016
165.411,61.8618,0.012016
165.442,61.8677,0.012016
165.473,61.8741,0.012016
165.504,61.8803,0.012016
165.535,61.8863,0.011998
165.565,61.8925,0.011998
165.597,61.8987,0.011998
165.627,61.9048,0.011998
165.659,61.9111,0.011998
165.690,61.9173,0.011998
165.721,61.9237,0.011998
165.752,61.9299,0.011998
165.782,61.9358,0.011998
165.813,61.9420,0.012035
165.844,61.9482,0.012035
165.875,61.9544,0.012035
165.906,61.9607,0.012035
165.939,61.9673,0.012035
165.969,61.9733,0.012035
165.998,61.9791,0.012035
166.029,61.9852,0.012035
166.060,61.9913,0.012035
166.090,61.9975,0.012035
166.121,62.0035,0.012035
166.152,62.0097,0.012035
166.182,62.0161,0.012035
166.213,62.0221,0.012035
166.244,62.0282,0.012035
166.276,62.0347,0.012035
166.308,62.0410,0.012054
166.339,62.0474,0.012054
166.370,62.0534,0.012054
166.401,62.0595,0.012054
166.432,62.0658,0.012054
166.462,62.0721,0.012054
166.494,62.0783,0.012054
166.524,62.0843,0.012054
166.556,62.0906,0.012054
166.586,62.0967,0.012054
166.619,62.1032,0.012054
166.649,62.1093,0.012054
166.680,62.1154,0.012054
166.711,62.1217,0.012054
166.741,62.1278,0.012054
166.773,62.1340,0.012054
166.803,62.1401,0.012054
166.834,62.1463,0.012026
166.865,62.1525,0.012026
166.896,62.1588,0.012026
166.927,62.1648,0.012026
166.958,62.1712,0.012026
166.990,62.1774,0.012026
167.020,62.1835,0.012026
167.051,62.1896,0.012016
167.081,62.1955,0.012016
167.111,62.2017,0.012016
167.143,62.2079,0.012016
167.173,62.2141,0.012016
167.205,62.2205,0.012016
167.236,62.2265,0.012016
167.267,62.2329,0.012016
167.298,62.2391,0.012016
167.330,62.2454,0.012007
167.361,62.2516,0.012007
167.392,62.2577,0.012007
167.422,62.2639,0.012007
167.454,62.2703,0.012007
167.485,62.2764,0.012007
167.517,62.2828,0.012007
167.547,62.2889,0.012007
167.578,62.2951,0.012007
167.609,62.3012,0.012007
167.640,62.3076,0.012007
167.671,62.3137,0.012007
167.702,62.3198,0.012007
167.733,62.3260,0.012007
167.765,62.3323,0.012007
167.795,62.3385,0.012007
167.827,62.3447,0.011988
167.858,62.3512,0.011988
167.890,62.3574,0.011988
167.920,62.3634,0.011988
167.951,62.3697,0.011988
167.982,62.3757,0.011988
168.013,62.3821,0.011988
168.044,62.3883,0.011988
168.075,62.3943,0.011988
168.106,62.4005,0.011988
168.137,62.4070,0.011988
168.168,62.4131,0.011988
168.198,62.4191,0.011988
168.230,62.4253,0.011988
168.261,62.4317,0.011988
168.293,62.4380,0.011988
168.324,62.4443,0.011979
168.357,62.4508,0.011979
168.388,62.4570,0.011979
168.420,62.4634,0.011979
168.452,62.4699,0.011979
168.482,62.4758,0.011979
168.512,62.4818,0.011979
168.544,62.4882,0.011979
168.575,62.4943,0.011979
168.606,62.5006,0.011979
168.637,62.5068,0.011979
168.668,62.5130,0.011979
168.698,62.5192,0.011979
168.730,62.5254,0.011979
168.760,62.5315,0.011979
168.791,62.5376,0.011979
168.822,62.5439,0.012007
168.853,62.5501,0.012007
168.884,62.5562,0.012007
168.915,62.5625,0.012007
168.947,62.5687,0.012007
168.979,62.5752,0.012007
169.009,62.5812,0.012007
169.040,62.5874,0.012007
169.072,62.5938,0.012007
169.103,62.6000,0.012007
169.134,62.6062,0.012007
169.165,62.6125,0.012007
169.196,62.6186,0.012007
169.227,62.6248,0.012007
169.258,62.6310,0.012007
169.289,62.6373,0.012007
169.320,62.6435,0.012016
169.351,62.6497,0.012016
169.382,62.6560,0.012016
169.414,62.6621,0.012016
169.445,62.6685,0.012016
169.477,62.6749,0.012016
169.508,62.6811,0.012016
169.539,62.6873,0.012016
169.570,62.6936,0.012035
169.602,62.6998,0.012035
169.634,62.7062,0.012035
169.666,62.7127,0.012035
169.696,62.7188,0.012035
169.728,62.7250,0.012035
169.759,62.7312,0.012035
169.790,62.7373,0.012035
169.820,62.7433,0.012035
169.851,62.7495,0.011998
169.882,62.7560,0.011998
169.913,62.7622,0.011998
169.945,62.7684,0.011998
169.976,62.7747,0.011998
170.006,62.7807,0.011998
170.038,62.7871,0.011998
170.069,62.7933,0.011960
170.101,62.7995,0.011960
170.132,62.8058,0.011960
170.164,62.8123,0.011960
170.195,62.8186,0.011960
170.227,62.8247,0.011960
170.257,62.8309,0.011960
170.288,62.8371,0.011960
170.320,62.8434,0.011998
170.351,62.8496,0.011998
170.381,62.8557,0.011998
170.412,62.8618,0.011998
170.443,62.8680,0.011998
170.473,62.8742,0.011998
170.504,62.8801,0.011998
170.535,62.8865,0.011998
170.566,62.8925,0.012063
170.597,62.8989,0.012063
170.628,62.9049,0.012063
170.660,62.9115,0.012063
170.692,62.9177,0.012063
170.723,62.9240,0.012063
170.754,62.9301,0.012063
170.785,62.9363,0.012063
170.815,62.9426,0.012026
170.847,62.9488,0.012026
170.878,62.9549,0.012026
170.909,62.9612,0.012026
170.941,62.9676,0.012026
170.973,62.9739,0.012026
171.004,62.9801,0.012026
171.034,62.9862,0.012026
171.064,62.9922,0.011988
171.096,62.9984,0.011988
171.126,63.0047,0.011988
171.157,63.0109,0.011988
171.189,63.0172,0.011988
171.221,63.0235,0.011988
171.252,63.0297,0.011988
171.282,63.0359,0.011988
171.313,63.0420,0.012054
171.345,63.0484,0.012054
171.375,63.0544,0.012054
171.406,63.0606,0.012054
171.437,63.0667,0.012054
171.468,63.0730,0.012054
171.498,63.0793,0.012054
171.529,63.0851,0.012054
171.561,63.0916,0.012026
171.592,63.0978,0.012026
171.623,63.1040,0.012026
171.655,63.1103,0.012026
171.686,63.1166,0.012026
171.717,63.1230,0.012026
171.749,63.1292,0.012026
171.779,63.1352,0.012026
171.811,63.1417,0.012007
171.841,63.1476,0.012007
171.872,63.1540,0.012007
171.904,63.1601,0.012007
171.935,63.1663,0.012007
171.966,63.1726,0.012007
171.997,63.1788,0.012007
172.028,63.1851,0.012007
172.059,63.1912,0.012045
172.090,63.1974,0.012045
172.121,63.2036,0.012045
172.152,63.2098,0.012045
172.183,63.2159,0.012045
172.214,63.2223,0.012045
172.245,63.2284,0.012045
172.276,63.2348,0.012045
172.309,63.2412,0.012045
172.339,63.2474,0.012016
172.371,63.2536,0.012016
172.403,63.2601,0.012016
172.434,63.2662,0.012016
172.465,63.2724,0.012016
172.496,63.2785,0.012016
172.527,63.2847,0.012016
172.558,63.2910,0.011979
172.589,63.2971,0.011979
172.619,63.3033,0.011979
172.652,63.3097,0.011979
172.682,63.3157,0.011979
172.712,63.3218,0.011979
172.743,63.3281,0.011979
172.774,63.3342,0.011979
172.805,63.3404,0.011979
172.836,63.3466,0.011998
172.867,63.3529,0.011998
172.899,63.3591,0.011998
172.929,63.3653,0.011998
172.960,63.3715,0.011998
172.991,63.3776,0.011998
173.022,63.3838,0.011998
173.054,63.3901,0.011998
173.086,63.3964,0.012016
173.117,63.4028,0.012016
173.147,63.4087,0.012016
173.179,63.4150,0.012016
173.209,63.4211,0.012016
173.240,63.4274,0.012016
173.271,63.4335,0.012016
173.302,63.4398,0.012016
173.333,63.4460,0.012016
173.364,63.4521,0.012016
173.395,63.4585,0.012016
173.427,63.4648,0.012016
173.458,63.4709,0.012016
173.490,63.4774,0.012016
173.520,63.4834,0.012016
173.552,63.4898,0.012016
173.583,63.4962,0.012016
173.614,63.5022,0.012016
173.645,63.5083,0.012016
173.676,63.5145,0.012016
173.707,63.5208,0.012016
173.740,63.5274,0.012016
173.771,63.5336,0.012016
173.801,63.5396,0.012016
173.832,63.5458,0.012007
173.863,63.5521,0.012007
173.894,63.5582,0.012007
173.925,63.5644,0.012007
173.956,63.5706,0.012007
173.987,63.5768,0.012007
174.017,63.5828,0.012007
174.048,63.5890,0.012007
174.078,63.5951,0.012035
174.109,63.6012,0.012035
174.140,63.6074,0.012035
174.171,63.6136,0.012035
174.202,63.6197,0.012035
174.234,63.6261,0.012035
174.264,63.6321,0.012035
174.295,63.6384,0.012035
174.326,63.6446,0.012026
174.357,63.6508,0.012026
174.388,63.6569,0.012026
174.420,63.6635,0.012026
174.450,63.6694,0.012026
174.482,63.6759,0.012026
174.513,63.6819,0.012026
174.544,63.6883,0.012026
174.575,63.6943,0.011988
174.606,63.7005,0.011988
174.637,63.7067,0.011988
174.668,63.7131,0.011988
174.699,63.7193,0.011988
174.730,63.7254,0.011988
174.761,63.7316,0.011988
174.792,63.7378,0.011988
174.822,63.7438,0.011988
174.853,63.7500,0.011988
174.885,63.7565,0.011988
174.915,63.7624,0.011988
174.947,63.7688,0.011988
174.978,63.7750,0.011988
175.010,63.7813,0.011988
175.041,63.7875,0.011988
175.072,63.7937,0.011969
175.103,63.7999,0.011969
175.135,63.8062,0.011969
175.165,63.8125,0.011969
175.197,63.8186,0.011969
175.228,63.8249,0.011969
175.259,63.8310,0.011969
175.289,63.8373,0.011969
175.321,63.8435,0.011951
175.352,63.8497,0.011951
175.382,63.8562,0.011951
175.413,63.8621,0.011951
175.444,63.8683,0.011951
175.476,63.8746,0.011951
175.507,63.8809,0.011951
175.538,63.8871,0.011951
175.569,63.8934,0.011998
175.600,63.8994,0.011998
175.631,63.9057,0.011998
175.664,63.9121,0.011998
175.693,63.9180,0.011998
175.723,63.9240,0.011998
175.754,63.9301,0.011998
175.786,63.9366,0.012063
175.817,63.9428,0.012063
175.848,63.9488,0.012063
175.879,63.9550,0.012063
175.910,63.9614,0.012063
175.941,63.9676,0.012063
175.972,63.9738,0.012063
176.002,63.9798,0.012063
176.033,63.9860,0.012063
176.065,63.9922,0.012063
176.096,63.9985,0.011988
176.128,64.0049,0.011988
176.159,64.0111,0.011988
176.190,64.0174,0.011988
176.221,64.0235,0.011988
176.253,64.0301,0.011988
176.284,64.0363,0.011988
176.315,64.0425,0.011988
176.348,64.0491,0.011998
176.378,64.0549,0.011998
176.409,64.0613,0.011998
176.441,64.0675,0.011998
176.472,64.0737,0.011998
176.503,64.0801,0.011998
176.534,64.0861,0.011998
176.565,64.0923,0.011998
176.596,64.0987,0.011998
176.626,64.1046,0.011998
176.657,64.1108,0.011998
176.688,64.1166,0.011998
176.720,64.1220,0.011998
176.751,64.1266,0.011998
176.782,64.1304,0.011998
176.814,64.1334,0.011998
176.845,64.1356,0.012035
176.876,64.1372,0.012035
176.907,64.1381,0.012035
176.937,64.1382,0.012035
176.968,64.1382,0.012035
176.999,64.1382,0.012035
177.029,64.1382,0.012035
177.059,64.1382,0.012035
177.089,64.1382,0.012082
177.120,64.1382,0.012082
177.151,64.1382,0.012082
177.183,64.1382,0.012082
177.216,64.1382,0.012082
177.245,64.1382,0.012082
177.276,64.1382,0.012082
177.307,64.1382,0.012082
177.338,64.1382,0.012007
177.369,64.1382,0.012007
177.401,64.1382,0.012007
177.431,64.1382,0.012007
177.463,64.1382,0.012007
177.493,64.1382,0.012007
177.524,64.1382,0.012007
177.554,64.1382,0.012007
177.586,64.1382,0.012026
177.616,64.1382,0.012026
177.648,64.1382,0.012026
177.679,64.1382,0.012026
177.710,64.1382,0.012026
177.741,64.1382,0.012026
177.773,64.1382,0.012026
177.804,64.1382,0.012007
177.835,64.1382,0.012007
177.866,64.1382,0.012007
177.897,64.1382,0.012007
177.929,64.1382,0.012007
177.960,64.1382,0.012007
177.991,64.1382,0.012007
178.023,64.1382,0.012007
178.054,64.1382,0.012016
178.085,64.1382,0.012016
178.116,64.1382,0.012016
178.146,64.1382,0.012016
178.178,64.1382,0.012016
178.208,64.1382,0.012016
178.239,64.1382,0.012016
178.270,64.1382,0.012016
178.300,64.1382,0.012026
178.332,64.1382,0.012026
178.363,64.1382,0.012026
178.395,64.1382,0.012026
178.426,64.1382,0.012026
178.458,64.1382,0.012026
178.488,64.1382,0.012026
178.519,64.1382,0.012026
178.551,64.1382,0.011988
178.582,64.1382,0.011988
178.612,64.1382,0.011988
178.643,64.1382,0.011988
178.675,64.1382,0.011988
178.708,64.1382,0.011988
178.737,64.1382,0.011988
178.768,64.1382,0.011988
178.800,64.1382,0.011998
178.830,64.1382,0.011998
178.862,64.1382,0.011998
178.893,64.1382,0.011998
178.925,64.1382,0.011998
178.955,64.1382,0.011998
178.986,64.1382,0.011998
179.018,64.1382,0.011998
179.050,64.1382,0.011998
179.081,64.1382,0.011998
179.112,64.1382,0.011998
179.143,64.1382,0.011998
179.173,64.1382,0.011998
179.205,64.1382,0.011998
179.235,64.1382,0.011998
179.266,64.1382,0.011998
179.298,64.1382,0.011998
179.328,64.1382,0.011998
179.358,64.1382,0.011998
179.390,64.1382,0.011998
179.420,64.1382,0.011998
179.452,64.1382,0.011998
179.483,64.1382,0.011998
179.515,64.1382,0.011998
179.546,64.1382,0.011941
179.576,64.1382,0.011941
179.607,64.1382,0.011941
179.639,64.1382,0.011941
179.670,64.1382,0.011941
179.701,64.1382,0.011941
179.732,64.1382,0.011941
179.762,64.1382,0.011941
179.793,64.1382,0.011941
179.824,64.1382,0.011913
179.855,64.1382,0.011913
179.886,64.1382,0.011913
179.916,64.1382,0.011913
179.948,64.1382,0.011913
179.978,64.1382,0.011913
180.008,64.1382,0.011913
180.039,64.1382,0.011960
180.070,64.1382,0.011960
180.101,64.1382,0.011960
180.133,64.1382,0.011960
180.164,64.1382,0.011960
180.196,64.1382,0.011960
180.227,64.1382,0.011960
180.259,64.1382,0.011960
180.290,64.1382,0.011988
180.321,64.1382,0.011988
180.353,64.1382,0.011988
180.384,64.1382,0.011988
180.416,64.1382,0.011988
180.447,64.1382,0.011988
180.478,64.1382,0.011988
180.510,64.1382,0.011988
180.541,64.1382,0.012007
180.572,64.1382,0.012007
180.603,64.1382,0.012007
180.634,64.1382,0.012007
180.664,64.1382,0.012007
180.695,64.1382,0.012007
180.726,64.1382,0.012007
180.757,64.1382,0.012007
180.788,64.1382,0.012007
180.819,64.1382,0.012007
180.849,64.1382,0.012007
180.880,64.1382,0.012007
180.912,64.1382,0.012007
180.942,64.1382,0.012007
180.975,64.1382,0.012007
181.005,64.1382,0.012007
181.035,64.1382,0.012007
181.067,64.1382,0.012007
181.098,64.1382,0.012007
181.128,64.1382,0.012007
181.160,64.1382,0.012007
181.192,64.1382,0.012007
181.224,64.1380,0.012007
181.254,64.1372,0.012007
181.285,64.1356,0.012007
181.317,64.1331,0.012035
181.346,64.1303,0.012035
181.378,64.1263,0.012035
181.410,64.1217,0.012035
181.441,64.1166,0.012035
181.472,64.1107,0.012035
181.502,64.1046,0.012035
181.533,64.0984,0.012035
181.563,64.0923,0.012101
181.595,64.0859,0.012101
181.626,64.0798,0.012101
181.657,64.0735,0.012101
181.689,64.0672,0.012101
181.720,64.0610,0.012101
181.751,64.0548,0.012101
181.782,64.0486,0.012101
181.812,64.0426,0.012026
181.843,64.0363,0.012026
181.875,64.0301,0.012026
181.906,64.0239,0.012026
181.936,64.0175,0.012026
181.967,64.0116,0.012026
181.998,64.0054,0.012026
182.029,63.9993,0.012026
182.059,63.9930,0.011922
182.090,63.9870,0.011922
182.121,63.9807,0.011922
182.151,63.9748,0.011922
182.183,63.9683,0.011922
182.214,63.9622,0.011922
182.245,63.9559,0.011922
182.276,63.9498,0.011922
182.307,63.9436,0.011979
182.339,63.9373,0.011979
182.370,63.9311,0.011979
182.401,63.9247,0.011979
182.433,63.9185,0.011979
182.464,63.9123,0.011979
182.495,63.9059,0.011979
182.526,63.8996,0.011979
182.557,63.8937,0.011979
182.588,63.8874,0.012035
182.619,63.8811,0.012035
182.649,63.8752,0.012035
182.681,63.8688,0.012035
182.712,63.8626,0.012035
182.742,63.8564,0.012035
182.773,63.8505,0.012035
182.804,63.8442,0.012035
182.835,63.8380,0.011988
182.865,63.8320,0.011988
182.896,63.8257,0.011988
182.927,63.8196,0.011988
182.957,63.8134,0.011988
182.988,63.8073,0.011988
183.019,63.8011,0.011988
183.050,63.7951,0.011988
183.081,63.7887,0.012026
183.113,63.7825,0.012026
183.143,63.7762,0.012026
183.174,63.7702,0.012026
183.204,63.7640,0.012026
183.236,63.7578,0.012026
183.267,63.7515,0.012026
183.298,63.7454,0.012054
183.329,63.7391,0.012054
183.360,63.7328,0.012054
183.391,63.7267,0.012054
183.423,63.7205,0.012054
183.454,63.7142,0.012054
183.485,63.7081,0.012054
183.516,63.7018,0.012054
183.547,63.6957,0.012007
183.578,63.6895,0.012007
183.608,63.6834,0.012007
183.640,63.6770,0.012007
183.670,63.6709,0.012007
183.701,63.6648,0.012007
183.731,63.6589,0.012007
183.761,63.6527,0.012007
183.793,63.6463,0.012035
183.823,63.6401,0.012035
183.853,63.6343,0.012035
183.884,63.6282,0.012035
183.915,63.6220,0.012035
183.945,63.6160,0.012035
183.976,63.6099,0.012035
184.006,63.6038,0.012035
184.037,63.5976,0.012063
184.069,63.5912,0.012063
184.099,63.5852,0.012063
184.131,63.5789,0.012063
184.162,63.5726,0.012063
184.193,63.5664,0.012063
184.224,63.5602,0.012063
184.255,63.5540,0.012063
184.286,63.5476,0.012063
184.317,63.5415,0.012063
184.349,63.5351,0.012073
184.379,63.5293,0.012073
184.410,63.5231,0.012073
184.441,63.5166,0.012073
184.472,63.5107,0.012073
184.503,63.5043,0.012073
184.535,63.4979,0.012073
184.566,63.4918,0.012073
184.596,63.4859,0.012045
184.627,63.4795,0.012045
184.658,63.4733,0.012045
184.690,63.4669,0.012045
184.721,63.4607,0.012045
184.753,63.4544,0.012045
184.783,63.4484,0.012045
184.815,63.4420,0.012045
184.847,63.4355,0.011998
184.877,63.4296,0.011998
184.909,63.4232,0.011998
184.939,63.4170,0.011998
184.970,63.4111,0.011998
185.001,63.4047,0.011998
185.032,63.3985,0.011998
185.063,63.3923,0.012007
185.094,63.3861,0.012007
185.124,63.3802,0.012007
185.155,63.3741,0.012007
185.186,63.3679,0.012007
185.216,63.3617,0.012007
185.247,63.3556,0.012007
185.278,63.3493,0.012007
185.309,63.3434,0.012016
185.340,63.3370,0.012016
185.371,63.3307,0.012016
185.403,63.3244,0.012016
185.434,63.3182,0.012016
185.464,63.3121,0.012016
185.497,63.3058,0.012016
185.528,63.2995,0.012016
185.559,63.2933,0.011998
185.590,63.2869,0.011998
185.621,63.2809,0.011998
185.651,63.2748,0.011998
185.682,63.2687,0.011998
185.712,63.2625,0.011998
185.743,63.2563,0.011998
185.774,63.2501,0.011998
185.805,63.2440,0.011998
185.836,63.2377,0.012026
185.868,63.2315,0.012026
185.898,63.2253,0.012026
185.930,63.2191,0.012026
185.961,63.2128,0.012026
185.991,63.2067,0.012026
186.021,63.2007,0.012026
186.053,63.1944,0.012063
186.085,63.1881,0.012063
186.116,63.1819,0.012063
186.147,63.1756,0.012063
186.178,63.1694,0.012063
186.210,63.1629,0.012063
186.242,63.1567,0.012063
186.272,63.1505,0.012063
186.304,63.1443,0.012063
186.336,63.1379,0.012054
186.366,63.1319,0.012054
186.397,63.1256,0.012054
186.427,63.1196,0.012054
186.458,63.1133,0.012054
186.490,63.1071,0.012054
186.520,63.1010,0.012054
186.551,63.0949,0.012063
186.581,63.0887,0.012063
186.612,63.0824,0.012063
186.643,63.0762,0.012063
186.675,63.0700,0.012063
186.707,63.0636,0.012063
186.738,63.0574,0.012063
186.770,63.0509,0.012063
186.800,63.0450,0.012035
186.831,63.0388,0.012035
186.862,63.0327,0.012035
186.893,63.0264,0.012035
186.924,63.0202,0.012035
186.955,63.0138,0.012035
186.987,63.0078,0.012035
187.018,63.0014,0.012035
187.049,62.9952,0.011998
187.080,62.9891,0.011998
187.110,62.9829,0.011998
187.140,62.9769,0.011998
187.172,62.9707,0.011998
187.203,62.9645,0.011998
187.234,62.9583,0.011998
187.265,62.9518,0.011998
187.297,62.9457,0.011998
187.328,62.9394,0.011998
187.360,62.9332,0.011998
187.391,62.9268,0.011998
187.421,62.9208,0.011998
187.454,62.9142,0.011998
187.484,62.9083,0.011998
187.515,62.9020,0.011998
187.546,62.8958,0.011988
187.577,62.8896,0.011988
187.608,62.8834,0.011988
187.640,62.8772,0.011988
187.671,62.8710,0.011988
187.702,62.8646,0.011988
187.733,62.8584,0.011988
187.764,62.8522,0.011988
187.795,62.8460,0.012026
187.826,62.8398,0.012026
187.857,62.8335,0.012026
187.888,62.8273,0.012026
187.919,62.8212,0.012026
187.950,62.8149,0.012026
187.981,62.8089,0.012026
188.012,62.8026,0.012026
188.043,62.7964,0.012026
188.074,62.7902,0.012045
188.106,62.7839,0.012045
188.137,62.7776,0.012045
188.168,62.7714,0.012045
188.199,62.7652,0.012045
188.230,62.7591,0.012045
188.261,62.7528,0.012045
188.292,62.7466,0.012035
188.324,62.7402,0.012035
188.354,62.7343,0.012035
188.385,62.7280,0.012035
188.417,62.7215,0.012035
188.449,62.7153,0.012035
188.479,62.7092,0.012035
188.511,62.7029,0.012035
188.542,62.6967,0.012035
188.573,62.6904,0.012026
188.605,62.6839,0.012026
188.635,62.6781,0.012026
188.667,62.6718,0.012026
188.698,62.6653,0.012026
188.729,62.6592,0.012026
188.760,62.6530,0.012026
188.792,62.6467,0.011998
188.823,62.6403,0.011998
188.855,62.6341,0.011998
188.886,62.6277,0.011998
188.917,62.6215,0.011998
188.948,62.6153,0.011998
188.979,62.6091,0.011998
189.010,62.6028,0.011998
189.041,62.5969,0.012016
189.072,62.5907,0.012016
189.103,62.5843,0.012016
189.134,62.5781,0.012016
189.167,62.5717,0.012016
189.195,62.5660,0.012016
189.227,62.5595,0.012016
189.259,62.5533,0.012016
189.290,62.5470,0.012007
189.321,62.5408,0.012007
189.351,62.5346,0.012007
189.383,62.5285,0.012007
189.414,62.5221,0.012007
189.445,62.5159,0.012007
189.476,62.5097,0.012007
189.507,62.5036,0.012007
189.540,62.4971,0.012026
189.570,62.4909,0.012026
189.601,62.4849,0.012026
189.634,62.4782,0.012026
189.663,62.4725,0.012026
189.693,62.4664,0.012026
189.724,62.4602,0.012026
189.756,62.4539,0.012026
189.787,62.4475,0.012026
189.819,62.4412,0.012035
189.850,62.4350,0.012035
189.882,62.4287,0.012035
189.913,62.4226,0.012035
189.943,62.4165,0.012035
189.975,62.4101,0.012035
190.006,62.4040,0.012035
190.036,62.3978,0.012035
190.067,62.3917,0.012035
190.097,62.3856,0.012035
190.128,62.3794,0.012035
190.159,62.3731,0.012035
190.190,62.3669,0.012035
190.221,62.3608,0.012035
190.252,62.3548,0.012035
190.284,62.3482,0.012035
190.315,62.3421,0.012026
190.346,62.3358,0.012026
190.377,62.3297,0.012026
190.409,62.3234,0.012026
190.440,62.3168,0.012026
190.472,62.3105,0.012026
190.504,62.3043,0.012026
190.535,62.2982,0.012026
190.566,62.2920,0.011951
190.597,62.2854,0.011951
190.629,62.2794,0.011951
190.660,62.2732,0.011951
190.690,62.2671,0.011951
190.721,62.2608,0.011951
190.752,62.2547,0.011951
190.783,62.2484,0.011951
190.813,62.2424,0.011951
190.845,62.2361,0.011932
190.876,62.2299,0.011932
190.908,62.2234,0.011932
190.939,62.2172,0.011932
190.971,62.2109,0.011932
191.002,62.2047,0.011932
191.033,62.1985,0.011932
191.063,62.1923,0.011969
191.095,62.1861,0.011969
191.126,62.1799,0.011969
191.156,62.1738,0.011969
191.188,62.1676,0.011969
191.218,62.1613,0.011969
191.249,62.1552,0.011969
191.280,62.1490,0.011969
191.311,62.1426,0.011951
191.342,62.1366,0.011951
191.373,62.1305,0.011951
191.404,62.1243,0.011951
191.435,62.1180,0.011951
191.466,62.1119,0.011951
191.497,62.1057,0.011951
191.527,62.0997,0.011951
191.557,62.0935,0.011951
191.590,62.0871,0.011951
191.620,62.0810,0.011951
191.651,62.0748,0.011951
191.683,62.0685,0.011951
191.712,62.0626,0.011951
191.743,62.0564,0.011951
191.774,62.0500,0.011951
191.806,62.0438,0.012016
191.837,62.0375,0.012016
191.868,62.0314,0.012016
191.899,62.0252,0.012016
191.930,62.0189,0.012016
191.960,62.0128,0.012016
191.992,62.0068,0.012016
192.022,62.0007,0.012016
192.053,61.9946,0.012045
192.085,61.9879,0.012045
192.115,61.9820,0.012045
192.146,61.9759,0.012045
192.178,61.9694,0.012045
192.209,61.9633,0.012045
192.240,61.9571,0.012045
192.271,61.9507,0.012045
192.302,61.9446,0.012045
192.333,61.9383,0.012092
192.366,61.9320,0.012092
192.395,61.9256,0.012092
192.426,61.9198,0.012092
192.459,61.9134,0.012092
192.490,61.9070,0.012092
192.520,61.9011,0.012092
192.551,61.8949,0.012092
192.582,61.8887,0.012054
192.613,61.8824,0.012054
192.644,61.8763,0.012054
192.675,61.8701,0.012054
192.706,61.8639,0.012054
192.737,61.8576,0.012054
192.768,61.8515,0.012054
192.799,61.8452,0.012054
192.831,61.8390,0.012026
192.862,61.8326,0.012026
192.893,61.8263,0.012026
192.924,61.8202,0.012026
192.955,61.8141,0.012026
192.986,61.8078,0.012026
193.017,61.8016,0.012026
193.048,61.7955,0.012026
193.078,61.7895,0.012007
193.109,61.7833,0.012007
193.140,61.7771,0.012007
193.172,61.7707,0.012007
193.204,61.7643,0.012007
193.235,61.7581,0.012007
193.266,61.7519,0.012007
193.297,61.7456,0.012007
193.327,61.7396,0.011951
193.358,61.7334,0.011951
193.389,61.7273,0.011951
193.420,61.7210,0.011951
193.451,61.7148,0.011951
193.482,61.7087,0.011951
193.513,61.7020,0.011951
193.544,61.6962,0.011951
193.575,61.6901,0.011951
193.605,61.6839,0.011998
193.636,61.6780,0.011998
193.667,61.6716,0.011998
193.698,61.6654,0.011998
193.730,61.6591,0.011998
193.761,61.6529,0.011998
193.792,61.6466,0.011998
193.823,61.6405,0.012054
193.854,61.6343,0.012054
193.885,61.6280,0.012054
193.916,61.6218,0.012054
193.947,61.6156,0.012054
193.978,61.6096,0.012054
194.008,61.6034,0.012054
194.039,61.5971,0.012054
194.070,61.5908,0.012035
194.102,61.5847,0.012035
194.132,61.5788,0.012035
194.163,61.5724,0.012035
194.194,61.5664,0.012035
194.224,61.5601,0.012035
194.255,61.5541,0.012035
194.286,61.5477,0.012035
194.318,61.5415,0.012026
194.348,61.5355,0.012026
194.380,61.5291,0.012026
194.410,61.5229,0.012026
194.443,61.5164,0.012026
194.474,61.5102,0.012026
194.505,61.5041,0.012026
194.536,61.4979,0.012026
194.567,61.4918,0.011998
194.597,61.4856,0.011998
194.628,61.4793,0.011998
194.659,61.4732,0.011998
194.691,61.4669,0.011998
194.722,61.4607,0.011998
194.753,61.4545,0.011998
194.784,61.4483,0.011998
194.814,61.4422,0.011979
194.845,61.4360,0.011979
194.877,61.4297,0.011979
194.909,61.4234,0.011979
194.940,61.4172,0.011979
194.971,61.4108,0.011979
195.002,61.4047,0.011979
195.033,61.3984,0.011979
195.064,61.3923,0.012063
195.095,61.3860,0.012063
195.127,61.3797,0.012063
195.157,61.3737,0.012063
195.188,61.3673,0.012063
195.219,61.3612,0.012063
195.252,61.3546,0.012063
195.283,61.3484,0.012063
195.313,61.3425,0.012073
195.344,61.3363,0.012073
195.376,61.3300,0.012073
195.407,61.3236,0.012073
195.439,61.3171,0.012073
195.470,61.3111,0.012073
195.502,61.3048,0.012073
195.533,61.2985,0.012073
195.564,61.2924,0.012035
195.595,61.2861,0.012035
195.626,61.2799,0.012035
195.657,61.2735,0.012035
195.689,61.2673,0.012035
195.720,61.2611,0.012035
195.750,61.2549,0.012035
195.781,61.2487,0.012035
195.812,61.2426,0.011998
195.842,61.2368,0.011998
195.873,61.2305,0.011998
195.904,61.2243,0.011998
195.935,61.2181,0.011998
195.966,61.2119,0.011998
195.996,61.2058,0.011998
196.027,61.1996,0.011998
196.059,61.1934,0.012045
196.090,61.1868,0.012045
196.122,61.1806,0.012045
196.153,61.1746,0.012045
196.184,61.1682,0.012045
196.215,61.1622,0.012045
196.246,61.1557,0.012045
196.277,61.1496,0.012045
196.308,61.1434,0.012082
196.339,61.1371,0.012082
196.370,61.1312,0.012082
196.400,61.1251,0.012082
196.431,61.1187,0.012082
196.463,61.1125,0.012082
196.494,61.1070,0.012082
196.525,61.1021,0.012082
196.556,61.0980,0.012026
196.586,61.0947,0.012026
196.617,61.0920,0.012026
196.648,61.0900,0.012026
196.679,61.0887,0.012026
196.710,61.0882,0.012026
196.741,61.0882,0.012026
196.772,61.0882,0.012026
196.804,61.0882,0.011988
196.836,61.0882,0.011988
196.862,61.0884,0.011988
196.897,61.0894,0.011988
196.928,61.0910,0.011988
196.960,61.0933,0.011988
196.992,61.0967,0.011988
197.024,61.1005,0.011988
197.054,61.1050,0.011969
197.086,61.1104,0.011969
197.116,61.1163,0.011969
197.147,61.1227,0.011969
197.179,61.1288,0.011969
197.210,61.1350,0.011969
197.240,61.1411,0.011969
197.271,61.1473,0.011969
197.302,61.1536,0.011998
197.334,61.1598,0.011998
197.365,61.1660,0.011998
197.395,61.1722,0.011998
197.427,61.1785,0.011998
197.458,61.1847,0.011998
197.490,61.1911,0.011998
197.520,61.1970,0.011998
197.551,61.2032,0.011998
197.581,61.2093,0.011988
197.612,61.2155,0.011988
197.644,61.2217,0.011988
197.674,61.2280,0.011988
197.706,61.2342,0.011988
197.736,61.2404,0.011988
197.767,61.2465,0.011988
197.798,61.2528,0.011988
197.829,61.2589,0.011988
197.860,61.2650,0.011988
197.890,61.2712,0.011988
197.921,61.2773,0.011988
197.952,61.2838,0.011988
197.982,61.2895,0.011988
198.014,61.2959,0.011988
198.045,61.3021,0.011988
198.076,61.3083,0.012063
198.106,61.3143,0.012063
198.138,61.3207,0.012063
198.169,61.3269,0.012063
198.200,61.3331,0.012063
198.231,61.3393,0.012063
198.261,61.3452,0.012063
198.292,61.3514,0.012063
198.323,61.3577,0.012082
198.355,61.3639,0.012082
198.385,61.3701,0.012082
198.416,61.3762,0.012082
198.447,61.3825,0.012082
198.478,61.3886,0.012082
198.509,61.3952,0.012082
198.540,61.4012,0.012082
198.571,61.4072,0.012082
198.602,61.4134,0.012007
198.632,61.4195,0.012007
198.663,61.4256,0.012007
198.693,61.4317,0.012007
198.725,61.4381,0.012007
198.756,61.4443,0.012007
198.787,61.4505,0.012007
198.817,61.4565,0.012007
198.849,61.4629,0.012007
198.881,61.4691,0.012007
198.912,61.4756,0.012007
198.943,61.4818,0.012007
198.974,61.4878,0.012007
199.005,61.4940,0.012007
199.036,61.5004,0.012007
199.067,61.5066,0.012035
199.098,61.5125,0.012035
199.130,61.5190,0.012035
199.159,61.5249,0.012035
199.192,61.5314,0.012035
199.223,61.5376,0.012035
199.254,61.5439,0.012035
199.286,61.5502,0.012035
199.316,61.5563,0.012026
199.348,61.5628,0.012026
199.379,61.5688,0.012026
199.411,61.5754,0.012026
199.442,61.5815,0.012026
199.473,61.5878,0.012026
199.504,61.5938,0.012026
199.534,61.6000,0.012026
199.565,61.6062,0.012026
199.597,61.6125,0.012026
199.628,61.6187,0.012026
199.658,61.6248,0.012026
199.690,61.6311,0.012026
199.721,61.6373,0.012026
199.753,61.6437,0.012026
199.784,61.6499,0.012026
199.816,61.6563,0.012035
199.846,61.6623,0.012035
199.877,61.6687,0.012035
199.909,61.6749,0.012035
199.940,61.6812,0.012035
199.971,61.6871,0.012035
200.002,61.6934,0.012035
200.033,61.6996,0.012035
200.064,61.7059,0.012035
200.096,61.7123,0.011988
200.127,61.7185,0.011988
200.159,61.7249,0.011988
200.189,61.7308,0.011988
200.221,61.7374,0.011988
200.250,61.7432,0.011988
200.282,61.7494,0.011988
200.312,61.7556,0.011988
200.343,61.7616,0.011969
200.374,61.7680,0.011969
200.406,61.7742,0.011969
200.438,61.7807,0.011969
200.469,61.7869,0.011969
200.500,61.7932,0.011969
200.532,61.7994,0.011969
200.563,61.8058,0.011969
200.595,61.8122,0.012016
200.625,61.8181,0.012016
200.656,61.8242,0.012016
200.687,61.8306,0.012016
200.718,61.8368,0.012016
200.749,61.8429,0.012016
200.780,61.8491,0.012016
200.812,61.8553,0.012035
200.842,61.8614,0.012035
200.873,61.8676,0.012035
200.904,61.8738,0.012035
200.935,61.8800,0.012035
200.966,61.8862,0.012035
200.997,61.8924,0.012035
201.028,61.8987,0.012035
201.059,61.9048,0.012026
201.090,61.9111,0.012026
201.121,61.9172,0.012026
201.153,61.9237,0.012026
201.184,61.9300,0.012026
201.215,61.9362,0.012026
201.247,61.9423,0.012026
201.278,61.9486,0.012026
201.308,61.9547,0.011998
201.339,61.9609,0.011998
201.370,61.9669,0.011998
201.401,61.9733,0.011998
201.431,61.9793,0.011998
201.463,61.9857,0.011998
201.495,61.9921,0.011998
201.525,61.9982,0.011998
201.557,62.0044,0.012016
201.589,62.0109,0.012016
201.619,62.0168,0.012016
201.651,62.0233,0.012016
201.681,62.0292,0.012016
201.712,62.0354,0.012016
201.743,62.0416,0.012016
201.774,62.0479,0.012016
201.805,62.0541,0.012016
201.836,62.0602,0.012016
201.867,62.0663,0.012016
201.898,62.0726,0.012016
201.928,62.0786,0.012016
201.959,62.0848,0.012016
201.990,62.0910,0.012016
202.021,62.0973,0.012016
202.053,62.1037,0.011969
202.085,62.1101,0.011969
202.114,62.1159,0.011969
202.145,62.1221,0.011969
202.178,62.1285,0.011969
202.208,62.1346,0.011969
202.239,62.1408,0.011969
202.269,62.1470,0.011969
202.300,62.1531,0.011969
202.331,62.1596,0.011969
202.364,62.1658,0.011951
202.393,62.1717,0.011951
202.424,62.1779,0.011951
202.455,62.1841,0.011951
202.486,62.1904,0.011951
202.517,62.1964,0.011951
202.548,62.2027,0.011951
202.579,62.2088,0.012007
202.610,62.2151,0.012007
202.640,62.2212,0.012007
202.671,62.2274,0.012007
202.701,62.2333,0.012007
202.734,62.2399,0.012007
202.765,62.2460,0.012007
202.795,62.2520,0.012007
202.826,62.2582,0.012035
202.857,62.2644,0.012035
202.888,62.2707,0.012035
202.919,62.2768,0.012035
202.950,62.2831,0.012035
202.981,62.2893,0.012035
203.014,62.2957,0.012035
203.043,62.3017,0.012035
203.075,62.3080,0.012026
203.106,62.3142,0.012026
203.137,62.3204,0.012026
203.168,62.3265,0.012026
203.198,62.3328,0.012026
203.230,62.3390,0.012026
203.264,62.3457,0.012026
203.293,62.3518,0.012026
203.324,62.3580,0.012063
203.354,62.3639,0.012063
203.386,62.3703,0.012063
203.417,62.3766,0.012063
203.449,62.3827,0.012063
203.480,62.3891,0.012063
203.511,62.3951,0.012063
203.541,62.4013,0.012063
203.572,62.4076,0.012082
203.603,62.4136,0.012082
203.633,62.4196,0.012082
203.664,62.4258,0.012082
203.694,62.4319,0.012082
203.726,62.4381,0.012082
203.758,62.4446,0.012082
203.789,62.4509,0.012082
203.820,62.4571,0.012073
203.852,62.4635,0.012073
203.883,62.4695,0.012073
203.913,62.4757,0.012073
203.945,62.4821,0.012073
203.975,62.4881,0.012073
204.006,62.4943,0.012073
204.037,62.5004,0.012073
204.068,62.5066,0.012063
204.099,62.5128,0.012063
204.130,62.5190,0.012063
204.160,62.5252,0.012063
204.191,62.5313,0.012063
204.223,62.5375,0.012063
204.254,62.5439,0.012063
204.286,62.5502,0.012063
204.317,62.5564,0.012063
204.348,62.5626,0.012063
204.380,62.5691,0.012063
204.412,62.5754,0.012063
204.443,62.5816,0.012063
204.474,62.5879,0.012063
204.506,62.5941,0.012063
204.536,62.6002,0.012063
204.566,62.6063,0.012026
204.596,62.6122,0.012026
204.627,62.6184,0.012026
204.657,62.6245,0.012026
204.688,62.6306,0.012026
204.719,62.6368,0.012026
204.750,62.6430,0.012026
204.782,62.6493,0.012026
204.813,62.6555,0.011988
204.844,62.6618,0.011988
204.877,62.6684,0.011988
204.908,62.6746,0.011988
204.942,62.6813,0.011988
204.971,62.6873,0.011988
205.003,62.6935,0.011988
205.035,62.7000,0.011988
205.065,62.7060,0.011960
205.096,62.7122,0.011960
205.127,62.7184,0.011960
205.158,62.7246,0.011960
205.190,62.7312,0.011960
205.221,62.7371,0.011960
205.251,62.7432,0.011960
205.282,62.7494,0.011960
205.313,62.7556,0.011941
205.344,62.7619,0.011941
205.376,62.7681,0.011941
205.407,62.7745,0.011941
205.438,62.7807,0.011941
205.469,62.7869,0.011941
205.501,62.7931,0.011941
205.532,62.7995,0.011941
205.565,62.8062,0.011979
205.595,62.8120,0.011979
205.627,62.8184,0.011979
205.656,62.8244,0.011979
205.688,62.8305,0.011979
205.718,62.8368,0.011979
205.749,62.8428,0.011979
205.779,62.8489,0.012026
205.810,62.8551,0.012026
205.841,62.8613,0.012026
205.872,62.8676,0.012026
205.904,62.8737,0.012026
205.936,62.8803,0.012026
205.967,62.8863,0.012026
205.997,62.8925,0.012026
206.029,62.8989,0.012026
206.060,62.9051,0.012054
206.090,62.9110,0.012054
206.121,62.9172,0.012054
206.152,62.9233,0.012054
206.183,62.9297,0.012054
206.213,62.9357,0.012054
206.243,62.9416,0.012054
206.274,62.9478,0.012054
206.305,62.9540,0.012082
206.337,62.9604,0.012082
206.367,62.9663,0.012082
206.398,62.9725,0.012082
206.429,62.9789,0.012082
206.461,62.9852,0.012082
206.493,62.9916,0.012082
206.524,62.9980,0.012082
206.555,63.0040,0.011960
206.586,63.0104,0.011960
206.617,63.0164,0.011960
206.648,63.0226,0.011960
206.679,63.0290,0.011960
206.711,63.0352,0.011960
206.742,63.0415,0.011960
206.773,63.0477,0.011960
206.805,63.0539,0.011960
206.836,63.0602,0.011960
206.866,63.0663,0.011960
206.897,63.0725,0.011960
206.929,63.0789,0.011960
206.959,63.0848,0.011960
206.990,63.0910,0.011960
207.021,63.0974,0.011960
207.052,63.1034,0.012026
207.083,63.1096,0.012026
207.113,63.1157,0.012026
207.145,63.1219,0.012026
207.176,63.1283,0.012026
207.208,63.1345,0.012026
207.239,63.1408,0.012026
207.270,63.1469,0.012026
207.301,63.1532,0.012026
207.332,63.1593,0.012026
207.363,63.1658,0.012007
207.395,63.1721,0.012007
207.425,63.1779,0.012007
207.457,63.1845,0.012007
207.487,63.1904,0.012007
207.519,63.1969,0.012007
207.550,63.2031,0.012007
207.582,63.2095,0.012054
207.614,63.2157,0.012054
207.645,63.2222,0.012054
207.677,63.2283,0.012054
207.708,63.2348,0.012054
207.740,63.2410,0.012054
207.770,63.2469,0.012054
207.800,63.2529,0.012054
207.831,63.2593,0.011998
207.862,63.2656,0.011998
207.893,63.2717,0.011998
207.924,63.2779,0.011998
207.956,63.2842,0.011998
207.985,63.2900,0.011998
208.015,63.2961,0.011998
208.047,63.3024,0.011998
208.078,63.3086,0.011969
208.109,63.3148,0.011969
208.140,63.3209,0.011969
208.172,63.3274,0.011969
208.203,63.3336,0.011969
208.233,63.3396,0.011969
208.264,63.3458,0.011969
208.296,63.3522,0.011969
208.327,63.3585,0.012016
208.358,63.3646,0.012016
208.388,63.3706,0.012016
208.419,63.3768,0.012016
208.450,63.3830,0.012016
208.481,63.3894,0.012016
208.512,63.3954,0.012016
208.543,63.4016,0.012016
208.574,63.4079,0.012007
208.605,63.4142,0.012007
208.636,63.4203,0.012007
208.667,63.4265,0.012007
208.698,63.4325,0.012007
208.729,63.4390,0.012007
208.761,63.4452,0.012007
208.792,63.4515,0.012007
208.823,63.4575,0.011969
208.854,63.4638,0.011969
208.885,63.4701,0.011969
208.916,63.4762,0.011969
208.947,63.4825,0.011969
208.978,63.4885,0.011969
209.009,63.4949,0.011969
209.040,63.5010,0.011969
209.072,63.5074,0.011969
209.102,63.5134,0.011960
209.133,63.5196,0.011960
209.163,63.5257,0.011960
209.195,63.5319,0.011960
209.226,63.5381,0.011960
209.258,63.5445,0.011960
209.289,63.5507,0.011960
209.320,63.5571,0.012007
209.351,63.5634,0.012007
209.382,63.5693,0.012007
209.414,63.5757,0.012007
209.445,63.5819,0.012007
209.476,63.5882,0.012007
209.508,63.5948,0.012007
209.539,63.6008,0.012007
209.571,63.6074,0.012007
209.604,63.6137,0.012007
209.633,63.6197,0.012007
209.663,63.6258,0.012007
209.694,63.6318,0.012007
209.726,63.6383,0.012007
209.757,63.6444,0.012007
209.788,63.6507,0.012007
209.818,63.6568,0.012007
209.849,63.6630,0.012016
209.880,63.6690,0.012016
209.912,63.6754,0.012016
209.943,63.6816,0.012016
209.974,63.6879,0.012016
210.005,63.6940,0.012016
210.036,63.7003,0.012016
210.067,63.7065,0.012016
210.099,63.7127,0.011998
210.130,63.7191,0.011998
210.161,63.7251,0.011998
210.193,63.7317,0.011998
210.223,63.7376,0.011998
210.254,63.7438,0.011998
210.285,63.7499,0.011998
210.316,63.7561,0.011998
210.347,63.7623,0.012016
210.378,63.7686,0.012016
210.409,63.7747,0.012016
210.440,63.7809,0.012016
210.471,63.7872,0.012016
210.503,63.7936,0.012016
210.534,63.7998,0.012016
210.565,63.8060,0.012016
210.596,63.8122,0.012054
210.626,63.8184,0.012054
210.658,63.8248,0.012054
210.690,63.8310,0.012054
210.722,63.8373,0.012054
210.754,63.8438,0.012054
210.785,63.8501,0.012054
210.815,63.8561,0.012054
210.846,63.8623,0.012054
210.876,63.8682,0.012054
210.907,63.8744,0.012054
210.938,63.8805,0.012054
210.969,63.8867,0.012054
211.000,63.8930,0.012054
211.031,63.8992,0.012054
211.063,63.9056,0.012054
211.094,63.9118,0.012026
211.126,63.9182,0.012026
211.158,63.9244,0.012026
211.190,63.9310,0.012026
211.221,63.9372,0.012026
211.254,63.9436,0.012026
211.285,63.9500,0.012026
211.316,63.9562,0.012026
211.346,63.9624,0.011969
211.376,63.9682,0.011969
211.407,63.9744,0.011969
211.439,63.9808,0.011969
211.469,63.9868,0.011969
211.499,63.9927,0.011969
211.530,63.9988,0.011969
211.561,64.0051,0.011969
211.592,64.0112,0.011969
211.623,64.0177,0.011969
211.653,64.0236,0.011969
211.685,64.0301,0.011969
211.715,64.0360,0.011969
211.747,64.0425,0.011969
211.779,64.0488,0.011969
211.809,64.0549,0.011969
211.840,64.0610,0.012045
211.871,64.0670,0.012045
211.903,64.0722,0.012045
211.934,64.0768,0.012045
211.966,64.0806,0.012045
211.997,64.0835,0.012045
212.027,64.0858,0.012045
212.059,64.0873,0.012110
212.090,64.0881,0.012110
212.121,64.0882,0.012110
212.152,64.0882,0.012110
212.183,64.0882,0.012110
212.213,64.0882,0.012110
