Elapsed Time (s),Position (mm),Force (N)
-0.016,81.4094,-0.019207
0.014,81.4094,-0.019207
0.046,81.4094,-0.019207
0.078,81.4094,-0.019207
0.109,81.4094,-0.019207
0.140,81.4094,-0.018021
0.171,81.4094,-0.018021
0.202,81.4094,-0.018021
0.233,81.4094,-0.018021
0.264,81.4094,-0.018021
0.295,81.4094,-0.018021
0.327,81.4094,-0.018021
0.358,81.4094,-0.018021
0.388,81.4094,-0.018021
0.420,81.4094,-0.016148
0.452,81.4094,-0.016148
0.482,81.4094,-0.016148
0.513,81.4094,-0.016148
0.544,81.4094,-0.016148
0.575,81.4094,-0.016148
0.605,81.4094,-0.016148
0.636,81.4094,-0.014831
0.668,81.4094,-0.014831
0.699,81.4094,-0.014831
0.730,81.4094,-0.014831
0.761,81.4094,-0.014831
0.791,81.4094,-0.014831
0.823,81.4094,-0.014831
0.854,81.4094,-0.014831
0.885,81.4094,-0.014831
0.916,81.4094,-0.013918
0.946,81.4094,-0.013918
0.977,81.4094,-0.013918
1.009,81.4094,-0.013918
1.039,81.4094,-0.013918
1.070,81.4094,-0.013918
1.102,81.4094,-0.013918
1.133,81.4094,-0.013918
1.165,81.4094,-0.013231
1.195,81.4094,-0.013231
1.227,81.4094,-0.013231
1.258,81.4094,-0.013231
1.289,81.4094,-0.013231
1.319,81.4094,-0.013231
1.350,81.4094,-0.013231
1.382,81.4094,-0.013231
1.413,81.4094,-0.012601
1.445,81.4094,-0.012601
1.475,81.4094,-0.012601
1.507,81.4094,-0.012601
1.538,81.4094,-0.012601
1.569,81.4094,-0.012601
1.601,81.4094,-0.012601
1.631,81.4094,-0.012601
1.662,81.4094,-0.012121
1.693,81.4094,-0.012121
1.726,81.4094,-0.012121
1.755,81.4094,-0.012121
1.786,81.4094,-0.012121
1.817,81.4094,-0.012121
1.848,81.4094,-0.012121
1.878,81.4094,-0.011697
1.909,81.4094,-0.011697
1.940,81.4094,-0.011697
1.970,81.4094,-0.011697
2.001,81.4094,-0.011697
2.032,81.4094,-0.011697
2.063,81.4094,-0.011697
2.094,81.4094,-0.011697
2.125,81.4094,-0.011302
2.156,81.4094,-0.011302
2.188,81.4094,-0.011302
2.219,81.4094,-0.011302
2.249,81.4094,-0.011302
2.280,81.4094,-0.011302
2.311,81.4094,-0.011302
2.344,81.4094,-0.011302
2.374,81.4094,-0.011302
2.405,81.4094,-0.010973
2.436,81.4094,-0.010973
2.467,81.4094,-0.010973
2.498,81.4094,-0.010973
2.529,81.4094,-0.010973
2.561,81.4094,-0.010973
2.592,81.4094,-0.010973
2.623,81.4094,-0.010973
2.653,81.4094,-0.010690
2.684,81.4094,-0.010690
2.715,81.4094,-0.010690
2.745,81.4094,-0.010690
2.776,81.4094,-0.010690
2.808,81.4094,-0.010690
2.842,81.4094,-0.010690
2.870,81.4094,-0.010690
2.901,81.4094,-0.010427
2.932,81.4094,-0.010427
2.964,81.4094,-0.010427
2.995,81.4094,-0.010427
3.026,81.4094,-0.010427
3.057,81.4094,-0.010427
3.089,81.4094,-0.010427
3.120,81.4094,-0.010427
3.151,81.4094,-0.010427
3.182,81.4094,-0.010126
3.213,81.4094,-0.010126
3.244,81.4094,-0.010126
3.276,81.4094,-0.010126
3.307,81.4094,-0.010126
3.338,81.4094,-0.010126
3.369,81.4094,-0.010126
3.402,81.4094,-0.009956
3.433,81.4094,-0.009956
3.463,81.4094,-0.009956
3.494,81.4094,-0.009956
3.528,81.4094,-0.009956
3.557,81.4094,-0.009956
3.589,81.4094,-0.009956
3.619,81.4094,-0.009740
3.650,81.4094,-0.009740
3.680,81.4094,-0.009740
3.712,81.4094,-0.009740
3.742,81.4094,-0.009740
3.773,81.4094,-0.009740
3.803,81.4094,-0.009740
3.835,81.4094,-0.009740
3.866,81.4094,-0.009740
3.897,81.4094,-0.009467
3.927,81.4094,-0.009467
3.958,81.4094,-0.009467
3.990,81.4094,-0.009467
4.020,81.4094,-0.009467
4.051,81.4094,-0.009467
4.082,81.4094,-0.009467
4.113,81.4094,-0.009467
4.144,81.4091,-0.009467
4.174,81.4081,-0.009288
4.206,81.4063,-0.009288
4.236,81.4039,-0.009288
4.268,81.4007,-0.009288
4.299,81.3967,-0.009288
4.331,81.3919,-0.009288
4.361,81.3867,-0.009288
4.393,81.3803,-0.009288
4.423,81.3738,-0.008865
4.455,81.3658,-0.008865
4.486,81.3579,-0.008865
4.518,81.3483,-0.008865
4.548,81.3388,-0.008865
4.579,81.3281,-0.008865
4.610,81.3173,-0.008865
4.642,81.3049,-0.008865
4.672,81.2925,-0.005006
4.704,81.2786,-0.005006
4.734,81.2645,-0.005006
4.766,81.2496,-0.005006
4.796,81.2345,-0.005006
4.828,81.2179,-0.005006
4.858,81.2010,-0.005006
4.890,81.1826,-0.005006
4.920,81.1649,0.002738
4.951,81.1459,0.002738
4.981,81.1263,0.002738
5.013,81.1050,0.002738
5.043,81.0844,0.002738
5.073,81.0622,0.002738
5.104,81.0401,0.002738
5.135,81.0166,0.010709
5.167,80.9916,0.010709
5.198,80.9665,0.010709
5.230,80.9396,0.010709
5.260,80.9146,0.010709
5.291,80.8873,0.010709
5.321,80.8597,0.010709
5.352,80.8315,0.010709
5.384,80.8013,0.016421
5.413,80.7736,0.016421
5.444,80.7421,0.016421
5.475,80.7105,0.016421
5.506,80.6787,0.016421
5.536,80.6461,0.016421
5.567,80.6119,0.016421
5.598,80.5774,0.016421
5.629,80.5438,0.020675
5.660,80.5080,0.020675
5.691,80.4711,0.020675
5.724,80.4312,0.020675
5.753,80.3961,0.020675
5.783,80.3570,0.020675
5.814,80.3186,0.020675
5.846,80.2773,0.020675
5.876,80.2380,0.020675
5.907,80.1959,0.026923
5.937,80.1544,0.026923
5.968,80.1111,0.026923
5.999,80.0682,0.026923
6.031,80.0217,0.026923
6.062,79.9764,0.026923
6.093,79.9310,0.026923
6.124,79.8846,0.036051
6.155,79.8360,0.036051
6.186,79.7874,0.036051
6.218,79.7378,0.036051
6.248,79.6894,0.036051
6.279,79.6393,0.036051
6.311,79.5868,0.036051
6.341,79.5369,0.036051
6.371,79.4850,0.043467
6.403,79.4311,0.043467
6.434,79.3774,0.043467
6.464,79.3220,0.043467
6.496,79.2666,0.043467
6.527,79.2086,0.043467
6.557,79.1554,0.043467
6.589,79.0947,0.043467
6.621,79.0348,0.029662
6.652,78.9747,0.029662
6.684,78.9149,0.029662
6.714,78.8556,0.029662
6.746,78.7941,0.029662
6.777,78.7358,0.029662
6.807,78.6771,0.029662
6.838,78.6213,0.029662
6.868,78.5643,0.029662
6.899,78.5091,0.012375
6.930,78.4528,0.012375
6.961,78.3979,0.012375
6.991,78.3466,0.012375
7.022,78.2935,0.012375
7.054,78.2391,0.012375
7.084,78.1886,0.012375
7.115,78.1375,0.012375
7.146,78.0864,0.012375
7.177,78.0372,0.010483
7.208,77.9885,0.010483
7.239,77.9389,0.010483
7.271,77.8911,0.010483
7.301,77.8437,0.010483
7.332,77.7995,0.010483
7.363,77.7528,0.010483
7.394,77.7091,0.010483
7.425,77.6637,0.009495
7.457,77.6203,0.009495
7.487,77.5777,0.009495
7.519,77.5364,0.009495
7.550,77.4955,0.009495
7.581,77.4552,0.009495
7.612,77.4153,0.009495
7.644,77.3749,0.009495
7.674,77.3375,0.008855
7.704,77.3017,0.008855
7.735,77.2652,0.008855
7.766,77.2290,0.008855
7.796,77.1954,0.008855
7.827,77.1606,0.008855
7.857,77.1274,0.008855
7.889,77.0945,0.008855
7.920,77.0615,0.008347
7.950,77.0305,0.008347
7.981,76.9996,0.008347
8.012,76.9699,0.008347
8.043,76.9403,0.008347
8.074,76.9121,0.008347
8.104,76.8847,0.008347
8.135,76.8576,0.008347
8.166,76.8310,0.008027
8.197,76.8046,0.008027
8.229,76.7793,0.008027
8.260,76.7543,0.008027
8.291,76.7311,0.008027
8.322,76.7082,0.008027
8.353,76.6860,0.008027
8.384,76.6647,0.008027
8.414,76.6441,0.007754
8.446,76.6237,0.007754
8.478,76.6043,0.007754
8.509,76.5853,0.007754
8.540,76.5681,0.007754
8.571,76.5507,0.007754
8.603,76.5340,0.007754
8.633,76.5192,0.007566
8.664,76.5040,0.007566
8.695,76.4901,0.007566
8.726,76.4764,0.007566
8.757,76.4639,0.007566
8.787,76.4519,0.007566
8.819,76.4405,0.007566
8.849,76.4302,0.007566
8.880,76.4205,0.007425
8.911,76.4116,0.007425
8.942,76.4033,0.007425
8.977,76.3945,0.007425
9.005,76.3884,0.007425
9.036,76.3822,0.007425
9.067,76.3769,0.007425
9.098,76.3721,0.007425
9.129,76.3683,0.007265
9.159,76.3651,0.007265
9.192,76.3623,0.007265
9.222,76.3607,0.007265
9.255,76.3596,0.007265
9.283,76.3594,0.007265
9.314,76.3594,0.007265
9.346,76.3594,0.007265
9.376,76.3594,0.007265
9.408,76.3594,0.007039
9.438,76.3594,0.007039
9.468,76.3594,0.007039
9.499,76.3595,0.007039
9.530,76.3602,0.007039
9.560,76.3619,0.007039
9.592,76.3642,0.007039
9.623,76.3671,0.007039
9.654,76.3708,0.007039
9.685,76.3752,0.006907
9.716,76.3803,0.006907
9.746,76.3863,0.006907
9.777,76.3927,0.006907
9.808,76.4005,0.006907
9.839,76.4081,0.006907
9.870,76.4169,0.006907
9.901,76.4262,0.006860
9.932,76.4368,0.006860
9.962,76.4473,0.006860
9.993,76.4587,0.006860
10.024,76.4715,0.006860
10.055,76.4846,0.006860
10.086,76.4986,0.006860
10.119,76.5142,0.006860
10.148,76.5284,0.006672
10.179,76.5442,0.006672
10.209,76.5610,0.006672
10.240,76.5778,0.006672
10.271,76.5958,0.006672
10.302,76.6149,0.006672
10.332,76.6342,0.006672
10.363,76.6548,0.006672
10.394,76.6758,0.006597
10.424,76.6966,0.006597
10.456,76.7195,0.006597
10.486,76.7425,0.006597
10.517,76.7662,0.006597
10.548,76.7912,0.006597
10.578,76.8158,0.006597
10.610,76.8434,0.006597
10.641,76.8700,0.006512
10.673,76.8983,0.006512
10.703,76.9263,0.006512
10.735,76.9549,0.006512
10.766,76.9847,0.006512
10.796,77.0150,0.006512
10.827,77.0462,0.006512
10.859,77.0793,0.006512
10.890,77.1119,0.006399
10.920,77.1451,0.006399
10.952,77.1794,0.006399
10.985,77.2160,0.006399
11.015,77.2510,0.006399
11.047,77.2884,0.006399
11.077,77.3244,0.006399
11.109,77.3636,0.006399
11.140,77.4020,0.006296
11.169,77.4397,0.006296
11.200,77.4784,0.006296
11.231,77.5196,0.006296
11.261,77.5593,0.006296
11.291,77.6012,0.006296
11.322,77.6436,0.006296
11.354,77.6889,0.006296
11.384,77.7317,0.006117
11.416,77.7773,0.006117
11.447,77.8230,0.006117
11.478,77.8705,0.006117
11.508,77.9161,0.006117
11.539,77.9642,0.006117
11.570,78.0122,0.006117
11.602,78.0628,0.006117
11.632,78.1124,0.005985
11.663,78.1633,0.005985
11.694,78.2148,0.005985
11.726,78.2687,0.005985
11.760,78.3266,0.005985
11.787,78.3746,0.005985
11.820,78.4307,0.005985
11.849,78.4838,0.005985
11.881,78.5414,0.005825
11.911,78.5970,0.005825
11.942,78.6533,0.005825
11.973,78.7110,0.005825
12.004,78.7710,0.005825
12.035,78.8300,0.005825
12.066,78.8904,0.005825
12.097,78.9490,0.005825
12.128,79.0083,0.005825
12.158,79.0654,0.005825
12.189,79.1226,0.005599
12.221,79.1824,0.005599
12.253,79.2385,0.005599
12.285,79.2956,0.005599
12.316,79.3493,0.005599
12.346,79.4030,0.005599
12.378,79.4582,0.005599
12.410,79.5106,0.005458
12.441,79.5612,0.005458
12.472,79.6123,0.005458
12.502,79.6614,0.005458
12.534,79.7121,0.005458
12.565,79.7617,0.005458
12.595,79.8075,0.005458
12.626,79.8535,0.005458
12.657,79.9006,0.005195
12.688,79.9467,0.005195
12.720,79.9919,0.005195
12.751,80.0369,0.005195
12.782,80.0809,0.005195
12.813,80.1239,0.005195
12.843,80.1645,0.005195
12.874,80.2063,0.005195
12.906,80.2470,0.005195
12.936,80.2863,0.004432
12.967,80.3245,0.004432
12.999,80.3647,0.004432
13.031,80.4027,0.004432
13.061,80.4402,0.004432
13.093,80.4767,0.004432
13.124,80.5130,0.004432
13.156,80.5484,0.002974
13.188,80.5837,0.002974
13.220,80.6170,0.002974
13.251,80.6507,0.002974
13.283,80.6823,0.002974
13.315,80.7149,0.002974
13.345,80.7440,0.002974
13.377,80.7737,0.002974
13.408,80.8034,0.000809
13.438,80.8307,0.000809
13.468,80.8575,0.000809
13.499,80.8839,0.000809
13.531,80.9104,0.000809
13.561,80.9350,0.000809
13.593,80.9603,0.000809
13.624,80.9837,-0.002277
13.655,81.0064,-0.002277
13.685,81.0286,-0.002277
13.716,81.0502,-0.002277
13.748,81.0714,-0.002277
13.779,81.0916,-0.002277
13.809,81.1103,-0.002277
13.839,81.1284,-0.002277
13.870,81.1466,-0.002277
13.905,81.1654,-0.002277
13.933,81.1807,-0.006757
13.964,81.1964,-0.006757
13.994,81.2110,-0.006757
14.025,81.2252,-0.006757
14.056,81.2391,-0.006757
14.087,81.2515,-0.006757
14.118,81.2638,-0.006757
14.149,81.2754,-0.012196
14.180,81.2861,-0.012196
14.212,81.2962,-0.012196
14.243,81.3055,-0.012196
14.274,81.3141,-0.012196
14.304,81.3218,-0.012196
14.335,81.3285,-0.012196
14.366,81.3351,-0.012196
14.398,81.3406,-0.012196
14.429,81.3456,-0.017089
14.460,81.3497,-0.017089
14.491,81.3530,-0.017089
14.524,81.3559,-0.017089
14.554,81.3578,-0.017089
14.585,81.3589,-0.017089
14.616,81.3594,-0.017089
14.647,81.3594,-0.019348
14.678,81.3594,-0.019348
14.708,81.3594,-0.019348
14.740,81.3594,-0.019348
14.771,81.3594,-0.019348
14.802,81.3594,-0.019348
14.833,81.3594,-0.019348
14.864,81.3594,-0.019348
14.895,81.3594,-0.019348
14.926,81.3594,-0.019348
14.958,81.3594,-0.018397
14.989,81.3594,-0.018397
15.020,81.3594,-0.018397
15.050,81.3594,-0.018397
15.082,81.3594,-0.018397
15.112,81.3594,-0.018397
15.143,81.3594,-0.018397
15.174,81.3594,-0.016478
15.206,81.3594,-0.016478
15.237,81.3594,-0.016478
15.268,81.3594,-0.016478
15.298,81.3594,-0.016478
15.329,81.3594,-0.016478
15.360,81.3594,-0.016478
15.391,81.3594,-0.016478
15.422,81.3594,-0.015094
15.453,81.3594,-0.015094
15.485,81.3594,-0.015094
15.515,81.3594,-0.015094
15.546,81.3594,-0.015094
15.577,81.3594,-0.015094
15.608,81.3594,-0.015094
15.638,81.3594,-0.015094
15.669,81.3594,-0.015094
15.700,81.3594,-0.014144
15.730,81.3594,-0.014144
15.761,81.3594,-0.014144
15.792,81.3594,-0.014144
15.823,81.3594,-0.014144
15.855,81.3594,-0.014144
15.885,81.3594,-0.014144
15.916,81.3594,-0.013363
15.953,81.3594,-0.013363
15.994,81.3594,-0.013363
16.026,81.3594,-0.013363
16.056,81.3594,-0.013363
16.088,81.3594,-0.013363
16.120,81.3594,-0.013363
16.151,81.3594,-0.013363
16.181,81.3594,-0.012770
16.212,81.3594,-0.012770
16.243,81.3594,-0.012770
16.274,81.3594,-0.012770
16.306,81.3594,-0.012770
16.337,81.3594,-0.012770
16.367,81.3594,-0.012770
16.398,81.3594,-0.012299
16.430,81.3594,-0.012299
16.462,81.3594,-0.012299
16.493,81.3594,-0.012299
16.525,81.3594,-0.012299
16.556,81.3594,-0.012299
16.590,81.3594,-0.012299
16.619,81.3594,-0.012299
16.650,81.3594,-0.011754
16.681,81.3594,-0.011754
16.711,81.3594,-0.011754
16.742,81.3594,-0.011754
16.773,81.3594,-0.011754
16.805,81.3594,-0.011754
16.836,81.3594,-0.011754
16.866,81.3594,-0.011754
16.897,81.3594,-0.011754
16.928,81.3594,-0.011405
16.959,81.3594,-0.011405
16.992,81.3594,-0.011405
17.021,81.3594,-0.011405
17.055,81.3594,-0.011405
17.084,81.3594,-0.011405
17.115,81.3594,-0.011405
17.147,81.3594,-0.011029
17.179,81.3594,-0.011029
17.209,81.3594,-0.011029
17.242,81.3594,-0.011029
17.271,81.3594,-0.011029
17.302,81.3594,-0.011029
17.334,81.3594,-0.011029
17.364,81.3594,-0.011029
17.395,81.3594,-0.011029
17.426,81.3594,-0.010718
17.459,81.3594,-0.010718
17.490,81.3594,-0.010718
17.520,81.3594,-0.010718
17.552,81.3594,-0.010718
17.581,81.3594,-0.010718
17.615,81.3594,-0.010718
17.644,81.3594,-0.010718
17.674,81.3594,-0.010464
17.705,81.3594,-0.010464
17.736,81.3594,-0.010464
17.766,81.3594,-0.010464
17.797,81.3594,-0.010464
17.828,81.3594,-0.010464
17.859,81.3594,-0.010464
17.889,81.3594,-0.010229
17.920,81.3594,-0.010229
17.951,81.3594,-0.010229
17.981,81.3594,-0.010229
18.014,81.3594,-0.010229
18.043,81.3594,-0.010229
18.075,81.3594,-0.010229
18.105,81.3594,-0.010229
18.137,81.3594,-0.010022
18.166,81.3594,-0.010022
18.199,81.3594,-0.010022
18.229,81.3594,-0.010022
18.259,81.3594,-0.010022
18.290,81.3594,-0.010022
18.321,81.3594,-0.010022
18.352,81.3594,-0.010022
18.382,81.3594,-0.010022
18.414,81.3594,-0.009796
18.445,81.3594,-0.009796
18.475,81.3594,-0.009796
18.506,81.3594,-0.009796
18.536,81.3594,-0.009796
18.567,81.3594,-0.009796
18.597,81.3594,-0.009796
18.628,81.3594,-0.009796
18.659,81.3594,-0.009523
18.690,81.3594,-0.009523
18.721,81.3594,-0.009523
18.753,81.3594,-0.009523
18.784,81.3594,-0.009523
18.815,81.3594,-0.009523
18.845,81.3594,-0.009523
18.876,81.3594,-0.009523
18.908,81.3594,-0.009363
18.939,81.3593,-0.009363
18.972,81.3584,-0.009363
19.002,81.3569,-0.009363
19.033,81.3547,-0.009363
19.063,81.3517,-0.009363
19.095,81.3478,-0.009363
19.125,81.3435,-0.009363
19.155,81.3385,-0.009194
19.186,81.3326,-0.009194
19.217,81.3263,-0.009194
19.248,81.3186,-0.009194
19.279,81.3108,-0.009194
19.311,81.3017,-0.009194
19.342,81.2922,-0.009194
19.377,81.2805,-0.009194
19.404,81.2711,-0.009194
19.435,81.2592,-0.006201
19.467,81.2464,-0.006201
19.498,81.2329,-0.006201
19.528,81.2197,-0.006201
19.559,81.2051,-0.006201
19.590,81.1895,-0.006201
19.621,81.1735,-0.006201
19.652,81.1562,0.000894
19.683,81.1391,0.000894
19.715,81.1201,0.000894
19.746,81.1014,0.000894
19.777,81.0811,0.000894
19.809,81.0604,0.000894
19.840,81.0389,0.000894
19.873,81.0158,0.000894
19.903,80.9939,0.009194
19.934,80.9708,0.009194
19.966,80.9455,0.009194
19.996,80.9211,0.009194
20.027,80.8964,0.009194
20.058,80.8690,0.009194
20.089,80.8421,0.009194
20.121,80.8138,0.009194
20.151,80.7863,0.015508
20.183,80.7551,0.015508
20.213,80.7270,0.015508
20.244,80.6962,0.015508
20.276,80.6639,0.015508
20.308,80.6302,0.015508
20.339,80.5977,0.015508
20.371,80.5633,0.015508
20.400,80.5310,0.019752
20.430,80.4968,0.019752
20.461,80.4611,0.019752
20.492,80.4239,0.019752
20.518,80.3915,0.019752
20.554,80.3491,0.019752
20.586,80.3088,0.019752
20.621,80.2639,0.019752
20.648,80.2290,0.019752
20.679,80.1891,0.025342
20.710,80.1467,0.025342
20.740,80.1060,0.025342
20.772,80.0610,0.025342
20.802,80.0192,0.025342
20.832,79.9760,0.025342
20.864,79.9303,0.025342
20.894,79.8851,0.034084
20.925,79.8371,0.034084
20.956,79.7917,0.034084
20.986,79.7440,0.034084
21.018,79.6946,0.034084
21.049,79.6444,0.034084
21.080,79.5943,0.034084
21.111,79.5416,0.034084
21.141,79.4920,0.042441
21.173,79.4383,0.042441
21.205,79.3837,0.042441
21.236,79.3291,0.042441
21.266,79.2764,0.042441
21.297,79.2226,0.042441
21.328,79.1648,0.042441
21.358,79.1091,0.042441
21.389,79.0529,0.042441
21.421,78.9928,0.030716
21.451,78.9365,0.030716
21.482,78.8753,0.030716
21.513,78.8159,0.030716
21.544,78.7549,0.030716
21.575,78.6951,0.030716
21.606,78.6373,0.030716
21.637,78.5794,0.030716
21.669,78.5216,0.013617
21.700,78.4647,0.013617
21.731,78.4084,0.013617
21.763,78.3529,0.013617
21.794,78.2977,0.013617
21.825,78.2455,0.013617
21.856,78.1924,0.013617
21.887,78.1405,0.010765
21.919,78.0868,0.010765
21.948,78.0384,0.010765
21.980,77.9879,0.010765
22.011,77.9379,0.010765
22.043,77.8893,0.010765
22.074,77.8413,0.010765
22.105,77.7957,0.010765
22.136,77.7482,0.010765
22.167,77.7037,0.009608
22.197,77.6589,0.009608
22.229,77.6149,0.009608
22.260,77.5706,0.009608
22.291,77.5297,0.009608
22.322,77.4877,0.009608
22.352,77.4477,0.009608
22.384,77.4063,0.008996
22.415,77.3657,0.008996
22.446,77.3282,0.008996
22.476,77.2912,0.008996
22.507,77.2526,0.008996
22.538,77.2170,0.008996
22.568,77.1813,0.008996
22.601,77.1430,0.008996
22.634,77.1079,0.008996
22.661,77.0778,0.008996
22.693,77.0439,0.008422
22.724,77.0115,0.008422
22.756,76.9790,0.008422
22.787,76.9482,0.008422
22.817,76.9186,0.008422
22.848,76.8896,0.008422
22.879,76.8608,0.008422
22.910,76.8331,0.008102
22.946,76.8005,0.008102
22.972,76.7797,0.008102
23.003,76.7531,0.008102
23.034,76.7283,0.008102
23.065,76.7040,0.008102
23.096,76.6807,0.008102
23.126,76.6583,0.008102
23.157,76.6358,0.007801
23.188,76.6147,0.007801
23.219,76.5937,0.007801
23.251,76.5738,0.007801
23.282,76.5537,0.007801
23.311,76.5365,0.007801
23.343,76.5185,0.007801
23.374,76.5015,0.007444
23.406,76.4846,0.007444
23.438,76.4678,0.007444
23.468,76.4544,0.007444
23.498,76.4401,0.007444
23.529,76.4270,0.007444
23.560,76.4141,0.007444
23.590,76.4023,0.007444
23.621,76.3911,0.007444
23.653,76.3806,0.007444
23.682,76.3709,0.007406
23.714,76.3619,0.007406
23.745,76.3532,0.007406
23.776,76.3459,0.007406
23.807,76.3389,0.007406
23.838,76.3327,0.007406
23.869,76.3271,0.007406
23.900,76.3224,0.007406
23.931,76.3184,0.007180
23.961,76.3153,0.007180
23.992,76.3127,0.007180
24.025,76.3108,0.007180
24.053,76.3098,0.007180
24.084,76.3094,0.007180
24.115,76.3094,0.007180
24.147,76.3094,0.007180
24.177,76.3094,0.006964
24.209,76.3094,0.006964
24.242,76.3094,0.006964
24.270,76.3094,0.006964
24.302,76.3094,0.006964
24.333,76.3096,0.006964
24.364,76.3105,0.006964
24.395,76.3122,0.006964
24.427,76.3146,0.006964
24.458,76.3178,0.006964
24.489,76.3217,0.006964
24.520,76.3261,0.006964
24.550,76.3316,0.006964
24.581,76.3374,0.006964
24.612,76.3441,0.006964
24.643,76.3514,0.006964
24.674,76.3597,0.006775
24.705,76.3689,0.006775
24.737,76.3786,0.006775
24.767,76.3886,0.006775
24.797,76.3994,0.006775
24.829,76.4116,0.006775
24.858,76.4236,0.006775
24.889,76.4366,0.006775
24.920,76.4503,0.006644
24.950,76.4649,0.006644
24.981,76.4802,0.006644
25.015,76.4984,0.006644
25.043,76.5132,0.006644
25.075,76.5316,0.006644
25.106,76.5495,0.006644
25.145,76.5744,0.006644
25.183,76.5985,0.006625
25.214,76.6192,0.006625
25.247,76.6424,0.006625
25.275,76.6627,0.006625
25.306,76.6858,0.006625
25.338,76.7102,0.006625
25.369,76.7339,0.006625
25.400,76.7600,0.006625
25.431,76.7855,0.006550
25.462,76.8128,0.006550
25.493,76.8402,0.006550
25.523,76.8674,0.006550
25.554,76.8958,0.006550
25.586,76.9255,0.006550
25.617,76.9568,0.006550
25.647,76.9866,0.006465
25.678,77.0187,0.006465
25.710,77.0515,0.006465
25.741,77.0850,0.006465
25.773,77.1203,0.006465
25.803,77.1540,0.006465
25.834,77.1891,0.006465
25.864,77.2247,0.006465
25.896,77.2620,0.006465
25.929,77.3018,0.006333
25.958,77.3384,0.006333
25.988,77.3760,0.006333
26.020,77.4165,0.006333
26.051,77.4576,0.006333
26.083,77.5001,0.006333
26.113,77.5408,0.006333
26.145,77.5856,0.006333
26.177,77.6296,0.006211
26.211,77.6801,0.006211
26.240,77.7203,0.006211
26.271,77.7657,0.006211
26.302,77.8122,0.006211
26.333,77.8591,0.006211
26.366,77.9112,0.006211
26.393,77.9531,0.006211
26.424,78.0022,0.006211
26.455,78.0517,0.006070
26.486,78.1043,0.006070
26.518,78.1562,0.006070
26.549,78.2074,0.006070
26.580,78.2603,0.006070
26.611,78.3145,0.006070
26.642,78.3687,0.006070
26.673,78.4241,0.005881
26.704,78.4802,0.005881
26.735,78.5368,0.005881
26.766,78.5937,0.005881
26.797,78.6521,0.005881
26.828,78.7115,0.005881
26.859,78.7704,0.005881
26.890,78.8299,0.005881
26.921,78.8888,0.005665
26.953,78.9496,0.005665
26.983,79.0070,0.005665
27.015,79.0658,0.005665
27.045,79.1215,0.005665
27.076,79.1776,0.005665
27.107,79.2341,0.005665
27.138,79.2877,0.005665
27.169,79.3421,0.005524
27.201,79.3966,0.005524
27.232,79.4478,0.005524
27.263,79.5003,0.005524
27.292,79.5476,0.005524
27.328,79.6075,0.005524
27.354,79.6477,0.005524
27.386,79.6985,0.005524
27.416,79.7451,0.005279
27.447,79.7927,0.005279
27.479,79.8392,0.005279
27.509,79.8841,0.005279
27.543,79.9345,0.005279
27.570,79.9727,0.005279
27.601,80.0158,0.005279
27.632,80.0591,0.004799
27.663,80.1013,0.004799
27.697,80.1467,0.004799
27.725,80.1838,0.004799
27.755,80.2231,0.004799
27.787,80.2638,0.004799
27.818,80.3016,0.004799
27.849,80.3390,0.004799
27.880,80.3780,0.004799
27.910,80.4128,0.003745
27.942,80.4493,0.003745
27.974,80.4850,0.003745
28.004,80.5191,0.003745
28.035,80.5531,0.003745
28.067,80.5855,0.003745
28.098,80.6177,0.003745
28.128,80.6487,0.003745
28.159,80.6801,0.001816
28.191,80.7096,0.001816
28.223,80.7396,0.001816
28.252,80.7672,0.001816
28.283,80.7949,0.001816
28.315,80.8222,0.001816
28.346,80.8483,0.001816
28.377,80.8736,0.001816
28.407,80.8983,-0.000988
28.438,80.9223,-0.000988
28.469,80.9455,-0.000988
28.500,80.9687,-0.000988
28.532,80.9907,-0.000988
28.562,81.0120,-0.000988
28.594,81.0322,-0.000988
28.625,81.0518,-0.000988
28.654,81.0699,-0.000988
28.685,81.0884,-0.005100
28.717,81.1064,-0.005100
28.747,81.1229,-0.005100
28.779,81.1391,-0.005100
28.809,81.1542,-0.005100
28.840,81.1690,-0.005100
28.871,81.1828,-0.005100
28.902,81.1962,-0.010361
28.933,81.2088,-0.010361
28.964,81.2203,-0.010361
28.996,81.2319,-0.010361
29.027,81.2417,-0.010361
29.057,81.2511,-0.010361
29.089,81.2602,-0.010361
29.119,81.2681,-0.010361
29.150,81.2755,-0.015715
29.181,81.2821,-0.015715
29.212,81.2882,-0.015715
29.243,81.2933,-0.015715
29.275,81.2979,-0.015715
29.309,81.3020,-0.015715
29.336,81.3046,-0.015715
29.370,81.3070,-0.015715
29.399,81.3084,-0.015715
29.433,81.3093,-0.019056
29.461,81.3094,-0.019056
29.495,81.3094,-0.019056
29.523,81.3094,-0.019056
29.555,81.3094,-0.019056
29.585,81.3094,-0.019056
29.619,81.3094,-0.019056
29.647,81.3094,-0.019056
29.678,81.3094,-0.019065
29.709,81.3094,-0.019065
29.740,81.3094,-0.019065
29.771,81.3094,-0.019065
29.802,81.3094,-0.019065
29.834,81.3094,-0.019065
29.865,81.3094,-0.019065
29.895,81.3094,-0.017230
29.926,81.3094,-0.017230
29.957,81.3094,-0.017230
29.989,81.3094,-0.017230
30.020,81.3094,-0.017230
30.051,81.3094,-0.017230
30.084,81.3094,-0.017230
30.112,81.3094,-0.017230
30.144,81.3094,-0.017230
30.174,81.3094,-0.015584
30.205,81.3094,-0.015584
30.236,81.3094,-0.015584
30.266,81.3094,-0.015584
30.297,81.3094,-0.015584
30.329,81.3094,-0.015584
30.359,81.3094,-0.015584
30.390,81.3094,-0.014501
30.421,81.3094,-0.014501
30.452,81.3094,-0.014501
30.482,81.3094,-0.014501
30.514,81.3094,-0.014501
30.545,81.3094,-0.014501
30.575,81.3094,-0.014501
30.606,81.3094,-0.014501
30.637,81.3094,-0.014501
30.668,81.3094,-0.013664
30.699,81.3094,-0.013664
30.730,81.3094,-0.013664
30.761,81.3094,-0.013664
30.792,81.3094,-0.013664
30.823,81.3094,-0.013664
30.855,81.3094,-0.013664
30.886,81.3094,-0.013062
30.916,81.3094,-0.013062
30.947,81.3094,-0.013062
30.979,81.3094,-0.013062
31.010,81.3094,-0.013062
31.040,81.3094,-0.013062
31.072,81.3094,-0.013062
31.104,81.3094,-0.013062
31.135,81.3094,-0.013062
31.166,81.3094,-0.012525
31.196,81.3094,-0.012525
31.227,81.3094,-0.012525
31.258,81.3094,-0.012525
31.288,81.3094,-0.012525
31.319,81.3094,-0.012525
31.351,81.3094,-0.012525
31.381,81.3094,-0.011979
31.413,81.3094,-0.011979
31.442,81.3094,-0.011979
31.473,81.3094,-0.011979
31.504,81.3094,-0.011979
31.535,81.3094,-0.011979
31.566,81.3094,-0.011979
31.596,81.3094,-0.011979
31.628,81.3094,-0.011565
31.659,81.3094,-0.011565
31.690,81.3094,-0.011565
31.721,81.3094,-0.011565
31.752,81.3094,-0.011565
31.783,81.3094,-0.011565
31.815,81.3094,-0.011565
31.846,81.3094,-0.011565
31.877,81.3094,-0.011245
31.908,81.3094,-0.011245
31.940,81.3094,-0.011245
31.971,81.3094,-0.011245
32.002,81.3094,-0.011245
32.034,81.3094,-0.011245
32.063,81.3094,-0.011245
32.094,81.3094,-0.011245
32.125,81.3094,-0.010935
32.156,81.3094,-0.010935
32.188,81.3094,-0.010935
32.219,81.3094,-0.010935
32.250,81.3094,-0.010935
32.282,81.3094,-0.010935
32.312,81.3094,-0.010935
32.343,81.3094,-0.010935
32.374,81.3094,-0.010935
32.405,81.3094,-0.010935
32.436,81.3094,-0.010718
32.467,81.3094,-0.010718
32.499,81.3094,-0.010718
32.529,81.3094,-0.010718
32.560,81.3094,-0.010718
32.591,81.3094,-0.010718
32.623,81.3094,-0.010718
32.654,81.3094,-0.010718
32.685,81.3094,-0.010455
32.716,81.3094,-0.010455
32.747,81.3094,-0.010455
32.778,81.3094,-0.010455
32.809,81.3094,-0.010455
32.840,81.3094,-0.010455
32.871,81.3094,-0.010455
32.902,81.3094,-0.010210
32.933,81.3094,-0.010210
32.965,81.3094,-0.010210
32.996,81.3094,-0.010210
33.028,81.3094,-0.010210
33.058,81.3094,-0.010210
33.089,81.3094,-0.010210
33.120,81.3094,-0.010210
33.150,81.3094,-0.009881
33.180,81.3094,-0.009881
33.211,81.3094,-0.009881
33.242,81.3094,-0.009881
33.272,81.3094,-0.009881
33.304,81.3094,-0.009881
33.337,81.3094,-0.009881
33.366,81.3094,-0.009881
33.396,81.3094,-0.009881
33.430,81.3094,-0.009702
33.458,81.3094,-0.009702
33.495,81.3094,-0.009702
33.535,81.3094,-0.009702
33.567,81.3094,-0.009702
33.596,81.3094,-0.009702
33.628,81.3094,-0.009702
33.658,81.3094,-0.009495
33.689,81.3094,-0.009495
33.719,81.3094,-0.009495
33.749,81.3094,-0.009495
33.780,81.3094,-0.009495
33.811,81.3094,-0.009495
33.843,81.3094,-0.009495
33.873,81.3094,-0.009495
33.905,81.3094,-0.009363
33.934,81.3094,-0.009363
33.964,81.3094,-0.009363
33.995,81.3094,-0.009363
34.026,81.3094,-0.009363
34.057,81.3094,-0.009363
34.088,81.3094,-0.009363
34.119,81.3094,-0.009363
34.149,81.3094,-0.009250
34.181,81.3094,-0.009250
34.212,81.3094,-0.009250
34.243,81.3094,-0.009250
34.274,81.3094,-0.009250
34.307,81.3091,-0.009250
34.336,81.3082,-0.009250
34.368,81.3064,-0.009250
34.399,81.3039,-0.008959
34.432,81.3006,-0.008959
34.461,81.2969,-0.008959
34.493,81.2920,-0.008959
34.523,81.2868,-0.008959
34.554,81.2806,-0.008959
34.586,81.2737,-0.008959
34.618,81.2659,-0.008959
34.649,81.2574,-0.007387
34.681,81.2481,-0.007387
34.712,81.2383,-0.007387
34.743,81.2279,-0.007387
34.774,81.2167,-0.007387
34.805,81.2045,-0.007387
34.835,81.1922,-0.007387
34.866,81.1785,-0.007387
34.897,81.1649,-0.002099
34.929,81.1494,-0.002099
34.959,81.1343,-0.002099
34.990,81.1174,-0.002099
35.022,81.1004,-0.002099
35.054,81.0818,-0.002099
35.085,81.0632,-0.002099
35.117,81.0434,-0.002099
35.152,81.0205,0.005834
35.178,81.0033,0.005834
35.210,80.9811,0.005834
35.241,80.9588,0.005834
35.272,80.9353,0.005834
35.303,80.9129,0.005834
35.334,80.8878,0.005834
35.364,80.8634,0.005834
35.395,80.8379,0.013043
35.425,80.8113,0.013043
35.457,80.7840,0.013043
35.486,80.7576,0.013043
35.518,80.7285,0.013043
35.549,80.6985,0.013043
35.581,80.6673,0.013043
35.612,80.6364,0.013043
35.643,80.6047,0.017757
35.675,80.5705,0.017757
35.706,80.5387,0.017757
35.736,80.5055,0.017757
35.767,80.4711,0.017757
35.798,80.4352,0.017757
35.829,80.3986,0.017757
35.860,80.3627,0.017757
35.891,80.3249,0.022067
35.921,80.2882,0.022067
35.952,80.2492,0.022067
35.981,80.2124,0.022067
36.012,80.1709,0.022067
36.039,80.1369,0.022067
36.074,80.0893,0.022067
36.105,80.0473,0.022067
36.136,80.0045,0.029040
36.165,79.9614,0.029040
36.197,79.9166,0.029040
36.229,79.8692,0.029040
36.260,79.8240,0.029040
36.292,79.7753,0.029040
36.322,79.7280,0.029040
36.353,79.6803,0.029040
36.384,79.6315,0.029040
36.415,79.5821,0.037642
36.447,79.5308,0.037642
36.476,79.4820,0.037642
36.508,79.4276,0.037642
36.537,79.3796,0.037642
36.570,79.3222,0.037642
36.599,79.2724,0.037642
36.630,79.2170,0.037642
36.662,79.1598,0.035891
36.692,79.1054,0.035891
36.723,79.0471,0.035891
36.754,78.9900,0.035891
36.786,78.9303,0.035891
36.817,78.8700,0.035891
36.848,78.8108,0.035891
36.879,78.7492,0.035891
36.911,78.6898,0.035891
36.941,78.6305,0.020872
36.971,78.5738,0.020872
37.003,78.5155,0.020872
37.033,78.4606,0.020872
37.065,78.4019,0.020872
37.096,78.3467,0.020872
37.127,78.2933,0.020872
37.158,78.2382,0.020872
37.188,78.1862,0.011180
37.220,78.1333,0.011180
37.251,78.0802,0.011180
37.282,78.0285,0.011180
37.313,77.9780,0.011180
37.344,77.9279,0.011180
37.375,77.8804,0.011180
37.407,77.8303,0.009909
37.439,77.7818,0.009909
37.469,77.7369,0.009909
37.500,77.6900,0.009909
37.532,77.6444,0.009909
37.562,77.5994,0.009909
37.593,77.5567,0.009909
37.624,77.5123,0.009909
37.655,77.4711,0.009053
37.687,77.4278,0.009053
37.718,77.3878,0.009053
37.751,77.3444,0.009053
37.780,77.3084,0.009053
37.812,77.2681,0.009053
37.841,77.2327,0.009053
37.873,77.1934,0.009053
37.903,77.1585,0.008601
37.935,77.1215,0.008601
37.965,77.0876,0.008601
37.997,77.0524,0.008601
38.027,77.0189,0.008601
38.058,76.9868,0.008601
38.089,76.9547,0.008601
38.120,76.9239,0.008601
38.151,76.8932,0.008601
38.181,76.8634,0.008215
38.213,76.8340,0.008215
38.243,76.8056,0.008215
38.274,76.7779,0.008215
38.306,76.7502,0.008215
38.336,76.7242,0.008215
38.367,76.6985,0.008215
38.399,76.6734,0.007886
38.430,76.6487,0.007886
38.460,76.6265,0.007886
38.492,76.6030,0.007886
38.522,76.5815,0.007886
38.553,76.5597,0.007886
38.584,76.5396,0.007886
38.615,76.5197,0.007886
38.646,76.5003,0.007622
38.672,76.4854,0.007622
38.709,76.4643,0.007622
38.738,76.4480,0.007622
38.769,76.4322,0.007622
38.800,76.4168,0.007622
38.831,76.4018,0.007622
38.863,76.3869,0.007622
38.893,76.3743,0.007378
38.924,76.3616,0.007378
38.955,76.3499,0.007378
38.986,76.3387,0.007378
39.017,76.3287,0.007378
39.048,76.3188,0.007378
39.079,76.3100,0.007378
39.112,76.3011,0.007378
39.140,76.2941,0.007180
39.174,76.2871,0.007180
39.203,76.2814,0.007180
39.234,76.2760,0.007180
39.265,76.2714,0.007180
39.296,76.2677,0.007180
39.327,76.2646,0.007180
39.358,76.2621,0.007180
39.389,76.2605,0.007030
39.423,76.2594,0.007030
39.450,76.2593,0.007030
39.481,76.2593,0.007030
39.512,76.2593,0.007030
39.546,76.2593,0.007030
39.574,76.2593,0.007030
39.605,76.2593,0.007030
39.637,76.2599,0.007001
39.667,76.2611,0.007001
39.698,76.2631,0.007001
39.729,76.2659,0.007001
39.760,76.2695,0.007001
39.792,76.2737,0.007001
39.823,76.2786,0.007001
39.854,76.2843,0.007001
39.885,76.2908,0.006804
39.916,76.2977,0.006804
39.947,76.3058,0.006804
39.978,76.3142,0.006804
40.009,76.3235,0.006804
40.040,76.3334,0.006804
40.071,76.3442,0.006804
40.101,76.3555,0.006804
40.134,76.3687,0.006616
40.165,76.3813,0.006616
40.195,76.3948,0.006616
40.226,76.4091,0.006616
40.257,76.4245,0.006616
40.289,76.4404,0.006616
40.320,76.4575,0.006616
40.351,76.4746,0.006616
40.383,76.4934,0.006644
40.412,76.5106,0.006644
40.443,76.5304,0.006644
40.474,76.5506,0.006644
40.508,76.5736,0.006644
40.537,76.5935,0.006644
40.568,76.6165,0.006644
40.597,76.6382,0.006644
40.628,76.6619,0.006644
40.660,76.6868,0.006644
40.690,76.7118,0.006512
40.721,76.7385,0.006512
40.752,76.7646,0.006512
40.785,76.7939,0.006512
40.814,76.8196,0.006512
40.845,76.8491,0.006512
40.875,76.8777,0.006512
40.906,76.9084,0.006361
40.937,76.9393,0.006361
40.969,76.9722,0.006361
41.000,77.0045,0.006361
41.031,77.0389,0.006361
41.063,77.0725,0.006361
41.094,77.1088,0.006361
41.125,77.1436,0.006267
41.157,77.1808,0.006267
41.187,77.2164,0.006267
41.218,77.2540,0.006267
41.248,77.2913,0.006267
41.280,77.3312,0.006267
41.311,77.3726,0.006267
41.342,77.4122,0.006267
41.374,77.4540,0.006164
41.405,77.4963,0.006164
41.435,77.5388,0.006164
41.466,77.5819,0.006164
41.497,77.6268,0.006164
41.529,77.6729,0.006164
41.560,77.7176,0.006164
41.590,77.7639,0.006164
41.622,77.8112,0.006164
41.653,77.8589,0.005947
41.684,77.9097,0.005947
41.716,77.9587,0.005947
41.747,78.0099,0.005947
41.778,78.0604,0.005947
41.810,78.1132,0.005947
41.840,78.1644,0.005947
41.872,78.2177,0.005787
41.902,78.2718,0.005787
41.933,78.3261,0.005787
41.964,78.3797,0.005787
41.996,78.4386,0.005787
42.026,78.4931,0.005787
42.057,78.5511,0.005787
42.088,78.6075,0.005787
42.118,78.6666,0.005787
42.150,78.7265,0.005674
42.180,78.7855,0.005674
42.211,78.8446,0.005674
42.242,78.9042,0.005674
42.273,78.9620,0.005674
42.304,79.0189,0.005674
42.335,79.0768,0.005674
42.366,79.1313,0.005552
42.397,79.1876,0.005552
42.428,79.2414,0.005552
42.459,79.2957,0.005552
42.490,79.3487,0.005552
42.521,79.4017,0.005552
42.553,79.4541,0.005552
42.584,79.5052,0.005552
42.614,79.5540,0.005552
42.646,79.6038,0.005552
42.677,79.6526,0.005430
42.707,79.6996,0.005430
42.739,79.7487,0.005430
42.770,79.7956,0.005430
42.801,79.8406,0.005430
42.836,79.8907,0.005430
42.864,79.9311,0.005430
42.895,79.9758,0.005430
42.926,80.0177,0.004978
42.957,80.0601,0.004978
42.988,80.1014,0.004978
43.018,80.1415,0.004978
43.049,80.1813,0.004978
43.080,80.2198,0.004978
43.111,80.2582,0.004978
43.141,80.2957,0.004978
43.172,80.3322,0.004094
43.203,80.3682,0.004094
43.234,80.4039,0.004094
43.270,80.4453,0.004094
43.310,80.4889,0.004094
43.341,80.5217,0.004094
43.371,80.5542,0.004094
43.403,80.5857,0.002503
43.434,80.6167,0.002503
43.465,80.6466,0.002503
43.495,80.6759,0.002503
43.526,80.7044,0.002503
43.557,80.7323,0.002503
43.588,80.7595,0.002503
43.620,80.7868,0.002503
43.650,80.8119,-0.000038
43.682,80.8382,-0.000038
43.713,80.8624,-0.000038
43.746,80.8872,-0.000038
43.774,80.9089,-0.000038
43.806,80.9312,-0.000038
43.836,80.9518,-0.000038
43.867,80.9728,-0.000038
43.898,80.9933,-0.003849
43.930,81.0132,-0.003849
43.961,81.0315,-0.003849
43.993,81.0497,-0.003849
44.023,81.0667,-0.003849
44.056,81.0839,-0.003849
44.085,81.0988,-0.003849
44.116,81.1136,-0.003849
44.147,81.1273,-0.003849
44.178,81.1412,-0.009025
44.209,81.1537,-0.009025
44.242,81.1669,-0.009025
44.272,81.1776,-0.009025
44.303,81.1881,-0.009025
44.334,81.1978,-0.009025
44.365,81.2068,-0.009025
44.395,81.2153,-0.014417
44.426,81.2227,-0.014417
44.457,81.2296,-0.014417
44.490,81.2362,-0.014417
44.520,81.2414,-0.014417
44.551,81.2463,-0.014417
44.582,81.2502,-0.014417
44.620,81.2541,-0.014417
44.660,81.2571,-0.018134
44.691,81.2584,-0.018134
44.722,81.2592,-0.018134
44.753,81.2593,-0.018134
44.784,81.2593,-0.018134
44.814,81.2593,-0.018134
44.847,81.2593,-0.018134
44.877,81.2593,-0.018134
44.909,81.2593,-0.018567
44.940,81.2593,-0.018567
44.970,81.2593,-0.018567
45.001,81.2593,-0.018567
45.031,81.2593,-0.018567
45.062,81.2593,-0.018567
45.093,81.2593,-0.018567
45.124,81.2593,-0.018567
45.155,81.2593,-0.016873
45.191,81.2593,-0.016873
45.218,81.2593,-0.016873
45.249,81.2593,-0.016873
45.281,81.2593,-0.016873
45.311,81.2593,-0.016873
45.342,81.2593,-0.016873
45.374,81.2593,-0.016873
45.404,81.2593,-0.015301
45.436,81.2593,-0.015301
45.470,81.2593,-0.015301
45.498,81.2593,-0.015301
45.529,81.2593,-0.015301
45.560,81.2593,-0.015301
45.591,81.2593,-0.015301
45.622,81.2593,-0.015301
45.655,81.2593,-0.014163
45.685,81.2593,-0.014163
45.716,81.2593,-0.014163
45.747,81.2593,-0.014163
45.774,81.2593,-0.014163
45.809,81.2593,-0.014163
45.839,81.2593,-0.014163
45.871,81.2593,-0.014163
45.903,81.2593,-0.014163
45.931,81.2593,-0.013240
45.963,81.2593,-0.013240
45.995,81.2593,-0.013240
46.027,81.2593,-0.013240
46.058,81.2593,-0.013240
46.090,81.2593,-0.013240
46.121,81.2593,-0.013240
46.151,81.2593,-0.013240
46.183,81.2593,-0.012544
46.214,81.2593,-0.012544
46.246,81.2593,-0.012544
46.278,81.2593,-0.012544
46.308,81.2593,-0.012544
46.339,81.2593,-0.012544
46.371,81.2593,-0.012544
46.402,81.2593,-0.011979
46.434,81.2593,-0.011979
46.464,81.2593,-0.011979
46.495,81.2593,-0.011979
46.526,81.2593,-0.011979
46.556,81.2593,-0.011979
46.588,81.2593,-0.011979
46.619,81.2593,-0.011979
46.651,81.2593,-0.011603
46.686,81.2593,-0.011603
46.713,81.2593,-0.011603
46.744,81.2593,-0.011603
46.775,81.2593,-0.011603
46.806,81.2593,-0.011603
46.837,81.2593,-0.011603
46.867,81.2593,-0.011603
46.897,81.2593,-0.011180
46.928,81.2593,-0.011180
46.959,81.2593,-0.011180
46.991,81.2593,-0.011180
47.022,81.2593,-0.011180
47.053,81.2593,-0.011180
47.084,81.2593,-0.011180
47.116,81.2593,-0.011180
47.147,81.2593,-0.010747
47.179,81.2593,-0.010747
47.210,81.2593,-0.010747
47.241,81.2593,-0.010747
47.272,81.2593,-0.010747
47.304,81.2593,-0.010747
47.335,81.2593,-0.010747
47.366,81.2593,-0.010747
47.397,81.2593,-0.010455
47.428,81.2593,-0.010455
47.457,81.2593,-0.010455
47.488,81.2593,-0.010455
47.519,81.2593,-0.010455
47.549,81.2593,-0.010455
47.580,81.2593,-0.010455
47.611,81.2593,-0.010455
47.645,81.2593,-0.010191
47.674,81.2593,-0.010191
47.708,81.2593,-0.010191
47.737,81.2593,-0.010191
47.768,81.2593,-0.010191
47.798,81.2593,-0.010191
47.832,81.2593,-0.010191
47.861,81.2593,-0.010191
47.892,81.2593,-0.009937
47.924,81.2593,-0.009937
47.955,81.2593,-0.009937
47.986,81.2593,-0.009937
48.017,81.2593,-0.009937
48.049,81.2593,-0.009937
48.080,81.2593,-0.009937
48.111,81.2593,-0.009937
48.142,81.2593,-0.009627
48.173,81.2593,-0.009627
48.203,81.2593,-0.009627
48.233,81.2593,-0.009627
48.265,81.2593,-0.009627
48.296,81.2593,-0.009627
48.327,81.2593,-0.009627
48.360,81.2593,-0.009627
48.390,81.2593,-0.009457
48.421,81.2593,-0.009457
48.450,81.2593,-0.009457
48.482,81.2593,-0.009457
48.512,81.2593,-0.009457
48.544,81.2593,-0.009457
48.575,81.2593,-0.009457
48.606,81.2593,-0.009457
48.637,81.2593,-0.009457
48.668,81.2593,-0.009326
48.699,81.2593,-0.009326
48.729,81.2593,-0.009326
48.760,81.2593,-0.009326
48.794,81.2593,-0.009326
48.822,81.2593,-0.009326
48.852,81.2593,-0.009326
48.883,81.2593,-0.009100
48.920,81.2593,-0.009100
48.960,81.2593,-0.009100
48.991,81.2593,-0.009100
49.022,81.2593,-0.009100
49.052,81.2593,-0.009100
49.085,81.2593,-0.009100
49.114,81.2593,-0.009100
49.145,81.2593,-0.009100
49.176,81.2593,-0.008940
49.207,81.2593,-0.008940
49.238,81.2593,-0.008940
49.270,81.2593,-0.008940
49.300,81.2593,-0.008940
49.330,81.2593,-0.008940
49.362,81.2593,-0.008940
49.393,81.2593,-0.008940
49.423,81.2593,-0.008770
49.454,81.2593,-0.008770
49.484,81.2593,-0.008770
49.515,81.2593,-0.008770
49.547,81.2593,-0.008770
49.578,81.2593,-0.008770
49.609,81.2593,-0.008770
49.640,81.2593,-0.008770
49.670,81.2593,-0.008554
49.702,81.2590,-0.008554
49.733,81.2580,-0.008554
49.765,81.2562,-0.008554
49.795,81.2538,-0.008554
49.826,81.2506,-0.008554
49.857,81.2468,-0.008554
49.889,81.2417,-0.008554
49.920,81.2365,-0.008328
49.952,81.2303,-0.008328
49.982,81.2236,-0.008328
50.013,81.2158,-0.008328
50.044,81.2076,-0.008328
50.075,81.1988,-0.008328
50.105,81.1892,-0.008328
50.136,81.1789,-0.008328
50.167,81.1678,-0.005505
50.197,81.1562,-0.005505
50.228,81.1437,-0.005505
50.259,81.1301,-0.005505
50.290,81.1162,-0.005505
50.321,81.1014,-0.005505
50.352,81.0858,-0.005505
50.383,81.0693,-0.005505
50.415,81.0523,0.001412
50.448,81.0334,0.001412
50.478,81.0151,0.001412
50.510,80.9950,0.001412
50.539,80.9766,0.001412
50.570,80.9557,0.001412
50.601,80.9343,0.001412
50.631,80.9131,0.001412
50.662,80.8901,0.001412
50.693,80.8671,0.009373
50.723,80.8428,0.009373
50.755,80.8178,0.009373
50.785,80.7927,0.009373
50.818,80.7646,0.009373
50.847,80.7391,0.009373
50.878,80.7111,0.009373
50.908,80.6834,0.015574
50.940,80.6534,0.015574
50.971,80.6235,0.015574
51.003,80.5920,0.015574
51.033,80.5612,0.015574
51.064,80.5287,0.015574
51.095,80.4952,0.015574
51.127,80.4609,0.015574
51.157,80.4273,0.015574
51.188,80.3934,0.019894
51.218,80.3569,0.019894
51.249,80.3208,0.019894
51.280,80.2841,0.019894
51.311,80.2454,0.019894
51.341,80.2094,0.019894
51.372,80.1689,0.019894
51.403,80.1294,0.019894
51.435,80.0874,0.019894
51.466,80.0444,0.025380
51.498,80.0013,0.025380
51.528,79.9592,0.025380
51.558,79.9159,0.025380
51.589,79.8721,0.025380
51.621,79.8255,0.033896
51.652,79.7796,0.033896
51.683,79.7339,0.033896
51.713,79.6867,0.033896
51.743,79.6403,0.033896
51.775,79.5898,0.033896
51.806,79.5409,0.033896
51.837,79.4884,0.033896
51.867,79.4401,0.033896
51.899,79.3859,0.033896
51.930,79.3347,0.041867
51.962,79.2780,0.041867
51.992,79.2274,0.041867
52.023,79.1695,0.041867
52.055,79.1144,0.041867
52.085,79.0605,0.041867
52.117,79.0034,0.041867
52.147,78.9439,0.029916
52.179,78.8845,0.029916
52.210,78.8258,0.029916
52.242,78.7653,0.029916
52.273,78.7043,0.029916
52.304,78.6456,0.029916
52.336,78.5834,0.029916
52.366,78.5268,0.029916
52.398,78.4676,0.013033
52.429,78.4118,0.013033
52.460,78.3550,0.013033
52.491,78.2995,0.013033
52.522,78.2442,0.013033
52.553,78.1896,0.013033
52.584,78.1358,0.013033
52.615,78.0838,0.013033
52.646,78.0322,0.010511
52.678,77.9807,0.010511
52.709,77.9283,0.010511
52.739,77.8815,0.010511
52.769,77.8321,0.010511
52.801,77.7842,0.010511
52.832,77.7369,0.010511
52.862,77.6914,0.010511
52.893,77.6443,0.009467
52.924,77.5999,0.009467
52.955,77.5538,0.009467
52.986,77.5107,0.009467
53.016,77.4683,0.009467
53.048,77.4260,0.009467
53.078,77.3850,0.009467
53.109,77.3442,0.009467
53.141,77.3023,0.008836
53.172,77.2634,0.008836
53.202,77.2244,0.008836
53.234,77.1855,0.008836
53.265,77.1483,0.008836
53.296,77.1124,0.008836
53.333,77.0693,0.008836
53.373,77.0246,0.008836
53.403,76.9908,0.008836
53.434,76.9574,0.008366
53.466,76.9242,0.008366
53.497,76.8932,0.008366
53.528,76.8608,0.008366
53.561,76.8287,0.008366
53.590,76.8009,0.008366
53.622,76.7713,0.008366
53.652,76.7433,0.008036
53.685,76.7143,0.008036
53.714,76.6890,0.008036
53.745,76.6641,0.008036
53.776,76.6384,0.008036
53.806,76.6142,0.008036
53.838,76.5901,0.008036
53.868,76.5669,0.008036
53.899,76.5455,0.007811
53.931,76.5223,0.007811
53.961,76.5025,0.007811
53.991,76.4820,0.007811
54.022,76.4634,0.007811
54.053,76.4440,0.007811
54.084,76.4262,0.007811
54.115,76.4084,0.007811
54.147,76.3916,0.007500
54.178,76.3752,0.007500
54.209,76.3606,0.007500
54.239,76.3463,0.007500
54.271,76.3323,0.007500
54.302,76.3192,0.007500
54.335,76.3060,0.007500
54.366,76.2945,0.007500
54.398,76.2836,0.007255
54.428,76.2737,0.007255
54.458,76.2647,0.007255
54.490,76.2559,0.007255
54.520,76.2484,0.007255
54.551,76.2411,0.007255
54.581,76.2347,0.007255
54.613,76.2289,0.007255
54.643,76.2241,0.007105
54.676,76.2196,0.007105
54.705,76.2162,0.007105
54.737,76.2134,0.007105
54.768,76.2113,0.007105
54.797,76.2100,0.007105
54.829,76.2093,0.007105
54.859,76.2093,0.007105
54.890,76.2093,0.006973
54.921,76.2093,0.006973
54.951,76.2093,0.006973
54.982,76.2093,0.006973
55.012,76.2093,0.006973
55.044,76.2097,0.006973
55.075,76.2109,0.006973
55.105,76.2128,0.006973
55.138,76.2154,0.006945
55.167,76.2186,0.006945
55.198,76.2224,0.006945
55.228,76.2272,0.006945
55.260,76.2327,0.006945
55.290,76.2389,0.006945
55.321,76.2458,0.006945
55.352,76.2535,0.006945
55.383,76.2618,0.006813
55.414,76.2707,0.006813
55.446,76.2809,0.006813
55.477,76.2915,0.006813
55.508,76.3033,0.006813
55.540,76.3152,0.006813
55.570,76.3276,0.006813
55.602,76.3418,0.006813
55.633,76.3556,0.006813
55.664,76.3707,0.006616
55.695,76.3863,0.006616
55.727,76.4034,0.006616
55.757,76.4203,0.006616
55.789,76.4386,0.006616
55.819,76.4569,0.006616
55.850,76.4762,0.006616
55.881,76.4958,0.006521
55.912,76.5170,0.006521
55.944,76.5390,0.006521
55.976,76.5619,0.006521
56.006,76.5842,0.006521
56.038,76.6092,0.006521
56.068,76.6327,0.006521
56.099,76.6574,0.006521
56.129,76.6821,0.006446
56.160,76.7091,0.006446
56.191,76.7368,0.006446
56.221,76.7639,0.006446
56.253,76.7937,0.006446
56.284,76.8228,0.006446
56.314,76.8530,0.006446
56.350,76.8877,0.006446
56.376,76.9154,0.006380
56.406,76.9462,0.006380
56.437,76.9789,0.006380
56.473,77.0193,0.006380
56.514,77.0656,0.006380
56.545,77.1002,0.006380
56.576,77.1363,0.006380
56.607,77.1740,0.006380
56.637,77.2104,0.006183
56.670,77.2515,0.006183
56.700,77.2902,0.006183
56.734,77.3344,0.006183
56.763,77.3709,0.006183
56.797,77.4169,0.006183
56.824,77.4535,0.006183
56.858,77.5009,0.006183
56.887,77.5416,0.006070
56.920,77.5914,0.006070
56.949,77.6311,0.006070
56.983,77.6821,0.006070
57.011,77.7235,0.006070
57.042,77.7708,0.006070
57.073,77.8196,0.006070
57.107,77.8733,0.006070
57.136,77.9193,0.006070
57.166,77.9672,0.005985
57.198,78.0212,0.005985
57.229,78.0724,0.005985
57.260,78.1248,0.005985
57.291,78.1771,0.005985
57.322,78.2319,0.005985
57.353,78.2856,0.005985
57.384,78.3418,0.005985
57.416,78.3988,0.005816
57.447,78.4554,0.005816
57.478,78.5125,0.005816
57.509,78.5719,0.005816
57.539,78.6294,0.005816
57.570,78.6899,0.005816
57.601,78.7488,0.005816
57.631,78.8073,0.005590
57.662,78.8669,0.005590
57.694,78.9259,0.005590
57.725,78.9838,0.005590
57.756,79.0401,0.005590
57.787,79.0968,0.005590
57.819,79.1514,0.005590
57.849,79.2057,0.005590
57.881,79.2595,0.005590
57.911,79.3114,0.005439
57.943,79.3643,0.005439
57.974,79.4170,0.005439
58.006,79.4676,0.005439
58.037,79.5185,0.005439
58.069,79.5688,0.005439
58.099,79.6165,0.005439
58.131,79.6657,0.005317
58.162,79.7127,0.005317
58.194,79.7602,0.005317
58.224,79.8041,0.005317
58.255,79.8490,0.005317
58.286,79.8939,0.005317
58.317,79.9362,0.005317
58.347,79.9790,0.005317
58.379,80.0218,0.005317
58.411,80.0635,0.004799
58.442,80.1043,0.004799
58.474,80.1447,0.004799
58.503,80.1826,0.004799
58.536,80.2223,0.004799
58.565,80.2573,0.004799
58.597,80.2949,0.004799
58.627,80.3300,0.003727
58.662,80.3720,0.003727
58.690,80.4013,0.003727
58.722,80.4364,0.003727
58.755,80.4716,0.003727
58.783,80.5018,0.003727
58.815,80.5346,0.003727
58.846,80.5650,0.003727
58.876,80.5940,0.003727
58.906,80.6228,0.003727
58.937,80.6516,0.001929
58.969,80.6803,0.001929
58.998,80.7068,0.001929
59.029,80.7324,0.001929
59.061,80.7602,0.001929
59.092,80.7849,0.001929
59.124,80.8104,0.001929
59.155,80.8341,-0.000922
59.186,80.8565,-0.000922
59.217,80.8790,-0.000922
59.248,80.9005,-0.000922
59.278,80.9211,-0.000922
59.309,80.9413,-0.000922
59.340,80.9604,-0.000922
59.370,80.9789,-0.000922
59.401,80.9964,-0.005260
59.432,81.0138,-0.005260
59.463,81.0298,-0.005260
59.493,81.0458,-0.005260
59.524,81.0602,-0.005260
59.554,81.0749,-0.005260
59.586,81.0881,-0.005260
59.618,81.1019,-0.005260
59.647,81.1133,-0.005260
59.678,81.1247,-0.010681
59.709,81.1351,-0.010681
59.739,81.1449,-0.010681
59.771,81.1546,-0.010681
59.804,81.1638,-0.010681
59.833,81.1711,-0.010681
59.864,81.1782,-0.010681
59.895,81.1846,-0.015697
59.926,81.1901,-0.015697
59.958,81.1952,-0.015697
59.988,81.1994,-0.015697
60.020,81.2027,-0.015697
60.050,81.2055,-0.015697
60.082,81.2074,-0.015697
60.113,81.2088,-0.015697
60.143,81.2093,-0.018407
60.174,81.2093,-0.018407
60.205,81.2093,-0.018407
60.236,81.2093,-0.018407
60.268,81.2093,-0.018407
60.298,81.2093,-0.018407
60.328,81.2093,-0.018407
60.359,81.2093,-0.018407
60.390,81.2093,-0.017880
60.423,81.2093,-0.017880
60.452,81.2093,-0.017880
60.484,81.2093,-0.017880
60.515,81.2093,-0.017880
60.546,81.2093,-0.017880
60.577,81.2093,-0.017880
60.608,81.2093,-0.017880
60.639,81.2093,-0.015951
60.670,81.2093,-0.015951
60.701,81.2093,-0.015951
60.732,81.2093,-0.015951
60.763,81.2093,-0.015951
60.797,81.2093,-0.015951
60.824,81.2093,-0.015951
60.855,81.2093,-0.015951
60.886,81.2093,-0.014539
60.917,81.2093,-0.014539
60.948,81.2093,-0.014539
60.981,81.2093,-0.014539
61.011,81.2093,-0.014539
61.041,81.2093,-0.014539
61.073,81.2093,-0.014539
61.104,81.2093,-0.014539
61.134,81.2093,-0.013542
61.165,81.2093,-0.013542
61.198,81.2093,-0.013542
61.224,81.2093,-0.013542
61.257,81.2093,-0.013542
61.288,81.2093,-0.013542
61.320,81.2093,-0.013542
61.351,81.2093,-0.013542
61.382,81.2093,-0.012751
61.413,81.2093,-0.012751
61.444,81.2093,-0.012751
61.476,81.2093,-0.012751
61.507,81.2093,-0.012751
61.537,81.2093,-0.012751
61.568,81.2093,-0.012751
61.599,81.2093,-0.012751
61.630,81.2093,-0.012751
61.661,81.2093,-0.012751
61.693,81.2093,-0.012130
61.723,81.2093,-0.012130
61.754,81.2093,-0.012130
61.785,81.2093,-0.012130
61.816,81.2093,-0.012130
61.848,81.2093,-0.012130
61.881,81.2093,-0.012130
61.909,81.2093,-0.011575
61.940,81.2093,-0.011575
61.971,81.2093,-0.011575
62.007,81.2093,-0.011575
62.033,81.2093,-0.011575
62.064,81.2093,-0.011575
62.096,81.2093,-0.011575
62.127,81.2093,-0.011575
62.157,81.2093,-0.011575
62.188,81.2093,-0.011132
62.219,81.2093,-0.011132
62.250,81.2093,-0.011132
62.282,81.2093,-0.011132
62.313,81.2093,-0.011132
62.343,81.2093,-0.011132
62.376,81.2093,-0.011132
62.406,81.2093,-0.011132
62.436,81.2093,-0.010728
62.467,81.2093,-0.010728
62.499,81.2093,-0.010728
62.532,81.2093,-0.010728
62.562,81.2093,-0.010728
62.595,81.2093,-0.010728
62.623,81.2093,-0.010728
62.654,81.2093,-0.010427
62.686,81.2093,-0.010427
62.717,81.2093,-0.010427
62.748,81.2093,-0.010427
62.778,81.2093,-0.010427
62.808,81.2093,-0.010427
62.841,81.2093,-0.010427
62.870,81.2093,-0.010427
62.900,81.2093,-0.010173
62.931,81.2093,-0.010173
62.964,81.2093,-0.010173
62.994,81.2093,-0.010173
63.026,81.2093,-0.010173
63.056,81.2093,-0.010173
63.091,81.2093,-0.010173
63.117,81.2093,-0.010173
63.149,81.2093,-0.010173
63.181,81.2093,-0.009853
63.215,81.2093,-0.009853
63.243,81.2093,-0.009853
63.274,81.2093,-0.009853
63.305,81.2093,-0.009853
63.336,81.2093,-0.009853
63.367,81.2093,-0.009853
63.401,81.2093,-0.009599
63.428,81.2093,-0.009599
63.459,81.2093,-0.009599
63.491,81.2093,-0.009599
63.521,81.2093,-0.009599
63.552,81.2093,-0.009599
63.583,81.2093,-0.009599
63.613,81.2093,-0.009599
63.644,81.2093,-0.009382
63.675,81.2093,-0.009382
63.706,81.2093,-0.009382
63.737,81.2093,-0.009382
63.769,81.2093,-0.009382
63.798,81.2093,-0.009382
63.829,81.2093,-0.009382
63.860,81.2093,-0.009382
63.892,81.2093,-0.009241
63.921,81.2093,-0.009241
63.952,81.2093,-0.009241
63.984,81.2093,-0.009241
64.015,81.2093,-0.009241
64.047,81.2093,-0.009241
64.078,81.2093,-0.009241
64.108,81.2093,-0.009241
64.139,81.2093,-0.009043
64.171,81.2093,-0.009043
64.202,81.2093,-0.009043
64.234,81.2093,-0.009043
64.265,81.2093,-0.009043
64.296,81.2093,-0.009043
64.327,81.2093,-0.009043
64.357,81.2093,-0.009043
64.387,81.2093,-0.008808
64.418,81.2093,-0.008808
64.449,81.2093,-0.008808
64.480,81.2093,-0.008808
64.511,81.2093,-0.008808
64.542,81.2093,-0.008808
64.573,81.2093,-0.008808
64.603,81.2093,-0.008808
64.635,81.2093,-0.008611
64.667,81.2093,-0.008611
64.698,81.2093,-0.008611
64.728,81.2093,-0.008611
64.759,81.2093,-0.008611
64.790,81.2093,-0.008611
64.824,81.2093,-0.008611
64.851,81.2093,-0.008611
64.883,81.2093,-0.008611
64.913,81.2093,-0.008611
64.944,81.2093,-0.008422
64.975,81.2088,-0.008422
65.007,81.2074,-0.008422
65.037,81.2056,-0.008422
65.068,81.2029,-0.008422
65.099,81.1995,-0.008422
65.131,81.1952,-0.008422
65.160,81.1906,-0.008196
65.192,81.1849,-0.008196
65.223,81.1783,-0.008196
65.254,81.1715,-0.008196
65.285,81.1637,-0.008196
65.316,81.1552,-0.008196
65.347,81.1461,-0.008196
65.378,81.1359,-0.008196
65.408,81.1256,-0.005449
65.440,81.1139,-0.005449
65.470,81.1022,-0.005449
65.502,81.0888,-0.005449
65.532,81.0756,-0.005449
65.564,81.0609,-0.005449
65.594,81.0462,-0.005449
65.625,81.0302,-0.005449
65.656,81.0140,0.001073
65.687,80.9964,0.001073
65.718,80.9790,0.001073
65.750,80.9595,0.001073
65.781,80.9401,0.001073
65.814,80.9190,0.001073
65.844,80.8983,0.001073
65.876,80.8756,0.001073
65.907,80.8540,0.009006
65.938,80.8307,0.009006
65.968,80.8073,0.009006
66.000,80.7815,0.009006
66.030,80.7580,0.009006
66.061,80.7321,0.009006
66.092,80.7049,0.009006
66.124,80.6765,0.009006
66.154,80.6493,0.015282
66.185,80.6204,0.015282
66.216,80.5908,0.015282
66.247,80.5598,0.015282
66.279,80.5289,0.015282
66.309,80.4977,0.015282
66.341,80.4647,0.015282
66.372,80.4308,0.015282
66.403,80.3966,0.019404
66.435,80.3604,0.019404
66.467,80.3250,0.019404
66.497,80.2889,0.019404
66.528,80.2522,0.019404
66.559,80.2145,0.019404
66.591,80.1752,0.019404
66.622,80.1355,0.019404
66.653,80.0950,0.024693
66.684,80.0553,0.024693
66.715,80.0140,0.024693
66.746,79.9719,0.024693
66.777,79.9299,0.024693
66.808,79.8859,0.024693
66.838,79.8423,0.024693
66.870,79.7957,0.024693
66.901,79.7504,0.032965
66.932,79.7042,0.032965
66.962,79.6588,0.032965
66.993,79.6103,0.032965
67.024,79.5619,0.032965
67.055,79.5120,0.032965
67.087,79.4609,0.032965
67.119,79.4089,0.032965
67.150,79.3573,0.040973
67.181,79.3042,0.040973
67.212,79.2509,0.040973
67.243,79.1974,0.040973
67.274,79.1421,0.040973
67.306,79.0870,0.040973
67.337,79.0298,0.040973
67.367,78.9754,0.040973
67.398,78.9169,0.029567
67.429,78.8607,0.029567
67.460,78.7995,0.029567
67.490,78.7436,0.029567
67.521,78.6843,0.029567
67.552,78.6243,0.029567
67.582,78.5661,0.029567
67.618,78.4980,0.029567
67.643,78.4508,0.029567
67.674,78.3930,0.013062
67.705,78.3363,0.013062
67.736,78.2802,0.013062
67.768,78.2242,0.013062
67.800,78.1673,0.013062
67.830,78.1158,0.013062
67.864,78.0563,0.013062
67.892,78.0112,0.010446
67.923,77.9589,0.010446
67.955,77.9073,0.010446
67.986,77.8566,0.010446
68.017,77.8071,0.010446
68.047,77.7602,0.010446
68.079,77.7118,0.010446
68.109,77.6642,0.010446
68.140,77.6191,0.009410
68.171,77.5726,0.009410
68.201,77.5290,0.009410
68.233,77.4830,0.009410
68.264,77.4407,0.009410
68.295,77.3972,0.009410
68.325,77.3566,0.009410
68.359,77.3116,0.009410
68.388,77.2733,0.008780
68.419,77.2334,0.008780
68.450,77.1945,0.008780
68.481,77.1544,0.008780
68.512,77.1181,0.008780
68.542,77.0821,0.008780
68.573,77.0460,0.008780
68.604,77.0100,0.008780
68.635,76.9751,0.008780
68.666,76.9412,0.008291
68.697,76.9088,0.008291
68.727,76.8763,0.008291
68.759,76.8438,0.008291
68.789,76.8137,0.008291
68.820,76.7824,0.008291
68.851,76.7538,0.008291
68.881,76.7250,0.007980
68.914,76.6946,0.007980
68.943,76.6691,0.007980
68.974,76.6425,0.007980
69.005,76.6161,0.007980
69.037,76.5897,0.007980
69.067,76.5656,0.007980
69.101,76.5397,0.007980
69.131,76.5176,0.007773
69.162,76.4949,0.007773
69.192,76.4738,0.007773
69.229,76.4484,0.007773
69.270,76.4221,0.007773
69.300,76.4036,0.007773
69.331,76.3852,0.007773
69.362,76.3677,0.007773
69.392,76.3508,0.007773
69.423,76.3346,0.007481
69.454,76.3188,0.007481
69.484,76.3044,0.007481
69.516,76.2899,0.007481
69.546,76.2770,0.007481
69.578,76.2640,0.007481
69.609,76.2518,0.007481
69.645,76.2389,0.007481
69.671,76.2301,0.007293
69.701,76.2206,0.007293
69.733,76.2113,0.007293
69.763,76.2032,0.007293
69.794,76.1954,0.007293
69.827,76.1882,0.007293
69.856,76.1824,0.007293
69.887,76.1771,0.007293
69.918,76.1722,0.007161
69.950,76.1684,0.007161
69.980,76.1651,0.007161
70.011,76.1625,0.007161
70.043,76.1607,0.007161
70.074,76.1596,0.007161
70.105,76.1593,0.007161
70.137,76.1593,0.006945
70.168,76.1593,0.006945
70.199,76.1593,0.006945
70.230,76.1593,0.006945
70.262,76.1593,0.006945
70.293,76.1593,0.006945
70.324,76.1593,0.006945
70.354,76.1593,0.006945
70.385,76.1593,0.006888
70.417,76.1593,0.006888
70.447,76.1593,0.006888
70.478,76.1593,0.006888
70.510,76.1593,0.006888
70.542,76.1593,0.006888
70.573,76.1593,0.006888
70.604,76.1593,0.006888
70.635,76.1593,0.006888
70.666,76.1593,0.006860
70.698,76.1593,0.006860
70.728,76.1593,0.006860
70.759,76.1593,0.006860
70.791,76.1593,0.006860
70.821,76.1593,0.006860
70.853,76.1593,0.006860
70.884,76.1594,0.006775
70.915,76.1603,0.006775
70.946,76.1618,0.006775
70.977,76.1639,0.006775
71.007,76.1670,0.006775
71.039,76.1706,0.006775
71.069,76.1751,0.006775
71.101,76.1803,0.006775
71.133,76.1864,0.006625
71.163,76.1927,0.006625
71.195,76.2005,0.006625
71.227,76.2087,0.006625
71.258,76.2174,0.006625
71.289,76.2270,0.006625
71.319,76.2370,0.006625
71.350,76.2484,0.006625
71.381,76.2599,0.006484
71.412,76.2723,0.006484
71.443,76.2855,0.006484
71.474,76.2993,0.006484
71.505,76.3141,0.006484
71.535,76.3291,0.006484
71.566,76.3451,0.006484
71.597,76.3619,0.006484
71.629,76.3796,0.006484
71.659,76.3977,0.006399
71.691,76.4168,0.006399
71.723,76.4379,0.006399
71.753,76.4575,0.006399
71.783,76.4774,0.006399
71.813,76.4988,0.006399
71.844,76.5217,0.006399
71.875,76.5445,0.006399
71.912,76.5743,0.006343
71.952,76.6064,0.006343
71.983,76.6321,0.006343
72.014,76.6586,0.006343
72.045,76.6852,0.006343
72.075,76.7128,0.006343
72.106,76.7419,0.006343
72.137,76.7710,0.006248
72.169,76.8018,0.006248
72.200,76.8328,0.006248
72.231,76.8646,0.006248
72.262,76.8974,0.006248
72.293,76.9312,0.006248
72.324,76.9640,0.006248
72.355,76.9988,0.006248
72.385,77.0328,0.006126
72.417,77.0694,0.006126
72.448,77.1066,0.006126
72.479,77.1441,0.006126
72.509,77.1826,0.006126
72.542,77.2223,0.006126
72.572,77.2611,0.006126
72.603,77.3022,0.006126
72.634,77.3428,0.006117
72.666,77.3864,0.006117
72.697,77.4283,0.006117
72.728,77.4714,0.006117
72.759,77.5164,0.006117
72.789,77.5594,0.006117
72.821,77.6054,0.006117
72.852,77.6532,0.006117
72.883,77.6997,0.005947
72.917,77.7523,0.005947
72.945,77.7953,0.005947
72.976,77.8453,0.005947
73.007,77.8953,0.005947
73.038,77.9443,0.005947
73.069,77.9961,0.005947
73.100,78.0487,0.005947
73.130,78.0998,0.005947
73.161,78.1527,0.005750
73.191,78.2057,0.005750
73.223,78.2630,0.005750
73.253,78.3175,0.005750
73.284,78.3725,0.005750
73.315,78.4306,0.005750
73.347,78.4898,0.005750
73.379,78.5524,0.005750
73.408,78.6046,0.005750
73.441,78.6694,0.005543
73.469,78.7245,0.005543
73.499,78.7813,0.005543
73.531,78.8403,0.005543
73.562,78.8991,0.005543
73.593,78.9562,0.005543
73.625,79.0143,0.005543
73.656,79.0692,0.005543
73.686,79.1232,0.005411
73.718,79.1772,0.005411
73.748,79.2300,0.005411
73.779,79.2822,0.005411
73.810,79.3342,0.005411
73.841,79.3854,0.005411
73.874,79.4397,0.005411
73.903,79.4858,0.005298
73.935,79.5354,0.005298
73.966,79.5846,0.005298
73.997,79.6323,0.005298
74.028,79.6802,0.005298
74.059,79.7251,0.005298
74.091,79.7714,0.005298
74.122,79.8173,0.005298
74.156,79.8650,0.005082
74.185,79.9051,0.005082
74.216,79.9460,0.005082
74.246,79.9873,0.005082
74.277,80.0279,0.005082
74.308,80.0683,0.005082
74.340,80.1084,0.005082
74.371,80.1479,0.005082
74.401,80.1847,0.005082
74.432,80.2228,0.004376
74.463,80.2584,0.004376
74.494,80.2940,0.004376
74.524,80.3292,0.004376
74.560,80.3690,0.004376
74.586,80.3965,0.004376
74.618,80.4301,0.004376
74.649,80.4621,0.002983
74.680,80.4948,0.002983
74.711,80.5249,0.002983
74.743,80.5551,0.002983
74.774,80.5845,0.002983
74.804,80.6128,0.002983
74.835,80.6404,0.002983
74.866,80.6678,0.002983
74.897,80.6942,0.000649
74.928,80.7195,0.000649
74.959,80.7451,0.000649
74.990,80.7687,0.000649
75.020,80.7918,0.000649
75.051,80.8143,0.000649
75.082,80.8362,0.000649
75.112,80.8571,0.000649
75.143,80.8770,0.000649
75.173,80.8973,-0.003077
75.204,80.9162,-0.003077
75.235,80.9348,-0.003077
75.266,80.9522,-0.003077
75.297,80.9694,-0.003077
75.329,80.9858,-0.003077
75.360,81.0017,-0.003077
75.392,81.0163,-0.008131
75.423,81.0308,-0.008131
75.454,81.0439,-0.008131
75.485,81.0568,-0.008131
75.518,81.0694,-0.008131
75.546,81.0793,-0.008131
75.577,81.0897,-0.008131
75.608,81.0994,-0.008131
75.640,81.1087,-0.013607
75.671,81.1168,-0.013607
75.701,81.1241,-0.013607
75.733,81.1312,-0.013607
75.765,81.1372,-0.013607
75.795,81.1426,-0.013607
75.829,81.1475,-0.013607
75.857,81.1509,-0.013607
75.888,81.1541,-0.013607
75.919,81.1565,-0.017588
75.950,81.1581,-0.017588
75.981,81.1591,-0.017588
76.011,81.1593,-0.017588
76.042,81.1593,-0.017588
76.073,81.1593,-0.017588
76.103,81.1593,-0.017588
76.134,81.1593,-0.017588
76.165,81.1593,-0.018284
76.196,81.1593,-0.018284
76.227,81.1593,-0.018284
76.257,81.1593,-0.018284
76.289,81.1593,-0.018284
76.320,81.1593,-0.018284
76.351,81.1593,-0.018284
76.381,81.1593,-0.018284
76.412,81.1593,-0.016609
76.443,81.1593,-0.016609
76.473,81.1593,-0.016609
76.505,81.1593,-0.016609
76.536,81.1593,-0.016609
76.567,81.1593,-0.016609
76.599,81.1593,-0.016609
76.628,81.1593,-0.016609
76.660,81.1593,-0.014925
76.690,81.1593,-0.014925
76.722,81.1593,-0.014925
76.752,81.1593,-0.014925
76.783,81.1593,-0.014925
76.814,81.1593,-0.014925
76.844,81.1593,-0.014925
76.875,81.1593,-0.014925
76.906,81.1593,-0.013739
76.936,81.1593,-0.013739
76.968,81.1593,-0.013739
76.999,81.1593,-0.013739
77.029,81.1593,-0.013739
77.061,81.1593,-0.013739
77.091,81.1593,-0.013739
77.123,81.1593,-0.012873
77.154,81.1593,-0.012873
77.186,81.1593,-0.012873
77.218,81.1593,-0.012873
77.249,81.1593,-0.012873
77.280,81.1593,-0.012873
77.311,81.1593,-0.012873
77.342,81.1593,-0.012873
77.372,81.1593,-0.012873
77.403,81.1593,-0.012873
77.434,81.1593,-0.012224
77.465,81.1593,-0.012224
77.496,81.1593,-0.012224
77.528,81.1593,-0.012224
77.561,81.1593,-0.012224
77.590,81.1593,-0.012224
77.623,81.1593,-0.012224
77.651,81.1593,-0.011735
77.683,81.1593,-0.011735
77.714,81.1593,-0.011735
77.750,81.1593,-0.011735
77.777,81.1593,-0.011735
77.809,81.1593,-0.011735
77.840,81.1593,-0.011735
77.871,81.1593,-0.011735
77.902,81.1593,-0.011255
77.933,81.1593,-0.011255
77.965,81.1593,-0.011255
77.995,81.1593,-0.011255
78.026,81.1593,-0.011255
78.058,81.1593,-0.011255
78.089,81.1593,-0.011255
78.120,81.1593,-0.011255
78.151,81.1593,-0.010841
78.182,81.1593,-0.010841
78.212,81.1593,-0.010841
78.244,81.1593,-0.010841
78.275,81.1593,-0.010841
78.307,81.1593,-0.010841
78.338,81.1593,-0.010841
78.369,81.1593,-0.010841
78.400,81.1593,-0.010493
78.431,81.1593,-0.010493
78.462,81.1593,-0.010493
78.493,81.1593,-0.010493
78.524,81.1593,-0.010493
78.555,81.1593,-0.010493
78.585,81.1593,-0.010493
78.616,81.1593,-0.010493
78.647,81.1593,-0.010154
78.681,81.1593,-0.010154
78.710,81.1593,-0.010154
78.741,81.1593,-0.010154
78.772,81.1593,-0.010154
78.803,81.1593,-0.010154
78.834,81.1593,-0.010154
78.865,81.1593,-0.010154
78.899,81.1593,-0.009862
78.929,81.1593,-0.009862
78.958,81.1593,-0.009862
78.989,81.1593,-0.009862
79.020,81.1593,-0.009862
79.051,81.1593,-0.009862
79.082,81.1593,-0.009862
79.114,81.1593,-0.009862
79.144,81.1593,-0.009664
79.175,81.1593,-0.009664
79.206,81.1593,-0.009664
79.238,81.1593,-0.009664
79.268,81.1593,-0.009664
79.299,81.1593,-0.009664
79.330,81.1593,-0.009664
79.362,81.1593,-0.009664
79.393,81.1593,-0.009429
79.425,81.1593,-0.009429
79.455,81.1593,-0.009429
79.486,81.1593,-0.009429
79.517,81.1593,-0.009429
79.548,81.1593,-0.009429
79.578,81.1593,-0.009429
79.609,81.1593,-0.009429
79.640,81.1593,-0.009429
79.671,81.1593,-0.009203
79.702,81.1593,-0.009203
79.733,81.1593,-0.009203
79.764,81.1593,-0.009203
79.795,81.1593,-0.009203
79.826,81.1593,-0.009203
79.857,81.1593,-0.009203
79.888,81.1593,-0.009043
79.919,81.1593,-0.009043
79.950,81.1593,-0.009043
79.983,81.1593,-0.009043
80.013,81.1593,-0.009043
80.044,81.1593,-0.009043
80.074,81.1593,-0.009043
80.106,81.1593,-0.009043
80.136,81.1593,-0.009043
80.171,81.1593,-0.008836
80.200,81.1593,-0.008836
80.231,81.1593,-0.008836
80.261,81.1593,-0.008836
80.292,81.1593,-0.008836
80.322,81.1593,-0.008836
80.353,81.1593,-0.008836
80.385,81.1593,-0.008629
80.415,81.1593,-0.008629
80.446,81.1593,-0.008629
80.478,81.1593,-0.008629
80.510,81.1593,-0.008629
80.540,81.1593,-0.008629
80.571,81.1593,-0.008629
80.602,81.1593,-0.008629
80.633,81.1593,-0.008422
80.664,81.1593,-0.008422
80.695,81.1593,-0.008422
80.726,81.1593,-0.008422
80.757,81.1593,-0.008422
80.789,81.1593,-0.008422
80.819,81.1593,-0.008422
80.850,81.1593,-0.008422
80.881,81.1593,-0.008215
80.913,81.1593,-0.008215
80.942,81.1593,-0.008215
80.973,81.1591,-0.008215
81.005,81.1581,-0.008215
81.035,81.1565,-0.008215
81.066,81.1540,-0.008215
81.097,81.1508,-0.008215
81.129,81.1468,-0.008055
81.161,81.1421,-0.008055
81.192,81.1366,-0.008055
81.223,81.1304,-0.008055
81.254,81.1235,-0.008055
81.280,81.1175,-0.008055
81.317,81.1076,-0.008055
81.347,81.0988,-0.008055
81.378,81.0890,-0.005533
81.408,81.0786,-0.005533
81.440,81.0675,-0.005533
81.471,81.0553,-0.005533
81.502,81.0429,-0.005533
81.532,81.0295,-0.005533
81.564,81.0155,-0.005533
81.596,80.9998,-0.005533
81.627,80.9843,0.000856
81.658,80.9680,0.000856
81.689,80.9511,0.000856
81.720,80.9332,0.000856
81.750,80.9154,0.000856
81.781,80.8960,0.000856
81.812,80.8762,0.000856
81.842,80.8563,0.000856
81.874,80.8341,0.000856
81.905,80.8122,0.008742
81.936,80.7887,0.008742
81.968,80.7654,0.008742
81.999,80.7401,0.008742
82.030,80.7156,0.008742
82.062,80.6890,0.008742
82.092,80.6631,0.008742
82.125,80.6345,0.008742
82.154,80.6078,0.015047
82.185,80.5785,0.015047
82.217,80.5496,0.015047
82.249,80.5180,0.015047
82.280,80.4876,0.015047
82.311,80.4555,0.015047
82.342,80.4227,0.015047
82.374,80.3894,0.015047
82.405,80.3554,0.019329
82.436,80.3201,0.019329
82.467,80.2847,0.019329
82.498,80.2497,0.019329
82.530,80.2110,0.019329
82.560,80.1748,0.019329
82.591,80.1358,0.019329
82.622,80.0978,0.019329
82.653,80.0570,0.024589
82.686,80.0152,0.024589
82.715,79.9764,0.024589
82.746,79.9341,0.024589
82.777,79.8925,0.024589
82.808,79.8489,0.024589
82.839,79.8050,0.024589
82.870,79.7593,0.024589
82.902,79.7132,0.032974
82.933,79.6671,0.032974
82.964,79.6207,0.032974
82.994,79.5734,0.032974
83.025,79.5243,0.032974
83.055,79.4781,0.032974
83.087,79.4262,0.032974
83.117,79.3770,0.032974
83.149,79.3237,0.032974
83.180,79.2732,0.041312
83.211,79.2184,0.041312
83.242,79.1664,0.041312
83.275,79.1091,0.041312
83.306,79.0537,0.041312
83.336,79.0008,0.041312
83.366,78.9449,0.041312
83.397,78.8862,0.030527
83.428,78.8283,0.030527
83.459,78.7713,0.030527
83.490,78.7130,0.030527
83.519,78.6567,0.030527
83.549,78.5970,0.030527
83.580,78.5377,0.030527
83.610,78.4791,0.030527
83.642,78.4205,0.013749
83.675,78.3574,0.013749
83.704,78.3042,0.013749
83.735,78.2486,0.013749
83.766,78.1929,0.013749
83.797,78.1391,0.013749
83.828,78.0857,0.013749
83.858,78.0334,0.013749
83.889,77.9816,0.010389
83.920,77.9283,0.010389
83.951,77.8783,0.010389
83.982,77.8273,0.010389
84.013,77.7794,0.010389
84.044,77.7298,0.010389
84.074,77.6831,0.010389
84.106,77.6326,0.010389
84.137,77.5879,0.009401
84.168,77.5397,0.009401
84.200,77.4951,0.009401
84.231,77.4490,0.009401
84.262,77.4059,0.009401
84.293,77.3622,0.009401
84.324,77.3212,0.009401
84.355,77.2791,0.009401
84.386,77.2383,0.008780
84.418,77.1974,0.008780
84.448,77.1583,0.008780
84.479,77.1201,0.008780
84.510,77.0816,0.008780
84.541,77.0448,0.008780
84.572,77.0085,0.008780
84.602,76.9729,0.008780
84.633,76.9384,0.008309
84.664,76.9030,0.008309
84.696,76.8700,0.008309
84.726,76.8375,0.008309
84.757,76.8051,0.008309
84.790,76.7716,0.008309
84.820,76.7426,0.008309
84.851,76.7118,0.008309
84.883,76.6827,0.007980
84.913,76.6545,0.007980
84.945,76.6263,0.007980
84.975,76.5991,0.007980
85.006,76.5727,0.007980
85.042,76.5434,0.007980
85.082,76.5117,0.007980
85.113,76.4875,0.007980
85.144,76.4648,0.007641
85.175,76.4427,0.007641
85.206,76.4211,0.007641
85.236,76.4004,0.007641
85.267,76.3803,0.007641
85.298,76.3607,0.007641
85.329,76.3421,0.007641
85.360,76.3241,0.007641
85.390,76.3073,0.007387
85.420,76.2907,0.007387
85.452,76.2747,0.007387
85.485,76.2587,0.007387
85.515,76.2448,0.007387
85.546,76.2313,0.007387
85.577,76.2181,0.007387
85.608,76.2060,0.007387
85.639,76.1944,0.007387
85.669,76.1839,0.007237
85.701,76.1736,0.007237
85.732,76.1643,0.007237
85.763,76.1558,0.007237
85.794,76.1479,0.007237
85.824,76.1410,0.007237
85.855,76.1345,0.007237
85.887,76.1288,0.007067
85.919,76.1236,0.007067
85.950,76.1195,0.007067
85.980,76.1160,0.007067
86.013,76.1132,0.007067
86.044,76.1112,0.007067
86.074,76.1100,0.007067
86.105,76.1093,0.007067
86.136,76.1093,0.006888
86.168,76.1093,0.006888
86.199,76.1093,0.006888
86.230,76.1096,0.006888
86.261,76.1106,0.006888
86.293,76.1123,0.006888
86.323,76.1147,0.006888
86.355,76.1180,0.006888
86.384,76.1216,0.006823
86.415,76.1262,0.006823
86.448,76.1319,0.006823
86.477,76.1376,0.006823
86.509,76.1444,0.006823
86.540,76.1520,0.006823
86.571,76.1603,0.006823
86.602,76.1695,0.006823
86.633,76.1788,0.006785
86.664,76.1893,0.006785
86.695,76.2005,0.006785
86.726,76.2124,0.006785
86.757,76.2252,0.006785
86.788,76.2382,0.006785
86.818,76.2523,0.006785
86.849,76.2668,0.006785
86.879,76.2822,0.006785
86.910,76.2980,0.006785
86.942,76.3153,0.006634
86.972,76.3326,0.006634
87.003,76.3512,0.006634
87.034,76.3700,0.006634
87.066,76.3906,0.006634
87.097,76.4110,0.006634
87.128,76.4320,0.006634
87.159,76.4544,0.006484
87.189,76.4766,0.006484
87.220,76.5006,0.006484
87.253,76.5254,0.006484
87.284,76.5502,0.006484
87.315,76.5762,0.006484
87.346,76.6023,0.006484
87.376,76.6294,0.006484
87.407,76.6569,0.006333
87.438,76.6856,0.006333
87.469,76.7149,0.006333
87.501,76.7455,0.006333
87.532,76.7768,0.006333
87.563,76.8083,0.006333
87.594,76.8406,0.006333
87.625,76.8738,0.006333
87.657,76.9077,0.006183
87.687,76.9418,0.006183
87.718,76.9769,0.006183
87.750,77.0140,0.006183
87.780,77.0496,0.006183
87.812,77.0883,0.006183
87.844,77.1276,0.006183
87.875,77.1660,0.006183
87.907,77.2072,0.006070
87.937,77.2458,0.006070
87.967,77.2858,0.006070
87.999,77.3292,0.006070
88.030,77.3714,0.006070
88.064,77.4190,0.006070
88.091,77.4573,0.006070
88.123,77.5039,0.006070
88.153,77.5465,0.005994
88.188,77.5987,0.005994
88.214,77.6397,0.005994
88.246,77.6880,0.005994
88.277,77.7353,0.005994
88.312,77.7931,0.005994
88.339,77.8344,0.005994
88.371,77.8871,0.005994
88.401,77.9360,0.005863
88.432,77.9885,0.005863
88.463,78.0421,0.005863
88.494,78.0941,0.005863
88.525,78.1480,0.005863
88.556,78.2030,0.005863
88.587,78.2593,0.005863
88.617,78.3144,0.005863
88.648,78.3704,0.005863
88.679,78.4285,0.005712
88.713,78.4918,0.005712
88.742,78.5469,0.005712
88.773,78.6075,0.005712
88.805,78.6683,0.005712
88.836,78.7281,0.005712
88.867,78.7859,0.005712
88.897,78.8422,0.005712
88.928,78.9005,0.005505
88.959,78.9560,0.005505
88.990,79.0106,0.005505
89.021,79.0664,0.005505
89.052,79.1214,0.005505
89.084,79.1758,0.005505
89.115,79.2277,0.005505
89.146,79.2810,0.005355
89.176,79.3307,0.005355
89.207,79.3817,0.005355
89.238,79.4314,0.005355
89.269,79.4807,0.005355
89.300,79.5280,0.005355
89.332,79.5765,0.005355
89.362,79.6221,0.005355
89.394,79.6689,0.005195
89.425,79.7159,0.005195
89.457,79.7610,0.005195
89.488,79.8052,0.005195
89.519,79.8486,0.005195
89.551,79.8928,0.005195
89.582,79.9342,0.005195
89.613,79.9750,0.005195
89.645,80.0164,0.005195
89.675,80.0548,0.004705
89.707,80.0947,0.004705
89.736,80.1309,0.004705
89.768,80.1689,0.004705
89.799,80.2052,0.004705
89.831,80.2428,0.004705
89.861,80.2769,0.004705
89.892,80.3111,0.004705
89.923,80.3441,0.003679
89.955,80.3795,0.003679
89.986,80.4110,0.003679
90.019,80.4443,0.003679
90.050,80.4750,0.003679
90.080,80.5039,0.003679
90.111,80.5336,0.003679
90.142,80.5620,0.003679
90.173,80.5906,0.001722
90.204,80.6170,0.001722
90.235,80.6434,0.001722
90.266,80.6696,0.001722
90.297,80.6942,0.001722
90.328,80.7182,0.001722
90.359,80.7416,0.001722
90.390,80.7651,0.001722
90.421,80.7866,-0.001421
90.453,80.8087,-0.001421
90.484,80.8288,-0.001421
90.518,80.8510,-0.001421
90.545,80.8675,-0.001421
90.576,80.8861,-0.001421
90.606,80.9032,-0.001421
90.638,80.9202,-0.001421
90.669,80.9367,-0.006032
90.700,80.9523,-0.006032
90.731,80.9671,-0.006032
90.763,80.9814,-0.006032
90.794,80.9950,-0.006032
90.825,81.0071,-0.006032
90.856,81.0192,-0.006032
90.886,81.0300,-0.006032
90.918,81.0408,-0.011575
90.948,81.0499,-0.011575
90.980,81.0594,-0.011575
91.010,81.0671,-0.011575
91.040,81.0742,-0.011575
91.071,81.0809,-0.011575
91.102,81.0870,-0.011575
91.131,81.0921,-0.011575
91.163,81.0968,-0.016336
91.194,81.1008,-0.016336
91.225,81.1040,-0.016336
91.256,81.1065,-0.016336
91.288,81.1081,-0.016336
91.318,81.1091,-0.016336
91.348,81.1093,-0.016336
91.379,81.1093,-0.016336
91.411,81.1093,-0.018350
91.442,81.1093,-0.018350
91.472,81.1093,-0.018350
91.503,81.1093,-0.018350
91.533,81.1093,-0.018350
91.565,81.1093,-0.018350
91.596,81.1093,-0.018350
91.627,81.1093,-0.018350
91.658,81.1093,-0.017343
91.688,81.1093,-0.017343
91.719,81.1093,-0.017343
91.750,81.1093,-0.017343
91.782,81.1093,-0.017343
91.813,81.1093,-0.017343
91.843,81.1093,-0.017343
91.875,81.1093,-0.017343
91.906,81.1093,-0.015405
91.936,81.1093,-0.015405
91.968,81.1093,-0.015405
91.999,81.1093,-0.015405
