Elapsed Time (s),Position (mm),Force (N)
-0.022,62.9094,-0.521985
0.009,62.9094,-0.521985
0.040,62.9094,-0.521985
0.071,62.9094,-0.521985
0.103,62.9094,-0.521985
0.133,62.9094,-0.521985
0.162,62.9094,-0.521985
0.198,62.9094,-0.441836
0.224,62.9094,-0.441836
0.255,62.9094,-0.441836
0.287,62.9094,-0.441836
0.319,62.9094,-0.441836
0.349,62.9094,-0.441836
0.381,62.9094,-0.441836
0.411,62.9094,-0.441836
0.443,62.9094,-0.395039
0.473,62.9094,-0.395039
0.504,62.9094,-0.395039
0.535,62.9094,-0.395039
0.566,62.9094,-0.395039
0.598,62.9094,-0.395039
0.628,62.9094,-0.395039
0.660,62.9094,-0.395039
0.691,62.9094,-0.395039
0.722,62.9094,-0.395039
0.752,62.9094,-0.363674
0.784,62.9094,-0.363674
0.815,62.9094,-0.363674
0.846,62.9094,-0.363674
0.878,62.9094,-0.363674
0.909,62.9094,-0.363674
0.940,62.9094,-0.363674
0.972,62.9094,-0.340647
1.004,62.9094,-0.340647
1.034,62.9094,-0.340647
1.066,62.9094,-0.340647
1.097,62.9094,-0.340647
1.128,62.9094,-0.340647
1.159,62.9094,-0.340647
1.190,62.9094,-0.340647
1.220,62.9094,-0.340647
1.251,62.9094,-0.323661
1.282,62.9094,-0.323661
1.314,62.9094,-0.323661
1.345,62.9094,-0.323661
1.376,62.9094,-0.323661
1.407,62.9094,-0.323661
1.437,62.9094,-0.323661
1.465,62.9094,-0.311587
1.499,62.9094,-0.311587
1.530,62.9094,-0.311587
1.561,62.9094,-0.311587
1.593,62.9094,-0.311587
1.624,62.9094,-0.311587
1.655,62.9094,-0.311587
1.685,62.9094,-0.301904
1.717,62.9094,-0.301904
1.748,62.9094,-0.301904
1.778,62.9094,-0.301904
1.809,62.9094,-0.301904
1.840,62.9094,-0.301904
1.871,62.9094,-0.301904
1.906,62.9094,-0.301904
1.933,62.9094,-0.301904
1.965,62.9094,-0.293773
1.996,62.9094,-0.293773
2.026,62.9094,-0.293773
2.057,62.9094,-0.293773
2.089,62.9094,-0.293773
2.119,62.9094,-0.293773
2.150,62.9094,-0.293773
2.181,62.9094,-0.293773
2.212,62.9094,-0.287487
2.243,62.9094,-0.287487
2.278,62.9094,-0.287487
2.305,62.9094,-0.287487
2.336,62.9094,-0.287487
2.367,62.9094,-0.287487
2.397,62.9094,-0.287487
2.431,62.9094,-0.287487
2.460,62.9094,-0.287487
2.490,62.9094,-0.281869
2.520,62.9094,-0.281869
2.552,62.9094,-0.281869
2.584,62.9094,-0.281869
2.615,62.9094,-0.281869
2.646,62.9094,-0.281869
2.676,62.9094,-0.281869
2.708,62.9094,-0.277089
2.741,62.9094,-0.277089
2.769,62.9094,-0.277089
2.802,62.9094,-0.277089
2.831,62.9094,-0.277089
2.862,62.9094,-0.277089
2.892,62.9094,-0.277089
2.924,62.9094,-0.277089
2.956,62.9094,-0.272741
2.986,62.9094,-0.272741
3.017,62.9094,-0.272741
3.048,62.9094,-0.272741
3.078,62.9094,-0.272741
3.109,62.9094,-0.272741
3.140,62.9094,-0.272741
3.172,62.9094,-0.272741
3.202,62.9094,-0.269721
3.234,62.9094,-0.269721
3.265,62.9094,-0.269721
3.295,62.9094,-0.269721
3.327,62.9094,-0.269721
3.359,62.9094,-0.269721
3.390,62.9094,-0.269721
3.420,62.9094,-0.269721
3.451,62.9094,-0.266803
3.486,62.9094,-0.266803
3.513,62.9094,-0.266803
3.544,62.9094,-0.266803
3.576,62.9094,-0.266803
3.606,62.9094,-0.266803
3.638,62.9094,-0.266803
3.669,62.9094,-0.266803
3.699,62.9094,-0.262983
3.731,62.9094,-0.262983
3.761,62.9094,-0.262983
3.793,62.9094,-0.262983
3.823,62.9094,-0.262983
3.854,62.9094,-0.262983
3.884,62.9094,-0.262983
3.916,62.9094,-0.262983
3.947,62.9094,-0.258108
3.979,62.9094,-0.258108
4.010,62.9094,-0.258108
4.040,62.9094,-0.258108
4.071,62.9094,-0.258108
4.101,62.9087,-0.258108
4.133,62.9073,-0.258108
4.163,62.9053,-0.258108
4.196,62.9022,-0.251483
4.226,62.8987,-0.251483
4.256,62.8946,-0.251483
4.287,62.8898,-0.251483
4.318,62.8840,-0.251483
4.348,62.8777,-0.251483
4.382,62.8698,-0.251483
4.410,62.8625,-0.251483
4.444,62.8531,0.184745
4.473,62.8445,0.184745
4.505,62.8339,0.184745
4.536,62.8235,0.184745
4.567,62.8118,0.184745
4.597,62.7996,0.184745
4.631,62.7851,0.184745
4.659,62.7729,0.184745
4.690,62.7583,0.372124
4.721,62.7435,0.372124
4.752,62.7273,0.372124
4.783,62.7103,0.372124
4.815,62.6927,0.372124
4.846,62.6745,0.372124
4.877,62.6554,0.372124
4.908,62.6362,0.372124
4.939,62.6162,0.372124
4.970,62.5951,0.085597
5.004,62.5708,0.085597
5.032,62.5505,0.085597
5.064,62.5268,0.085597
5.094,62.5033,0.085597
5.131,62.4736,0.085597
5.157,62.4524,0.085597
5.194,62.4220,0.085597
5.233,62.3869,0.054138
5.265,62.3586,0.054138
5.296,62.3300,0.054138
5.327,62.3004,0.054138
5.358,62.2704,0.054138
5.389,62.2398,0.054138
5.419,62.2088,0.054138
5.451,62.1749,0.054138
5.483,62.1422,0.074540
5.514,62.1078,0.074540
5.544,62.0742,0.074540
5.575,62.0394,0.074540
5.607,62.0018,0.074540
5.638,61.9661,0.074540
5.669,61.9285,0.074540
5.699,61.8914,0.074540
5.730,61.8523,0.074540
5.762,61.8123,0.089822
5.793,61.7720,0.089822
5.823,61.7314,0.089822
5.854,61.6899,0.089822
5.886,61.6466,0.089822
5.916,61.6048,0.089822
5.947,61.5603,0.089822
5.977,61.5162,0.095280
6.009,61.4695,0.095280
6.040,61.4240,0.095280
6.071,61.3767,0.095280
6.102,61.3292,0.095280
6.133,61.2816,0.095280
6.164,61.2327,0.095280
6.195,61.1826,0.095280
6.227,61.1290,0.096099
6.257,61.0793,0.096099
6.289,61.0280,0.096099
6.319,60.9749,0.096099
6.350,60.9233,0.096099
6.381,60.8677,0.096099
6.413,60.8120,0.096099
6.444,60.7550,0.096099
6.475,60.6988,0.099534
6.506,60.6415,0.099534
6.537,60.5853,0.099534
6.571,60.5202,0.099534
6.600,60.4651,0.099534
6.630,60.4065,0.099534
6.661,60.3461,0.099534
6.692,60.2861,0.099534
6.723,60.2274,0.111560
6.754,60.1681,0.111560
6.784,60.1125,0.111560
6.816,60.0559,0.111560
6.847,59.9997,0.111560
6.878,59.9442,0.111560
6.908,59.8887,0.111560
6.934,59.8445,0.111560
6.971,59.7812,0.132178
7.003,59.7278,0.132178
7.036,59.6716,0.132178
7.067,59.6212,0.132178
7.095,59.5752,0.132178
7.126,59.5257,0.132178
7.158,59.4741,0.132178
7.189,59.4277,0.132178
7.223,59.3754,0.150773
7.251,59.3327,0.150773
7.282,59.2877,0.150773
7.313,59.2418,0.150773
7.347,59.1930,0.150773
7.375,59.1540,0.150773
7.406,59.1112,0.150773
7.437,59.0691,0.150773
7.468,59.0266,0.132941
7.499,58.9868,0.132941
7.532,58.9436,0.132941
7.561,58.9072,0.132941
7.593,58.8670,0.132941
7.624,58.8284,0.132941
7.655,58.7919,0.132941
7.685,58.7560,0.132941
7.717,58.7186,0.067482
7.748,58.6843,0.067482
7.780,58.6488,0.067482
7.810,58.6165,0.067482
7.842,58.5826,0.067482
7.872,58.5515,0.067482
7.899,58.5248,0.067482
7.934,58.4902,0.023978
7.965,58.4602,0.023978
7.996,58.4309,0.023978
8.027,58.4019,0.023978
8.058,58.3742,0.023978
8.089,58.3468,0.023978
8.120,58.3208,0.023978
8.152,58.2944,0.023978
8.183,58.2699,0.020675
8.213,58.2459,0.020675
8.244,58.2232,0.020675
8.275,58.2001,0.020675
8.307,58.1783,0.020675
8.338,58.1568,0.020675
8.368,58.1369,0.020675
8.399,58.1174,0.020675
8.430,58.0982,0.020675
8.462,58.0794,0.019263
8.492,58.0619,0.019263
8.523,58.0454,0.019263
8.555,58.0291,0.019263
8.586,58.0138,0.019263
8.616,57.9994,0.019263
8.648,57.9854,0.019263
8.678,57.9723,0.019263
8.710,57.9593,0.018416
8.741,57.9476,0.018416
8.772,57.9368,0.018416
8.803,57.9266,0.018416
8.834,57.9172,0.018416
8.865,57.9082,0.018416
8.897,57.9000,0.018416
8.928,57.8924,0.018416
8.960,57.8858,0.018416
8.991,57.8800,0.017983
9.022,57.8749,0.017983
9.052,57.8706,0.017983
9.083,57.8669,0.017983
9.114,57.8639,0.017983
9.145,57.8616,0.017983
9.176,57.8602,0.017983
9.207,57.8594,0.017607
9.237,57.8593,0.017607
9.268,57.8593,0.017607
9.299,57.8593,0.017607
9.329,57.8593,0.017607
9.360,57.8593,0.017607
9.391,57.8593,0.017607
9.421,57.8594,0.017607
9.453,57.8603,0.017362
9.483,57.8619,0.017362
9.515,57.8641,0.017362
9.545,57.8672,0.017362
9.579,57.8712,0.017362
9.607,57.8755,0.017362
9.639,57.8807,0.017362
9.669,57.8865,0.017362
9.700,57.8931,0.017362
9.732,57.9007,0.017259
9.764,57.9091,0.017259
9.795,57.9178,0.017259
9.826,57.9279,0.017259
9.857,57.9379,0.017259
9.890,57.9500,0.017259
9.919,57.9612,0.017259
9.950,57.9734,0.017259
9.981,57.9867,0.017117
10.012,58.0008,0.017117
10.043,58.0156,0.017117
10.079,58.0330,0.017117
10.105,58.0468,0.017117
10.136,58.0638,0.017117
10.166,58.0804,0.017117
10.196,58.0987,0.017117
10.227,58.1175,0.017136
10.261,58.1393,0.017136
10.290,58.1587,0.017136
10.323,58.1810,0.017136
10.352,58.2022,0.017136
10.384,58.2250,0.017136
10.415,58.2484,0.017136
10.446,58.2728,0.017136
10.477,58.2978,0.016995
10.507,58.3230,0.016995
10.538,58.3489,0.016995
10.569,58.3758,0.016995
10.600,58.4041,0.016995
10.631,58.4319,0.016995
10.663,58.4628,0.016995
10.694,58.4919,0.016816
10.726,58.5242,0.016816
10.756,58.5539,0.016816
10.787,58.5873,0.016816
10.818,58.6189,0.016816
10.849,58.6532,0.016816
10.881,58.6876,0.016816
10.912,58.7247,0.016816
10.943,58.7595,0.016478
10.975,58.7967,0.016478
11.006,58.8337,0.016478
11.036,58.8717,0.016478
11.067,58.9104,0.016478
11.098,58.9488,0.016478
11.129,58.9895,0.016478
11.161,59.0321,0.016478
11.191,59.0716,0.016478
11.221,59.1129,0.016478
11.252,59.1562,0.015480
11.283,59.2004,0.015480
11.315,59.2455,0.015480
11.345,59.2898,0.015480
11.376,59.3354,0.015480
11.407,59.3824,0.015480
11.438,59.4293,0.015480
11.469,59.4775,0.013918
11.501,59.5286,0.013918
11.532,59.5791,0.013918
11.564,59.6303,0.013918
11.594,59.6809,0.013918
11.626,59.7332,0.013918
11.656,59.7846,0.013918
11.688,59.8401,0.013918
11.719,59.8930,0.010351
11.750,59.9483,0.010351
11.781,60.0029,0.010351
11.812,60.0610,0.010351
11.843,60.1164,0.010351
11.874,60.1744,0.010351
11.905,60.2320,0.010351
11.936,60.2926,0.010351
11.967,60.3512,0.004103
12.002,60.4206,0.004103
12.029,60.4710,0.004103
12.060,60.5315,0.004103
12.091,60.5877,0.004103
12.123,60.6465,0.004103
12.153,60.7007,0.004103
12.185,60.7592,0.004103
12.216,60.8117,0.004103
12.247,60.8679,-0.006324
12.277,60.9192,-0.006324
12.309,60.9748,-0.006324
12.340,61.0247,-0.006324
12.374,61.0832,-0.006324
12.403,61.1295,-0.006324
12.434,61.1799,-0.006324
12.465,61.2276,-0.021343
12.496,61.2766,-0.021343
12.530,61.3290,-0.021343
12.558,61.3705,-0.021343
12.591,61.4200,-0.021343
12.618,61.4593,-0.021343
12.649,61.5053,-0.021343
12.680,61.5484,-0.041726
12.711,61.5920,-0.041726
12.742,61.6354,-0.041726
12.774,61.6776,-0.041726
12.805,61.7184,-0.041726
12.836,61.7592,-0.041726
12.867,61.7984,-0.041726
12.898,61.8381,-0.041726
12.929,61.8758,-0.041726
12.960,61.9140,-0.070409
12.991,61.9496,-0.070409
13.023,61.9872,-0.070409
13.053,62.0208,-0.070409
13.084,62.0560,-0.070409
13.115,62.0894,-0.070409
13.147,62.1232,-0.070409
13.177,62.1557,-0.070409
13.202,62.1809,-0.110177
13.239,62.2180,-0.110177
13.270,62.2475,-0.110177
13.301,62.2766,-0.110177
13.331,62.3057,-0.110177
13.362,62.3333,-0.110177
13.393,62.3605,-0.110177
13.424,62.3870,-0.110177
13.456,62.4132,-0.110177
13.487,62.4381,-0.169933
13.518,62.4629,-0.169933
13.549,62.4869,-0.169933
13.580,62.5102,-0.169933
13.612,62.5324,-0.169933
13.643,62.5539,-0.169933
13.674,62.5750,-0.169933
13.709,62.5977,-0.169933
13.736,62.6141,-0.281850
13.767,62.6326,-0.281850
13.799,62.6506,-0.281850
13.829,62.6673,-0.281850
13.859,62.6837,-0.281850
13.891,62.6993,-0.281850
13.922,62.7146,-0.281850
13.953,62.7283,-0.281850
13.984,62.7422,-0.471752
14.017,62.7556,-0.471752
14.045,62.7664,-0.471752
14.079,62.7783,-0.471752
14.106,62.7876,-0.471752
14.137,62.7973,-0.471752
14.168,62.8063,-0.471752
14.204,62.8163,-0.471752
14.230,62.8226,-0.742677
14.260,62.8292,-0.742677
14.290,62.8355,-0.742677
14.322,62.8411,-0.742677
14.352,62.8458,-0.742677
14.384,62.8500,-0.742677
14.413,62.8531,-0.742677
14.445,62.8558,-1.025704
14.475,62.8577,-1.025704
14.506,62.8588,-1.025704
14.538,62.8593,-1.025704
14.569,62.8593,-1.025704
14.599,62.8593,-1.025704
14.630,62.8593,-1.025704
14.662,62.8593,-1.025704
14.695,62.8593,-1.039170
14.726,62.8593,-1.039170
14.757,62.8593,-1.039170
14.787,62.8593,-1.039170
14.820,62.8593,-1.039170
14.849,62.8593,-1.039170
14.879,62.8593,-1.039170
14.910,62.8593,-1.039170
14.941,62.8593,-1.039170
14.972,62.8593,-1.039170
15.005,62.8593,-0.787329
15.040,62.8593,-0.787329
15.081,62.8593,-0.787329
15.113,62.8593,-0.787329
15.143,62.8593,-0.787329
15.173,62.8593,-0.787329
15.205,62.8593,-0.787329
15.235,62.8593,-0.578362
15.267,62.8593,-0.578362
15.297,62.8593,-0.578362
15.328,62.8593,-0.578362
15.359,62.8593,-0.578362
15.390,62.8593,-0.578362
15.421,62.8593,-0.578362
15.451,62.8593,-0.578362
15.482,62.8593,-0.470764
15.514,62.8593,-0.470764
15.546,62.8593,-0.470764
15.576,62.8593,-0.470764
15.608,62.8593,-0.470764
15.640,62.8593,-0.470764
15.671,62.8593,-0.470764
15.701,62.8593,-0.409888
15.733,62.8593,-0.409888
15.765,62.8593,-0.409888
15.796,62.8593,-0.409888
15.828,62.8593,-0.409888
15.858,62.8593,-0.409888
15.889,62.8593,-0.409888
15.920,62.8593,-0.409888
15.952,62.8593,-0.371786
15.983,62.8593,-0.371786
16.015,62.8593,-0.371786
16.045,62.8593,-0.371786
16.076,62.8593,-0.371786
16.107,62.8593,-0.371786
16.138,62.8593,-0.371786
16.170,62.8593,-0.371786
16.199,62.8593,-0.345926
16.231,62.8593,-0.345926
16.263,62.8593,-0.345926
16.295,62.8593,-0.345926
16.325,62.8593,-0.345926
16.356,62.8593,-0.345926
16.387,62.8593,-0.345926
16.417,62.8593,-0.345926
16.448,62.8593,-0.327481
16.479,62.8593,-0.327481
16.510,62.8593,-0.327481
16.542,62.8593,-0.327481
16.572,62.8593,-0.327481
16.603,62.8593,-0.327481
16.635,62.8593,-0.327481
16.665,62.8593,-0.327481
16.697,62.8593,-0.313780
16.727,62.8593,-0.313780
16.758,62.8593,-0.313780
16.791,62.8593,-0.313780
16.821,62.8593,-0.313780
16.851,62.8593,-0.313780
16.882,62.8593,-0.313780
16.913,62.8593,-0.313780
16.943,62.8593,-0.302403
16.974,62.8593,-0.302403
17.005,62.8593,-0.302403
17.035,62.8593,-0.302403
17.067,62.8593,-0.302403
17.097,62.8593,-0.302403
17.129,62.8593,-0.302403
17.161,62.8593,-0.302403
17.190,62.8593,-0.294159
17.221,62.8593,-0.294159
17.252,62.8593,-0.294159
17.283,62.8593,-0.294159
17.315,62.8593,-0.294159
17.344,62.8593,-0.294159
17.374,62.8593,-0.294159
17.405,62.8593,-0.294159
17.437,62.8593,-0.287054
17.468,62.8593,-0.287054
17.499,62.8593,-0.287054
17.530,62.8593,-0.287054
17.561,62.8593,-0.287054
17.592,62.8593,-0.287054
17.622,62.8593,-0.287054
17.653,62.8593,-0.287054
17.684,62.8593,-0.287054
17.716,62.8593,-0.281173
17.746,62.8593,-0.281173
17.781,62.8593,-0.281173
17.808,62.8593,-0.281173
17.840,62.8593,-0.281173
17.870,62.8593,-0.281173
17.905,62.8593,-0.281173
17.931,62.8593,-0.281173
17.963,62.8593,-0.275894
17.993,62.8593,-0.275894
18.024,62.8593,-0.275894
18.056,62.8593,-0.275894
18.087,62.8593,-0.275894
18.118,62.8593,-0.275894
18.149,62.8593,-0.275894
18.180,62.8593,-0.271885
18.210,62.8593,-0.271885
18.241,62.8593,-0.271885
18.273,62.8593,-0.271885
18.302,62.8593,-0.271885
18.333,62.8593,-0.271885
18.363,62.8593,-0.271885
18.395,62.8593,-0.271885
18.427,62.8593,-0.271885
18.458,62.8593,-0.268638
18.489,62.8593,-0.268638
18.520,62.8593,-0.268638
18.552,62.8593,-0.268638
18.583,62.8593,-0.268638
18.614,62.8593,-0.268638
18.645,62.8593,-0.268638
18.676,62.8593,-0.264771
18.708,62.8593,-0.264771
18.739,62.8593,-0.264771
18.770,62.8593,-0.264771
18.801,62.8593,-0.264771
18.832,62.8593,-0.264771
18.861,62.8593,-0.264771
18.892,62.8593,-0.264771
18.923,62.8593,-0.264771
18.955,62.8593,-0.264771
18.986,62.8593,-0.261985
19.017,62.8593,-0.261985
19.048,62.8593,-0.261985
19.079,62.8593,-0.261985
19.111,62.8593,-0.261985
19.142,62.8593,-0.261985
19.173,62.8593,-0.261985
19.203,62.8593,-0.258673
19.235,62.8593,-0.258673
19.265,62.8593,-0.258673
19.299,62.8593,-0.258673
19.328,62.8593,-0.258673
19.358,62.8593,-0.258673
19.388,62.8593,-0.258673
19.420,62.8593,-0.258673
19.451,62.8593,-0.258673
19.481,62.8593,-0.254316
19.519,62.8593,-0.254316
19.559,62.8593,-0.254316
19.589,62.8593,-0.254316
19.620,62.8593,-0.254316
19.652,62.8586,-0.254316
19.682,62.8572,-0.254316
19.713,62.8551,-0.254316
19.744,62.8521,-0.249526
19.777,62.8485,-0.249526
19.810,62.8435,-0.249526
19.839,62.8391,-0.249526
19.869,62.8335,-0.249526
19.899,62.8270,-0.249526
19.930,62.8199,-0.249526
19.961,62.8119,-0.249526
19.991,62.8036,0.015969
20.022,62.7939,0.015969
20.055,62.7833,0.015969
20.086,62.7729,0.015969
20.116,62.7616,0.015969
20.146,62.7492,0.015969
20.180,62.7349,0.015969
20.209,62.7222,0.015969
20.239,62.7085,0.387717
20.270,62.6931,0.387717
20.302,62.6770,0.387717
20.332,62.6605,0.387717
20.364,62.6426,0.387717
20.393,62.6256,0.387717
20.425,62.6062,0.387717
20.456,62.5871,0.270502
20.487,62.5661,0.270502
20.516,62.5469,0.270502
20.549,62.5238,0.270502
20.579,62.5022,0.270502
20.610,62.4783,0.270502
20.640,62.4557,0.270502
20.672,62.4305,0.270502
20.703,62.4047,0.052049
20.734,62.3788,0.052049
20.765,62.3523,0.052049
20.796,62.3248,0.052049
20.827,62.2966,0.052049
20.862,62.2631,0.052049
20.890,62.2368,0.052049
20.920,62.2073,0.052049
20.951,62.1754,0.052049
20.982,62.1441,0.071020
21.013,62.1113,0.071020
21.044,62.0777,0.071020
21.075,62.0437,0.071020
21.106,62.0097,0.071020
21.136,61.9745,0.071020
21.168,61.9380,0.071020
21.198,61.9016,0.071020
21.229,61.8643,0.088175
21.260,61.8246,0.088175
21.291,61.7867,0.088175
21.322,61.7464,0.088175
21.354,61.7050,0.088175
21.385,61.6641,0.088175
21.416,61.6207,0.088175
21.447,61.5776,0.088175
21.479,61.5331,0.095224
21.509,61.4909,0.095224
21.540,61.4457,0.095224
21.570,61.4012,0.095224
21.602,61.3533,0.095224
21.633,61.3071,0.095224
21.668,61.2526,0.095224
21.693,61.2121,0.095224
21.725,61.1617,0.096532
21.756,61.1118,0.096532
21.787,61.0613,0.096532
21.818,61.0104,0.096532
21.849,60.9586,0.096532
21.879,60.9058,0.096532
21.911,60.8496,0.096532
21.942,60.7968,0.098922
21.973,60.7417,0.098922
22.003,60.6868,0.098922
22.035,60.6300,0.098922
22.065,60.5732,0.098922
22.096,60.5146,0.098922
22.127,60.4565,0.098922
22.161,60.3900,0.098922
22.189,60.3367,0.109480
22.220,60.2756,0.109480
22.252,60.2164,0.109480
22.283,60.1566,0.109480
22.314,60.0978,0.109480
22.345,60.0415,0.109480
22.376,59.9852,0.109480
22.407,59.9299,0.109480
22.438,59.8731,0.130550
22.469,59.8176,0.130550
22.501,59.7644,0.130550
22.532,59.7106,0.130550
22.563,59.6587,0.130550
22.593,59.6083,0.130550
22.624,59.5584,0.130550
22.654,59.5077,0.130550
22.686,59.4589,0.152749
22.716,59.4117,0.152749
22.747,59.3632,0.152749
22.779,59.3151,0.152749
22.810,59.2667,0.152749
22.840,59.2243,0.152749
22.872,59.1774,0.152749
22.902,59.1331,0.152749
22.933,59.0910,0.152749
22.964,59.0472,0.152749
22.995,59.0068,0.152749
23.026,58.9643,0.152749
23.057,58.9243,0.152749
23.089,58.8831,0.152749
23.120,58.8439,0.152749
23.151,58.8042,0.152749
23.183,58.7661,0.152749
23.213,58.7299,0.086990
23.245,58.6935,0.086990
23.276,58.6575,0.086990
23.307,58.6230,0.086990
23.337,58.5905,0.086990
23.368,58.5565,0.086990
23.399,58.5244,0.086990
23.430,58.4922,0.086990
23.462,58.4594,0.026283
23.492,58.4310,0.026283
23.523,58.4004,0.026283
23.553,58.3727,0.026283
23.585,58.3440,0.026283
23.616,58.3163,0.026283
23.647,58.2890,0.026283
23.678,58.2636,0.026283
23.708,58.2384,0.021136
23.739,58.2146,0.021136
23.770,58.1903,0.021136
23.802,58.1665,0.021136
23.832,58.1444,0.021136
23.863,58.1227,0.021136
23.894,58.1019,0.021136
23.925,58.0819,0.021136
23.956,58.0623,0.021136
23.986,58.0435,0.019564
24.017,58.0256,0.019564
24.048,58.0081,0.019564
24.080,57.9915,0.019564
24.110,57.9759,0.019564
24.142,57.9600,0.019564
24.172,57.9460,0.019564
24.204,57.9320,0.018501
24.234,57.9189,0.018501
24.266,57.9068,0.018501
24.297,57.8951,0.018501
24.327,57.8846,0.018501
24.359,57.8743,0.018501
24.389,57.8650,0.018501
24.419,57.8568,0.018501
24.450,57.8487,0.018059
24.481,57.8417,0.018059
24.512,57.8351,0.018059
24.543,57.8293,0.018059
24.574,57.8244,0.018059
24.605,57.8201,0.018059
24.636,57.8165,0.018059
24.667,57.8136,0.018059
24.698,57.8114,0.017729
24.729,57.8101,0.017729
24.761,57.8093,0.017729
24.792,57.8093,0.017729
24.822,57.8093,0.017729
24.853,57.8093,0.017729
24.884,57.8093,0.017729
24.916,57.8093,0.017729
24.947,57.8093,0.017532
24.978,57.8093,0.017532
25.008,57.8096,0.017532
25.039,57.8104,0.017532
25.070,57.8120,0.017532
25.101,57.8144,0.017532
25.132,57.8175,0.017532
25.163,57.8212,0.017532
25.195,57.8259,0.017532
25.226,57.8313,0.017475
25.258,57.8376,0.017475
25.289,57.8440,0.017475
25.320,57.8517,0.017475
25.351,57.8598,0.017475
25.383,57.8691,0.017475
25.413,57.8786,0.017475
25.444,57.8893,0.017475
25.475,57.9000,0.017306
25.506,57.9124,0.017306
25.537,57.9244,0.017306
25.568,57.9378,0.017306
25.599,57.9518,0.017306
25.630,57.9671,0.017306
25.661,57.9821,0.017306
25.692,57.9983,0.017306
25.723,58.0152,0.017136
25.754,58.0334,0.017136
25.786,58.0517,0.017136
25.816,58.0706,0.017136
25.847,58.0902,0.017136
25.879,58.1116,0.017136
25.909,58.1321,0.017136
25.940,58.1542,0.017136
25.971,58.1769,0.017089
26.003,58.2009,0.017089
26.034,58.2258,0.017089
26.065,58.2510,0.017089
26.096,58.2770,0.017089
26.127,58.3029,0.017089
26.158,58.3307,0.017089
26.189,58.3582,0.017089
26.220,58.3873,0.016901
26.252,58.4168,0.016901
26.283,58.4473,0.016901
26.314,58.4769,0.016901
26.344,58.5089,0.016901
26.375,58.5399,0.016901
26.406,58.5732,0.016901
26.437,58.6073,0.016901
26.471,58.6455,0.016666
26.499,58.6770,0.016666
26.530,58.7124,0.016666
26.561,58.7492,0.016666
26.592,58.7867,0.016666
26.624,58.8253,0.016666
26.656,58.8674,0.016666
26.683,58.9002,0.016666
26.717,58.9444,0.016073
26.748,58.9849,0.016073
26.781,59.0296,0.016073
26.810,59.0694,0.016073
26.840,59.1107,0.016073
26.872,59.1557,0.016073
26.902,59.2009,0.016073
26.934,59.2459,0.016073
26.965,59.2928,0.014530
26.997,59.3406,0.014530
27.030,59.3922,0.014530
27.058,59.4365,0.014530
27.089,59.4844,0.014530
27.120,59.5341,0.014530
27.151,59.5843,0.014530
27.182,59.6363,0.014530
27.213,59.6875,0.011697
27.243,59.7391,0.011697
27.275,59.7927,0.011697
27.306,59.8484,0.011697
27.336,59.9003,0.011697
27.368,59.9576,0.011697
27.399,60.0144,0.011697
27.429,60.0698,0.011697
27.460,60.1288,0.006634
27.491,60.1849,0.006634
27.522,60.2448,0.006634
27.553,60.3044,0.006634
27.584,60.3651,0.006634
27.615,60.4258,0.006634
27.647,60.4844,0.006634
27.677,60.5392,0.006634
27.709,60.5993,-0.002277
27.738,60.6519,-0.002277
27.770,60.7093,-0.002277
27.800,60.7627,-0.002277
27.835,60.8251,-0.002277
27.862,60.8708,-0.002277
27.893,60.9227,-0.002277
27.924,60.9756,-0.002277
27.956,61.0267,-0.002277
27.986,61.0770,-0.015791
28.018,61.1288,-0.015791
28.049,61.1770,-0.015791
28.081,61.2267,-0.015791
28.111,61.2729,-0.015791
28.142,61.3205,-0.015791
28.173,61.3664,-0.015791
28.209,61.4181,-0.015791
28.235,61.4572,-0.015791
28.266,61.5015,-0.034047
28.297,61.5443,-0.034047
28.330,61.5890,-0.034047
28.361,61.6301,-0.034047
28.393,61.6733,-0.034047
28.423,61.7128,-0.034047
28.454,61.7514,-0.034047
28.486,61.7924,-0.059615
28.515,61.8272,-0.059615
28.546,61.8652,-0.059615
28.576,61.9003,-0.059615
28.608,61.9380,-0.059615
28.639,61.9728,-0.059615
28.671,62.0087,-0.059615
28.702,62.0431,-0.059615
28.734,62.0767,-0.095261
28.765,62.1090,-0.095261
28.796,62.1411,-0.095261
28.828,62.1716,-0.095261
28.858,62.2021,-0.095261
28.890,62.2316,-0.095261
28.922,62.2613,-0.095261
28.953,62.2890,-0.145710
28.984,62.3163,-0.145710
29.014,62.3414,-0.145710
29.045,62.3672,-0.145710
29.075,62.3916,-0.145710
29.106,62.4155,-0.145710
29.136,62.4390,-0.145710
29.167,62.4617,-0.145710
29.199,62.4845,-0.145710
29.230,62.5053,-0.234432
29.260,62.5262,-0.234432
29.291,62.5455,-0.234432
29.322,62.5651,-0.234432
29.353,62.5832,-0.234432
29.383,62.6012,-0.234432
29.414,62.6178,-0.234432
29.445,62.6337,-0.395867
29.475,62.6490,-0.395867
29.506,62.6642,-0.395867
29.537,62.6786,-0.395867
29.568,62.6920,-0.395867
29.600,62.7045,-0.395867
29.631,62.7167,-0.395867
29.662,62.7278,-0.395867
29.692,62.7382,-0.639041
29.723,62.7480,-0.639041
29.755,62.7572,-0.639041
29.785,62.7653,-0.639041
29.815,62.7727,-0.639041
29.847,62.7799,-0.639041
29.876,62.7859,-0.639041
29.907,62.7912,-0.639041
29.939,62.7962,-0.941114
29.970,62.8001,-0.941114
30.001,62.8034,-0.941114
30.032,62.8061,-0.941114
30.063,62.8078,-0.941114
30.095,62.8089,-0.941114
30.126,62.8093,-0.941114
30.157,62.8093,-0.941114
30.187,62.8093,-1.083860
30.218,62.8093,-1.083860
30.249,62.8093,-1.083860
30.279,62.8093,-1.083860
30.311,62.8093,-1.083860
30.342,62.8093,-1.083860
30.373,62.8093,-1.083860
30.405,62.8093,-1.083860
30.436,62.8093,-0.892114
30.467,62.8093,-0.892114
30.497,62.8093,-0.892114
30.527,62.8093,-0.892114
30.558,62.8093,-0.892114
30.590,62.8093,-0.892114
30.627,62.8093,-0.892114
30.667,62.8093,-0.892114
30.698,62.8093,-0.892114
30.730,62.8093,-0.620286
30.764,62.8093,-0.620286
30.792,62.8093,-0.620286
30.823,62.8093,-0.620286
30.855,62.8093,-0.620286
30.886,62.8093,-0.620286
30.917,62.8093,-0.620286
30.948,62.8093,-0.620286
30.978,62.8093,-0.475272
31.009,62.8093,-0.475272
31.040,62.8093,-0.475272
31.071,62.8093,-0.475272
31.102,62.8093,-0.475272
31.133,62.8093,-0.475272
31.164,62.8093,-0.475272
31.193,62.8093,-0.475272
31.225,62.8093,-0.404468
31.257,62.8093,-0.404468
31.287,62.8093,-0.404468
31.318,62.8093,-0.404468
31.350,62.8093,-0.404468
31.382,62.8093,-0.404468
31.412,62.8093,-0.404468
31.444,62.8093,-0.404468
31.477,62.8093,-0.364474
31.507,62.8093,-0.364474
31.537,62.8093,-0.364474
31.568,62.8093,-0.364474
31.598,62.8093,-0.364474
31.630,62.8093,-0.364474
31.662,62.8093,-0.364474
31.693,62.8093,-0.364474
31.725,62.8093,-0.339226
31.755,62.8093,-0.339226
31.785,62.8093,-0.339226
31.817,62.8093,-0.339226
31.848,62.8093,-0.339226
31.878,62.8093,-0.339226
31.910,62.8093,-0.339226
31.940,62.8093,-0.321779
31.973,62.8093,-0.321779
32.002,62.8093,-0.321779
32.034,62.8093,-0.321779
32.066,62.8093,-0.321779
32.096,62.8093,-0.321779
32.127,62.8093,-0.321779
32.159,62.8093,-0.321779
32.190,62.8093,-0.321779
32.222,62.8093,-0.321779
32.252,62.8093,-0.308124
32.283,62.8093,-0.308124
32.314,62.8093,-0.308124
32.345,62.8093,-0.308124
32.376,62.8093,-0.308124
32.406,62.8093,-0.308124
32.437,62.8093,-0.308124
32.469,62.8093,-0.298441
32.500,62.8093,-0.298441
32.531,62.8093,-0.298441
32.561,62.8093,-0.298441
32.592,62.8093,-0.298441
32.628,62.8093,-0.298441
32.654,62.8093,-0.298441
32.685,62.8093,-0.298441
32.716,62.8093,-0.290828
32.746,62.8093,-0.290828
32.777,62.8093,-0.290828
32.808,62.8093,-0.290828
32.839,62.8093,-0.290828
32.869,62.8093,-0.290828
32.901,62.8093,-0.290828
32.932,62.8093,-0.290828
32.963,62.8093,-0.283638
32.997,62.8093,-0.283638
33.025,62.8093,-0.283638
33.057,62.8093,-0.283638
33.087,62.8093,-0.283638
33.119,62.8093,-0.283638
33.148,62.8093,-0.283638
33.183,62.8093,-0.283638
33.212,62.8093,-0.278105
33.243,62.8093,-0.278105
33.275,62.8093,-0.278105
33.305,62.8093,-0.278105
33.336,62.8093,-0.278105
33.367,62.8093,-0.278105
33.400,62.8093,-0.278105
33.429,62.8093,-0.278105
33.460,62.8093,-0.273391
33.491,62.8093,-0.273391
33.522,62.8093,-0.273391
33.552,62.8093,-0.273391
33.582,62.8093,-0.273391
33.614,62.8093,-0.273391
33.646,62.8093,-0.273391
33.677,62.8093,-0.269316
33.707,62.8093,-0.269316
33.739,62.8093,-0.269316
33.772,62.8093,-0.269316
33.802,62.8093,-0.269316
33.833,62.8093,-0.269316
33.865,62.8093,-0.269316
33.895,62.8093,-0.269316
33.926,62.8093,-0.269316
33.956,62.8093,-0.269316
33.987,62.8093,-0.266098
34.018,62.8093,-0.266098
34.049,62.8093,-0.266098
34.080,62.8093,-0.266098
34.111,62.8093,-0.266098
34.143,62.8093,-0.266098
34.174,62.8093,-0.266098
34.204,62.8093,-0.263340
34.237,62.8093,-0.263340
34.267,62.8093,-0.263340
34.299,62.8093,-0.263340
34.330,62.8093,-0.263340
34.361,62.8093,-0.263340
34.392,62.8093,-0.263340
34.423,62.8093,-0.263340
34.454,62.8093,-0.260263
34.486,62.8093,-0.260263
34.517,62.8093,-0.260263
34.552,62.8093,-0.260263
34.580,62.8093,-0.260263
34.611,62.8093,-0.260263
34.642,62.8093,-0.260263
34.672,62.8093,-0.260263
34.704,62.8093,-0.257252
34.735,62.8093,-0.257252
34.768,62.8093,-0.257252
34.797,62.8093,-0.257252
34.828,62.8093,-0.257252
34.859,62.8093,-0.257252
34.891,62.8093,-0.257252
34.920,62.8093,-0.257252
34.951,62.8093,-0.253111
34.982,62.8093,-0.253111
35.013,62.8093,-0.253111
35.044,62.8093,-0.253111
35.075,62.8093,-0.253111
35.105,62.8093,-0.253111
35.136,62.8093,-0.253111
35.167,62.8093,-0.253111
35.198,62.8092,-0.253111
35.229,62.8083,-0.248641
35.260,62.8067,-0.248641
35.292,62.8044,-0.248641
35.323,62.8014,-0.248641
35.355,62.7974,-0.248641
35.385,62.7931,-0.248641
35.416,62.7879,-0.248641
35.447,62.7819,-0.248641
35.478,62.7753,-0.248641
35.509,62.7680,-0.170027
35.539,62.7598,-0.170027
35.571,62.7509,-0.170027
35.602,62.7413,-0.170027
35.633,62.7308,-0.170027
35.663,62.7201,-0.170027
35.695,62.7082,-0.170027
35.727,62.6955,0.660581
35.761,62.6806,0.660581
35.789,62.6681,0.660581
35.820,62.6533,0.660581
35.852,62.6370,0.660581
35.882,62.6214,0.660581
35.913,62.6049,0.660581
35.944,62.5876,0.660581
35.974,62.5692,0.731036
36.005,62.5506,0.731036
36.036,62.5308,0.731036
36.066,62.5109,0.731036
36.097,62.4890,0.731036
36.128,62.4676,0.731036
36.159,62.4451,0.731036
36.189,62.4230,0.050101
36.219,62.3988,0.050101
36.250,62.3749,0.050101
36.280,62.3489,0.050101
36.311,62.3230,0.050101
36.342,62.2962,0.050101
36.373,62.2692,0.050101
36.405,62.2397,0.050101
36.434,62.2118,0.050101
36.465,62.1816,0.064461
36.496,62.1515,0.064461
36.527,62.1192,0.064461
36.558,62.0886,0.064461
36.589,62.0559,0.064461
36.620,62.0216,0.064461
36.653,61.9855,0.064461
36.680,61.9553,0.084430
36.712,61.9192,0.084430
36.743,61.8824,0.084430
36.774,61.8450,0.084430
36.806,61.8060,0.084430
36.836,61.7689,0.084430
36.867,61.7291,0.084430
36.898,61.6895,0.084430
36.929,61.6493,0.084430
36.960,61.6083,0.094283
36.991,61.5647,0.094283
37.023,61.5207,0.094283
37.053,61.4779,0.094283
37.083,61.4349,0.094283
37.114,61.3896,0.094283
37.146,61.3443,0.094283
37.177,61.2959,0.094283
37.208,61.2485,0.096551
37.239,61.2018,0.096551
37.270,61.1524,0.096551
37.302,61.1024,0.096551
37.333,61.0507,0.096551
37.363,61.0004,0.096551
37.394,60.9501,0.096551
37.426,60.8961,0.096551
37.457,60.8444,0.096551
37.488,60.7885,0.097868
37.520,60.7333,0.097868
37.551,60.6777,0.097868
37.581,60.6236,0.097868
37.613,60.5649,0.097868
37.643,60.5083,0.097868
37.675,60.4505,0.097868
37.705,60.3927,0.097868
37.736,60.3336,0.105735
37.767,60.2727,0.105735
37.800,60.2085,0.105735
37.828,60.1551,0.105735
37.860,60.0938,0.105735
37.889,60.0407,0.105735
37.923,59.9766,0.105735
37.951,59.9269,0.105735
37.985,59.8650,0.123558
38.013,59.8158,0.123558
38.044,59.7607,0.123558
38.079,59.7005,0.123558
38.106,59.6544,0.123558
38.138,59.6011,0.123558
38.169,59.5489,0.123558
38.201,59.4975,0.147131
38.231,59.4477,0.147131
38.262,59.3994,0.147131
38.294,59.3499,0.147131
38.324,59.3028,0.147131
38.358,59.2508,0.147131
38.387,59.2090,0.147131
38.417,59.1634,0.147131
38.448,59.1191,0.159647
38.479,59.0745,0.159647
38.510,59.0306,0.159647
38.541,58.9891,0.159647
38.572,58.9478,0.159647
38.603,58.9067,0.159647
38.633,58.8670,0.159647
38.664,58.8269,0.159647
38.691,58.7933,0.159647
38.728,58.7480,0.101538
38.758,58.7100,0.101538
38.789,58.6744,0.101538
38.820,58.6378,0.101538
38.851,58.6021,0.101538
38.883,58.5666,0.101538
38.913,58.5337,0.101538
38.945,58.5006,0.033445
38.976,58.4675,0.033445
39.006,58.4359,0.033445
39.037,58.4059,0.033445
39.068,58.3752,0.033445
39.098,58.3465,0.033445
39.130,58.3176,0.033445
39.161,58.2888,0.033445
39.193,58.2603,0.033445
39.222,58.2359,0.033445
39.253,58.2094,0.022020
39.283,58.1850,0.022020
39.315,58.1603,0.022020
39.347,58.1352,0.022020
39.378,58.1127,0.022020
39.408,58.0905,0.022020
39.443,58.0662,0.022020
39.471,58.0472,0.022020
39.502,58.0272,0.019941
39.533,58.0081,0.019941
39.564,57.9891,0.019941
39.595,57.9714,0.019941
39.627,57.9538,0.019941
39.658,57.9373,0.019941
39.689,57.9214,0.019941
39.719,57.9070,0.019941
39.751,57.8924,0.018840
39.784,57.8776,0.018840
39.813,57.8657,0.018840
39.844,57.8540,0.018840
39.875,57.8425,0.018840
39.907,57.8314,0.018840
39.937,57.8220,0.018840
39.968,57.8128,0.018840
39.999,57.8042,0.018153
40.030,57.7967,0.018153
40.060,57.7896,0.018153
40.092,57.7834,0.018153
40.122,57.7779,0.018153
40.153,57.7732,0.018153
40.184,57.7689,0.018153
40.214,57.7657,0.017757
40.245,57.7629,0.017757
40.276,57.7611,0.017757
40.305,57.7599,0.017757
40.338,57.7593,0.017757
40.369,57.7593,0.017757
40.400,57.7593,0.017757
40.430,57.7593,0.017757
40.460,57.7593,0.017513
40.492,57.7593,0.017513
40.521,57.7598,0.017513
40.551,57.7611,0.017513
40.582,57.7629,0.017513
40.613,57.7658,0.017513
40.642,57.7688,0.017513
40.672,57.7728,0.017513
40.702,57.7776,0.017475
40.732,57.7826,0.017475
40.762,57.7887,0.017475
40.793,57.7957,0.017475
40.823,57.8030,0.017475
40.854,57.8114,0.017475
40.883,57.8199,0.017475
40.913,57.8290,0.017475
40.945,57.8397,0.017419
40.975,57.8511,0.017419
41.006,57.8626,0.017419
41.038,57.8758,0.017419
41.069,57.8892,0.017419
41.101,57.9038,0.017419
41.132,57.9183,0.017419
41.157,57.9313,0.017419
41.194,57.9509,0.017165
41.225,57.9676,0.017165
41.257,57.9854,0.017165
41.293,58.0077,0.017165
41.333,58.0330,0.017165
41.364,58.0529,0.017165
41.395,58.0746,0.017165
41.426,58.0959,0.017165
41.458,58.1194,0.017014
41.488,58.1416,0.017014
41.520,58.1661,0.017014
41.550,58.1906,0.017014
41.580,58.2146,0.017014
41.611,58.2409,0.017014
41.642,58.2676,0.017014
41.674,58.2963,0.017014
41.705,58.3245,0.016901
41.738,58.3559,0.016901
41.766,58.3822,0.016901
41.797,58.4122,0.016901
41.828,58.4438,0.016901
41.859,58.4754,0.016901
41.892,58.5103,0.016901
41.921,58.5418,0.016901
41.952,58.5764,0.016901
41.983,58.6115,0.016685
42.014,58.6468,0.016685
42.046,58.6829,0.016685
42.076,58.7193,0.016685
42.107,58.7575,0.016685
42.138,58.7962,0.016685
42.169,58.8344,0.016685
42.200,58.8740,0.016685
42.231,58.9149,0.016120
42.262,58.9576,0.016120
42.293,58.9983,0.016120
42.326,59.0457,0.016120
42.355,59.0843,0.016120
42.385,59.1280,0.016120
42.416,59.1723,0.016120
42.446,59.2180,0.016120
42.477,59.2637,0.016120
42.509,59.3117,0.014680
42.538,59.3575,0.014680
42.572,59.4117,0.014680
42.602,59.4586,0.014680
42.636,59.5141,0.014680
42.663,59.5582,0.014680
42.694,59.6095,0.014680
42.727,59.6640,0.011641
42.757,59.7155,0.011641
42.788,59.7699,0.011641
42.818,59.8225,0.011641
42.853,59.8841,0.011641
42.881,59.9356,0.011641
42.912,59.9929,0.011641
42.944,60.0499,0.011641
42.976,60.1123,0.006371
43.005,60.1662,0.006371
43.036,60.2255,0.006371
43.067,60.2864,0.006371
43.098,60.3450,0.006371
43.130,60.4065,0.006371
43.159,60.4602,0.006371
43.191,60.5206,0.006371
43.222,60.5764,-0.002522
43.252,60.6311,-0.002522
43.283,60.6869,-0.002522
43.315,60.7416,-0.002522
43.345,60.7941,-0.002522
43.376,60.8478,-0.002522
43.407,60.9010,-0.002522
43.438,60.9531,-0.002522
43.469,61.0029,-0.015941
43.501,61.0549,-0.015941
43.535,61.1090,-0.015941
43.563,61.1531,-0.015941
43.594,61.2005,-0.015941
43.625,61.2479,-0.015941
43.659,61.3001,-0.015941
43.687,61.3403,-0.015941
43.720,61.3891,-0.034470
43.748,61.4284,-0.034470
43.779,61.4735,-0.034470
43.810,61.5149,-0.034470
43.842,61.5585,-0.034470
43.873,61.6001,-0.034470
43.904,61.6403,-0.034470
43.934,61.6791,-0.034470
43.965,61.7189,-0.060217
43.996,61.7580,-0.060217
44.028,61.7962,-0.060217
44.058,61.8321,-0.060217
44.089,61.8681,-0.060217
44.120,61.9044,-0.060217
44.150,61.9380,-0.060217
44.182,61.9728,-0.060217
44.213,62.0071,-0.095685
44.244,62.0393,-0.095685
44.276,62.0725,-0.095685
44.308,62.1040,-0.095685
44.339,62.1350,-0.095685
44.370,62.1648,-0.095685
44.401,62.1933,-0.095685
44.431,62.2213,-0.146143
44.462,62.2492,-0.146143
44.492,62.2749,-0.146143
44.524,62.3018,-0.146143
44.555,62.3269,-0.146143
44.585,62.3510,-0.146143
44.616,62.3756,-0.146143
44.646,62.3982,-0.146143
44.678,62.4211,-0.146143
44.709,62.4427,-0.235128
44.740,62.4642,-0.235128
44.771,62.4840,-0.235128
44.803,62.5043,-0.235128
44.833,62.5228,-0.235128
44.863,62.5408,-0.235128
44.895,62.5582,-0.235128
44.927,62.5761,-0.235128
44.958,62.5915,-0.396224
44.987,62.6063,-0.396224
45.019,62.6212,-0.396224
45.050,62.6351,-0.396224
45.082,62.6487,-0.396224
45.113,62.6611,-0.396224
45.144,62.6721,-0.396224
45.174,62.6829,-0.396224
45.206,62.6931,-0.635399
45.237,62.7028,-0.635399
45.268,62.7113,-0.635399
45.299,62.7196,-0.635399
45.330,62.7266,-0.635399
45.361,62.7332,-0.635399
45.392,62.7390,-0.635399
45.423,62.7441,-0.635399
45.454,62.7484,-0.933821
45.485,62.7521,-0.933821
45.518,62.7551,-0.933821
45.552,62.7575,-0.933821
45.579,62.7586,-0.933821
45.611,62.7592,-0.933821
45.641,62.7593,-0.933821
45.677,62.7593,-0.933821
45.719,62.7593,-1.078986
45.749,62.7593,-1.078986
45.780,62.7593,-1.078986
45.811,62.7593,-1.078986
45.843,62.7593,-1.078986
45.873,62.7593,-1.078986
45.904,62.7593,-1.078986
45.934,62.7593,-0.889893
45.965,62.7593,-0.889893
45.996,62.7593,-0.889893
46.028,62.7593,-0.889893
46.062,62.7593,-0.889893
46.089,62.7593,-0.889893
46.120,62.7593,-0.889893
46.151,62.7593,-0.889893
46.182,62.7593,-0.889893
46.213,62.7593,-0.631917
46.244,62.7593,-0.631917
46.276,62.7593,-0.631917
46.306,62.7593,-0.631917
46.337,62.7593,-0.631917
46.368,62.7593,-0.631917
46.399,62.7593,-0.631917
46.431,62.7593,-0.631917
46.461,62.7593,-0.500698
46.493,62.7593,-0.500698
46.523,62.7593,-0.500698
46.554,62.7593,-0.500698
46.584,62.7593,-0.500698
46.616,62.7593,-0.500698
46.648,62.7593,-0.500698
46.680,62.7593,-0.500698
46.711,62.7593,-0.430092
46.742,62.7593,-0.430092
46.773,62.7593,-0.430092
46.803,62.7593,-0.430092
46.835,62.7593,-0.430092
46.866,62.7593,-0.430092
46.897,62.7593,-0.430092
46.927,62.7593,-0.430092
46.959,62.7593,-0.384593
46.990,62.7593,-0.384593
47.020,62.7593,-0.384593
47.052,62.7593,-0.384593
47.083,62.7593,-0.384593
47.114,62.7593,-0.384593
47.145,62.7593,-0.384593
47.177,62.7593,-0.384593
47.207,62.7593,-0.352203
47.238,62.7593,-0.352203
47.270,62.7593,-0.352203
47.301,62.7593,-0.352203
47.332,62.7593,-0.352203
47.362,62.7593,-0.352203
47.393,62.7593,-0.352203
47.424,62.7593,-0.352203
47.455,62.7593,-0.331773
47.486,62.7593,-0.331773
47.517,62.7593,-0.331773
47.549,62.7593,-0.331773
47.578,62.7593,-0.331773
47.608,62.7593,-0.331773
47.640,62.7593,-0.331773
47.671,62.7593,-0.331773
47.701,62.7593,-0.316264
47.731,62.7593,-0.316264
47.763,62.7593,-0.316264
47.794,62.7593,-0.316264
47.824,62.7593,-0.316264
47.856,62.7593,-0.316264
47.887,62.7593,-0.316264
47.919,62.7593,-0.316264
47.949,62.7593,-0.316264
47.983,62.7593,-0.302525
48.011,62.7593,-0.302525
48.043,62.7593,-0.302525
48.074,62.7593,-0.302525
48.106,62.7593,-0.302525
48.136,62.7593,-0.302525
48.166,62.7593,-0.302525
48.197,62.7593,-0.293708
48.228,62.7593,-0.293708
48.259,62.7593,-0.293708
48.291,62.7593,-0.293708
48.322,62.7593,-0.293708
48.353,62.7593,-0.293708
48.384,62.7593,-0.293708
48.415,62.7593,-0.293708
48.449,62.7593,-0.286471
48.477,62.7593,-0.286471
48.509,62.7593,-0.286471
48.538,62.7593,-0.286471
48.574,62.7593,-0.286471
48.602,62.7593,-0.286471
48.633,62.7593,-0.286471
48.663,62.7593,-0.286471
48.694,62.7593,-0.286471
48.725,62.7593,-0.278547
48.756,62.7593,-0.278547
48.787,62.7593,-0.278547
48.819,62.7593,-0.278547
48.850,62.7593,-0.278547
48.881,62.7593,-0.278547
48.912,62.7593,-0.278547
48.943,62.7593,-0.278547
48.975,62.7593,-0.273569
49.006,62.7593,-0.273569
49.037,62.7593,-0.273569
49.069,62.7593,-0.273569
49.100,62.7593,-0.273569
49.131,62.7593,-0.273569
49.162,62.7593,-0.273569
49.195,62.7593,-0.273569
49.224,62.7593,-0.269259
49.259,62.7593,-0.269259
49.286,62.7593,-0.269259
49.317,62.7593,-0.269259
49.349,62.7593,-0.269259
49.380,62.7593,-0.269259
49.411,62.7593,-0.269259
49.441,62.7593,-0.269259
49.472,62.7593,-0.265307
49.504,62.7593,-0.265307
49.534,62.7593,-0.265307
49.564,62.7593,-0.265307
49.595,62.7593,-0.265307
49.626,62.7593,-0.265307
49.656,62.7593,-0.265307
49.687,62.7593,-0.260065
49.719,62.7593,-0.260065
49.754,62.7593,-0.260065
49.781,62.7593,-0.260065
49.812,62.7593,-0.260065
49.843,62.7593,-0.260065
49.875,62.7593,-0.260065
49.907,62.7593,-0.260065
49.938,62.7592,-0.260065
49.969,62.7586,-0.254956
50.000,62.7572,-0.254956
50.031,62.7550,-0.254956
50.062,62.7521,-0.254956
50.093,62.7485,-0.254956
50.124,62.7442,-0.254956
50.155,62.7391,-0.254956
50.186,62.7334,-0.254956
50.217,62.7267,-0.212251
50.248,62.7195,-0.212251
50.279,62.7117,-0.212251
50.310,62.7030,-0.212251
50.341,62.6934,-0.212251
50.372,62.6836,-0.212251
50.403,62.6721,-0.212251
50.434,62.6610,-0.212251
50.465,62.6486,0.653900
50.496,62.6357,0.653900
50.527,62.6222,0.653900
50.558,62.6072,0.653900
50.589,62.5924,0.653900
50.620,62.5763,0.653900
50.652,62.5592,0.653900
50.682,62.5417,0.653900
50.713,62.5241,0.653900
50.744,62.5048,0.762684
50.777,62.4841,0.762684
50.807,62.4643,0.762684
50.838,62.4432,0.762684
50.869,62.4215,0.762684
50.901,62.3988,0.762684
50.932,62.3752,0.762684
50.962,62.3517,0.047805
50.992,62.3279,0.047805
51.023,62.3022,0.047805
51.056,62.2745,0.047805
51.086,62.2487,0.047805
51.118,62.2201,0.047805
51.148,62.1923,0.047805
51.180,62.1624,0.047805
51.210,62.1333,0.047805
51.242,62.1024,0.062579
51.272,62.0720,0.062579
51.303,62.0397,0.062579
51.335,62.0065,0.062579
51.366,61.9730,0.062579
51.397,61.9383,0.062579
51.428,61.9033,0.062579
51.461,61.8649,0.083000
51.491,61.8299,0.083000
51.522,61.7932,0.083000
51.555,61.7525,0.083000
51.585,61.7147,0.083000
51.617,61.6757,0.083000
51.649,61.6341,0.083000
51.679,61.5943,0.083000
51.708,61.5551,0.083000
51.742,61.5087,0.093135
51.773,61.4660,0.093135
51.805,61.4203,0.093135
51.836,61.3759,0.093135
51.868,61.3301,0.093135
51.899,61.2841,0.093135
51.929,61.2376,0.093135
51.961,61.1886,0.093135
51.993,61.1391,0.095798
52.023,61.0925,0.095798
52.053,61.0438,0.095798
52.085,60.9934,0.095798
52.115,60.9430,0.095798
52.147,60.8897,0.095798
52.177,60.8386,0.095798
52.208,60.7861,0.095798
52.238,60.7317,0.097548
52.269,60.6777,0.097548
52.300,60.6227,0.097548
52.332,60.5644,0.097548
52.363,60.5068,0.097548
52.393,60.4529,0.097548
52.424,60.3938,0.097548
52.459,60.3277,0.097548
52.486,60.2766,0.105980
52.517,60.2139,0.105980
52.548,60.1562,0.105980
52.578,60.0969,0.105980
52.608,60.0404,0.105980
52.639,59.9822,0.105980
52.673,59.9203,0.105980
52.701,59.8688,0.105980
52.732,59.8134,0.124161
52.760,59.7643,0.124161
52.794,59.7060,0.124161
52.826,59.6507,0.124161
52.857,59.5962,0.124161
52.887,59.5468,0.124161
52.921,59.4903,0.124161
52.948,59.4459,0.124161
52.979,59.3954,0.146077
53.010,59.3474,0.146077
53.044,59.2937,0.146077
53.072,59.2512,0.146077
53.103,59.2042,0.146077
53.134,59.1573,0.146077
53.165,59.1128,0.146077
53.197,59.0657,0.146077
53.227,59.0226,0.155290
53.258,58.9797,0.155290
53.285,58.9423,0.155290
53.320,58.8953,0.155290
53.351,58.8542,0.155290
53.381,58.8148,0.155290
53.412,58.7759,0.155290
53.443,58.7368,0.096616
53.477,58.6946,0.096616
53.504,58.6615,0.096616
53.536,58.6230,0.096616
53.566,58.5881,0.096616
53.601,58.5490,0.096616
53.628,58.5176,0.096616
53.660,58.4840,0.096616
53.692,58.4493,0.096616
53.722,58.4176,0.031544
53.752,58.3870,0.031544
53.783,58.3559,0.031544
53.809,58.3307,0.031544
53.846,58.2950,0.031544
53.877,58.2663,0.031544
53.908,58.2384,0.031544
53.939,58.2109,0.022180
53.970,58.1839,0.022180
54.002,58.1574,0.022180
54.032,58.1333,0.022180
54.064,58.1078,0.022180
54.097,58.0824,0.022180
54.126,58.0616,0.022180
54.158,58.0381,0.022180
54.189,58.0168,0.019912
54.218,57.9970,0.019912
54.250,57.9766,0.019912
54.280,57.9579,0.019912
54.311,57.9395,0.019912
54.341,57.9214,0.019912
54.372,57.9046,0.019912
54.403,57.8881,0.019912
54.434,57.8722,0.019912
54.470,57.8553,0.018943
54.498,57.8421,0.018943
54.529,57.8284,0.018943
54.563,57.8139,0.018943
54.591,57.8036,0.018943
54.621,57.7926,0.018943
54.652,57.7821,0.018943
54.682,57.7723,0.018943
54.713,57.7629,0.018943
54.745,57.7546,0.018463
54.777,57.7464,0.018463
54.806,57.7400,0.018463
54.838,57.7334,0.018463
54.869,57.7278,0.018463
54.900,57.7230,0.018463
54.932,57.7189,0.018463
54.962,57.7154,0.017823
54.995,57.7127,0.017823
55.026,57.7110,0.017823
55.057,57.7098,0.017823
55.087,57.7093,0.017823
55.118,57.7093,0.017823
55.149,57.7093,0.017823
55.180,57.7093,0.017823
55.210,57.7093,0.017475
55.241,57.7096,0.017475
55.272,57.7107,0.017475
55.303,57.7124,0.017475
55.334,57.7148,0.017475
55.368,57.7185,0.017475
55.395,57.7220,0.017475
55.427,57.7267,0.017475
55.458,57.7322,0.017550
55.490,57.7385,0.017550
55.521,57.7454,0.017550
55.552,57.7529,0.017550
55.583,57.7612,0.017550
55.615,57.7704,0.017550
55.646,57.7803,0.017550
55.677,57.7907,0.017550
55.708,57.8020,0.017644
55.740,57.8146,0.017644
55.770,57.8268,0.017644
55.801,57.8402,0.017644
55.832,57.8545,0.017644
55.863,57.8691,0.017644
55.895,57.8853,0.017644
55.926,57.9015,0.017644
55.957,57.9186,0.017644
55.988,57.9366,0.017277
56.019,57.9553,0.017277
56.050,57.9746,0.017277
56.082,57.9950,0.017277
56.113,58.0157,0.017277
56.144,58.0370,0.017277
56.175,58.0598,0.017277
56.207,58.0832,0.017277
56.239,58.1078,0.017108
56.270,58.1316,0.017108
56.300,58.1569,0.017108
56.330,58.1822,0.017108
56.362,58.2084,0.017108
56.392,58.2355,0.017108
56.425,58.2656,0.017108
56.454,58.2930,0.017108
56.485,58.3220,0.017042
56.517,58.3530,0.017042
56.548,58.3834,0.017042
56.579,58.4163,0.017042
56.617,58.4558,0.017042
56.657,58.4979,0.017042
56.688,58.5326,0.017042
56.719,58.5676,0.016628
56.749,58.6017,0.016628
56.780,58.6388,0.016628
56.811,58.6750,0.016628
56.841,58.7118,0.016628
56.872,58.7519,0.016628
56.903,58.7897,0.016628
56.934,58.8305,0.016628
56.965,58.8702,0.016045
56.996,58.9116,0.016045
57.028,58.9557,0.016045
57.057,58.9961,0.016045
57.089,59.0405,0.016045
57.120,59.0853,0.016045
57.150,59.1289,0.016045
57.182,59.1775,0.016045
57.213,59.2235,0.014360
57.247,59.2765,0.014360
57.276,59.3193,0.014360
57.306,59.3672,0.014360
57.338,59.4180,0.014360
57.368,59.4666,0.014360
57.406,59.5285,0.014360
57.446,59.5962,0.011189
57.477,59.6496,0.011189
57.508,59.7040,0.011189
57.540,59.7586,0.011189
57.571,59.8135,0.011189
57.602,59.8688,0.011189
57.632,59.9227,0.011189
57.662,59.9806,0.011189
57.694,60.0397,0.005825
57.727,60.1011,0.005825
57.757,60.1592,0.005825
57.789,60.2208,0.005825
57.820,60.2796,0.005825
57.851,60.3381,0.005825
57.882,60.3962,0.005825
57.912,60.4544,0.005825
57.943,60.5109,-0.003538
57.973,60.5654,-0.003538
58.007,60.6266,-0.003538
58.035,60.6755,-0.003538
58.066,60.7309,-0.003538
58.098,60.7844,-0.003538
58.128,60.8356,-0.003538
58.159,60.8879,-0.003538
58.190,60.9379,-0.017635
58.221,60.9891,-0.017635
58.253,61.0389,-0.017635
58.283,61.0877,-0.017635
58.315,61.1359,-0.017635
58.347,61.1863,-0.017635
58.378,61.2322,-0.017635
58.410,61.2804,-0.017635
58.444,61.3291,-0.036465
58.473,61.3711,-0.036465
58.504,61.4147,-0.036465
58.534,61.4567,-0.036465
58.566,61.4996,-0.036465
58.597,61.5414,-0.036465
58.628,61.5828,-0.036465
58.659,61.6228,-0.036465
58.690,61.6625,-0.036465
58.721,61.7000,-0.036465
58.752,61.7396,-0.062588
58.783,61.7763,-0.062588
58.814,61.8135,-0.062588
58.845,61.8481,-0.062588
58.876,61.8836,-0.062588
58.906,61.9167,-0.062588
58.938,61.9506,-0.062588
58.970,61.9847,-0.098922
59.000,62.0162,-0.098922
59.031,62.0478,-0.098922
59.063,62.0794,-0.098922
59.095,62.1104,-0.098922
59.126,62.1391,-0.098922
59.163,62.1741,-0.098922
59.203,62.2087,-0.151658
59.234,62.2361,-0.151658
59.265,62.2610,-0.151658
59.296,62.2864,-0.151658
59.326,62.3102,-0.151658
59.357,62.3341,-0.151658
59.389,62.3571,-0.151658
59.421,62.3806,-0.151658
59.452,62.4025,-0.151658
59.484,62.4232,-0.246138
59.515,62.4433,-0.246138
59.546,62.4627,-0.246138
59.578,62.4815,-0.246138
59.608,62.4996,-0.246138
59.640,62.5167,-0.246138
59.670,62.5327,-0.246138
59.701,62.5480,-0.246138
59.732,62.5634,-0.413671
59.764,62.5778,-0.413671
59.794,62.5912,-0.413671
59.826,62.6038,-0.413671
59.857,62.6160,-0.413671
59.887,62.6269,-0.413671
59.920,62.6383,-0.413671
59.948,62.6471,-0.661513
59.980,62.6569,-0.661513
60.010,62.6647,-0.661513
60.041,62.6725,-0.661513
60.072,62.6793,-0.661513
60.104,62.6858,-0.661513
60.135,62.6914,-0.661513
60.166,62.6961,-0.661513
60.197,62.7000,-0.963200
60.228,62.7034,-0.963200
60.258,62.7059,-0.963200
60.290,62.7079,-0.963200
60.321,62.7090,-0.963200
60.350,62.7094,-0.963200
60.381,62.7094,-0.963200
60.412,62.7094,-0.963200
60.443,62.7094,-0.963200
60.474,62.7094,-1.075391
60.505,62.7094,-1.075391
60.542,62.7094,-1.075391
60.568,62.7094,-1.075391
60.599,62.7094,-1.075391
60.630,62.7094,-1.075391
60.661,62.7094,-1.075391
60.692,62.7094,-0.865332
60.724,62.7094,-0.865332
60.756,62.7094,-0.865332
60.786,62.7094,-0.865332
60.817,62.7094,-0.865332
60.848,62.7094,-0.865332
60.879,62.7094,-0.865332
60.910,62.7094,-0.865332
60.940,62.7094,-0.619721
60.972,62.7094,-0.619721
61.002,62.7094,-0.619721
61.034,62.7094,-0.619721
61.064,62.7094,-0.619721
61.096,62.7094,-0.619721
61.126,62.7094,-0.619721
61.157,62.7094,-0.619721
61.189,62.7094,-0.498016
61.219,62.7094,-0.498016
61.250,62.7094,-0.498016
61.281,62.7094,-0.498016
61.312,62.7094,-0.498016
61.342,62.7094,-0.498016
61.373,62.7094,-0.498016
61.404,62.7094,-0.498016
61.435,62.7094,-0.428700
61.467,62.7094,-0.428700
61.497,62.7094,-0.428700
61.529,62.7094,-0.428700
61.559,62.7094,-0.428700
61.591,62.7094,-0.428700
61.622,62.7094,-0.428700
61.655,62.7094,-0.428700
61.684,62.7094,-0.383153
61.715,62.7094,-0.383153
61.746,62.7094,-0.383153
61.778,62.7094,-0.383153
61.809,62.7094,-0.383153
61.840,62.7094,-0.383153
61.871,62.7094,-0.383153
61.903,62.7094,-0.383153
61.934,62.7094,-0.383153
61.965,62.7094,-0.355139
61.995,62.7094,-0.355139
62.026,62.7094,-0.355139
62.057,62.7094,-0.355139
62.088,62.7094,-0.355139
62.120,62.7094,-0.355139
62.151,62.7094,-0.355139
62.182,62.7094,-0.355139
62.212,62.7094,-0.334003
62.243,62.7094,-0.334003
62.274,62.7094,-0.334003
62.305,62.7094,-0.334003
62.336,62.7094,-0.334003
62.367,62.7094,-0.334003
62.397,62.7094,-0.334003
62.428,62.7094,-0.334003
62.459,62.7094,-0.334003
62.489,62.7094,-0.318024
62.522,62.7094,-0.318024
62.553,62.7094,-0.318024
62.583,62.7094,-0.318024
62.615,62.7094,-0.318024
62.646,62.7094,-0.318024
62.681,62.7094,-0.318024
62.722,62.7094,-0.305405
62.753,62.7094,-0.305405
62.784,62.7094,-0.305405
62.816,62.7094,-0.305405
62.846,62.7094,-0.305405
62.877,62.7094,-0.305405
62.908,62.7094,-0.305405
62.940,62.7094,-0.305405
62.970,62.7094,-0.296201
63.001,62.7094,-0.296201
63.031,62.7094,-0.296201
63.062,62.7094,-0.296201
63.095,62.7094,-0.296201
63.127,62.7094,-0.296201
63.160,62.7094,-0.296201
63.190,62.7094,-0.296201
63.221,62.7094,-0.288955
63.253,62.7094,-0.288955
63.284,62.7094,-0.288955
63.316,62.7094,-0.288955
63.346,62.7094,-0.288955
63.378,62.7094,-0.288955
63.410,62.7094,-0.288955
63.440,62.7094,-0.282359
63.472,62.7094,-0.282359
63.503,62.7094,-0.282359
63.534,62.7094,-0.282359
63.564,62.7094,-0.282359
63.595,62.7094,-0.282359
63.627,62.7094,-0.282359
63.658,62.7094,-0.282359
63.690,62.7094,-0.282359
63.721,62.7094,-0.277136
63.751,62.7094,-0.277136
63.783,62.7094,-0.277136
63.813,62.7094,-0.277136
63.844,62.7094,-0.277136
63.876,62.7094,-0.277136
63.909,62.7094,-0.277136
63.939,62.7094,-0.277136
63.970,62.7094,-0.277136
64.001,62.7094,-0.272741
64.032,62.7094,-0.272741
64.064,62.7094,-0.272741
64.096,62.7094,-0.272741
64.129,62.7094,-0.272741
64.160,62.7094,-0.272741
64.190,62.7094,-0.268234
64.220,62.7094,-0.268234
64.250,62.7094,-0.268234
64.281,62.7094,-0.268234
64.312,62.7094,-0.268234
64.342,62.7094,-0.268234
64.373,62.7094,-0.268234
64.405,62.7094,-0.268234
64.436,62.7094,-0.263425
64.466,62.7094,-0.263425
64.498,62.7094,-0.263425
64.529,62.7094,-0.263425
64.561,62.7094,-0.263425
64.591,62.7094,-0.263425
64.622,62.7094,-0.263425
64.653,62.7094,-0.263425
64.684,62.7094,-0.263425
64.715,62.7094,-0.258485
64.746,62.7092,-0.258485
64.776,62.7084,-0.258485
64.807,62.7067,-0.258485
64.841,62.7041,-0.258485
64.869,62.7014,-0.258485
64.901,62.6974,-0.258485
64.932,62.6931,-0.258485
64.963,62.6878,-0.247239
64.994,62.6818,-0.247239
65.024,62.6752,-0.247239
65.055,62.6681,-0.247239
65.089,62.6589,-0.247239
65.118,62.6507,-0.247239
65.149,62.6413,-0.247239
65.180,62.6307,-0.247239
65.212,62.6196,0.450598
65.243,62.6075,0.450598
65.274,62.5950,0.450598
65.305,62.5817,0.450598
65.337,62.5673,0.450598
65.368,62.5523,0.450598
65.401,62.5357,0.450598
65.430,62.5208,0.597051
65.462,62.5035,0.597051
65.493,62.4856,0.597051
65.525,62.4666,0.597051
65.556,62.4480,0.597051
65.587,62.4281,0.597051
65.618,62.4072,0.597051
65.650,62.3853,0.597051
65.680,62.3634,0.597051
65.711,62.3406,0.049517
65.742,62.3176,0.049517
65.773,62.2933,0.049517
65.805,62.2680,0.049517
65.835,62.2427,0.049517
65.866,62.2169,0.049517
65.899,62.1866,0.049517
65.929,62.1604,0.049517
65.960,62.1321,0.049517
65.991,62.1026,0.057629
66.022,62.0724,0.057629
66.051,62.0424,0.057629
66.082,62.0120,0.057629
66.113,61.9797,0.057629
66.144,61.9466,0.057629
66.174,61.9139,0.057629
66.206,61.8785,0.057629
66.237,61.8434,0.079386
66.268,61.8076,0.079386
66.299,61.7715,0.079386
66.330,61.7340,0.079386
66.361,61.6957,0.079386
66.392,61.6566,0.079386
66.424,61.6156,0.079386
66.454,61.5760,0.091356
66.485,61.5355,0.091356
66.516,61.4940,0.091356
66.548,61.4519,0.091356
66.578,61.4088,0.091356
66.609,61.3652,0.091356
66.639,61.3224,0.091356
66.671,61.2758,0.091356
66.701,61.2305,0.094979
66.734,61.1816,0.094979
66.763,61.1371,0.094979
66.797,61.0839,0.094979
66.826,61.0376,0.094979
66.856,60.9880,0.094979
66.888,60.9372,0.094979
66.923,60.8789,0.094979
66.951,60.8323,0.094979
66.982,60.7809,0.096052
67.013,60.7277,0.096052
67.043,60.6736,0.096052
67.075,60.6174,0.096052
67.106,60.5634,0.096052
67.137,60.5074,0.096052
67.168,60.4501,0.096052
67.199,60.3902,0.102507
67.230,60.3337,0.102507
67.262,60.2732,0.102507
67.292,60.2135,0.102507
67.323,60.1530,0.102507
67.354,60.0937,0.102507
67.385,60.0352,0.102507
67.415,59.9786,0.102507
67.446,59.9191,0.119502
67.477,59.8619,0.119502
67.508,59.8072,0.119502
67.539,59.7519,0.119502
67.569,59.6983,0.119502
67.600,59.6435,0.119502
67.631,59.5903,0.119502
67.662,59.5378,0.119502
67.693,59.4862,0.119502
67.724,59.4346,0.144017
67.755,59.3837,0.144017
67.787,59.3343,0.144017
67.818,59.2848,0.144017
67.848,59.2368,0.144017
67.880,59.1886,0.144017
67.911,59.1426,0.144017
67.942,59.0961,0.162677
67.972,59.0505,0.162677
68.004,59.0064,0.162677
68.035,58.9617,0.162677
68.065,58.9203,0.162677
68.096,58.8784,0.162677
68.126,58.8372,0.162677
68.157,58.7967,0.162677
68.188,58.7565,0.122326
68.219,58.7169,0.122326
68.249,58.6785,0.122326
68.282,58.6389,0.122326
68.312,58.6026,0.122326
68.344,58.5649,0.122326
68.374,58.5301,0.122326
68.405,58.4945,0.122326
68.435,58.4598,0.051004
68.467,58.4262,0.051004
68.498,58.3928,0.051004
68.530,58.3597,0.051004
68.560,58.3287,0.051004
68.591,58.2982,0.051004
68.621,58.2684,0.051004
68.653,58.2387,0.051004
68.685,58.2098,0.051004
68.715,58.1821,0.023234
68.745,58.1552,0.023234
68.776,58.1289,0.023234
68.806,58.1041,0.023234
68.837,58.0794,0.023234
68.869,58.0536,0.023234
68.899,58.0311,0.023234
68.926,58.0110,0.023234
68.962,57.9857,0.020533
68.993,57.9633,0.020533
69.023,57.9435,0.020533
69.055,57.9228,0.020533
69.086,57.9043,0.020533
69.119,57.8842,0.020533
69.147,57.8686,0.020533
69.179,57.8510,0.020533
69.210,57.8346,0.019338
69.241,57.8189,0.019338
69.272,57.8036,0.019338
69.304,57.7896,0.019338
69.335,57.7757,0.019338
69.369,57.7618,0.019338
69.397,57.7513,0.019338
69.429,57.7399,0.019338
69.459,57.7294,0.019338
69.493,57.7191,0.018567
69.525,57.7098,0.018567
69.552,57.7028,0.018567
69.584,57.6950,0.018567
69.615,57.6881,0.018567
69.646,57.6819,0.018567
69.677,57.6766,0.018567
69.708,57.6719,0.018106
69.739,57.6680,0.018106
69.770,57.6648,0.018106
69.800,57.6625,0.018106
69.831,57.6607,0.018106
69.864,57.6596,0.018106
69.892,57.6594,0.018106
69.922,57.6594,0.018106
69.954,57.6594,0.018106
69.985,57.6594,0.017795
70.017,57.6594,0.017795
70.047,57.6597,0.017795
70.079,57.6610,0.017795
70.110,57.6628,0.017795
70.142,57.6654,0.017795
70.172,57.6689,0.017795
70.203,57.6728,0.017701
70.234,57.6776,0.017701
70.266,57.6832,0.017701
70.296,57.6895,0.017701
70.327,57.6966,0.017701
70.358,57.7040,0.017701
70.389,57.7126,0.017701
70.420,57.7215,0.017701
70.451,57.7314,0.017701
70.481,57.7420,0.017579
70.512,57.7532,0.017579
70.544,57.7653,0.017579
70.575,57.7786,0.017579
70.605,57.7914,0.017579
70.637,57.8057,0.017579
70.667,57.8205,0.017579
70.698,57.8361,0.017579
70.729,57.8530,0.017334
70.760,57.8700,0.017334
70.791,57.8877,0.017334
70.822,57.9060,0.017334
70.853,57.9253,0.017334
70.888,57.9482,0.017334
70.914,57.9660,0.017334
70.945,57.9873,0.017334
70.980,58.0120,0.017108
71.007,58.0328,0.017108
71.039,58.0564,0.017108
71.069,58.0810,0.017108
71.101,58.1060,0.017108
71.131,58.1315,0.017108
71.162,58.1578,0.017108
71.193,58.1849,0.017108
71.223,58.2125,0.016986
71.254,58.2415,0.016986
71.285,58.2699,0.016986
71.316,58.3007,0.016986
71.347,58.3316,0.016986
71.377,58.3621,0.016986
71.408,58.3952,0.016986
71.439,58.4277,0.016986
71.469,58.4613,0.016741
71.502,58.4976,0.016741
71.532,58.5311,0.016741
71.564,58.5675,0.016741
71.594,58.6039,0.016741
71.624,58.6401,0.016741
71.656,58.6804,0.016741
71.685,58.7157,0.016082
71.715,58.7541,0.016082
71.747,58.7952,0.016082
71.781,58.8416,0.016082
71.808,58.8774,0.016082
71.839,58.9193,0.016082
71.870,58.9635,0.016082
71.902,59.0081,0.016082
71.932,59.0525,0.016082
71.963,59.0965,0.014661
71.994,59.1434,0.014661
72.025,59.1907,0.014661
72.060,59.2430,0.014661
72.087,59.2854,0.014661
72.120,59.3365,0.014661
72.150,59.3868,0.014661
72.182,59.4370,0.014661
72.213,59.4888,0.011857
72.244,59.5399,0.011857
72.274,59.5930,0.011857
72.305,59.6445,0.011857
72.336,59.6993,0.011857
72.367,59.7533,0.011857
72.398,59.8108,0.011857
72.429,59.8665,0.011857
72.461,59.9239,0.011857
72.492,59.9815,0.007114
72.522,60.0394,0.007114
72.553,60.0984,0.007114
72.584,60.1583,0.007114
72.615,60.2185,0.007114
72.646,60.2776,0.007114
72.674,60.3312,0.007114
72.708,60.3935,-0.001637
72.739,60.4516,-0.001637
72.769,60.5057,-0.001637
72.800,60.5606,-0.001637
72.831,60.6162,-0.001637
72.863,60.6713,-0.001637
72.894,60.7245,-0.001637
72.923,60.7763,-0.001637
72.955,60.8294,-0.001637
72.986,60.8809,-0.014915
73.020,60.9352,-0.014915
73.048,60.9802,-0.014915
73.080,61.0304,-0.014915
73.112,61.0806,-0.014915
73.141,61.1243,-0.014915
73.172,61.1725,-0.014915
73.203,61.2172,-0.014915
73.233,61.2621,-0.033228
73.266,61.3094,-0.033228
73.299,61.3570,-0.033228
73.327,61.3962,-0.033228
73.359,61.4392,-0.033228
73.390,61.4815,-0.033228
73.421,61.5220,-0.033228
73.451,61.5613,-0.033228
73.482,61.6006,-0.057770
73.513,61.6392,-0.057770
73.545,61.6787,-0.057770
73.574,61.7128,-0.057770
73.605,61.7499,-0.057770
73.637,61.7877,-0.057770
73.670,61.8248,-0.057770
73.700,61.8587,-0.091121
73.733,61.8948,-0.091121
73.760,61.9240,-0.091121
73.791,61.9563,-0.091121
73.823,61.9883,-0.091121
73.856,62.0210,-0.091121
73.886,62.0499,-0.091121
73.917,62.0796,-0.091121
73.947,62.1081,-0.139180
73.978,62.1350,-0.139180
74.009,62.1622,-0.139180
74.041,62.1901,-0.139180
74.071,62.2157,-0.139180
74.102,62.2407,-0.139180
74.133,62.2640,-0.139180
74.164,62.2879,-0.139180
74.194,62.3102,-0.139180
74.225,62.3324,-0.221982
74.256,62.3539,-0.221982
74.287,62.3749,-0.221982
74.319,62.3951,-0.221982
74.351,62.4148,-0.221982
74.381,62.4330,-0.221982
74.413,62.4514,-0.221982
74.443,62.4679,-0.373583
74.475,62.4842,-0.373583
74.505,62.4999,-0.373583
74.537,62.5151,-0.373583
74.568,62.5293,-0.373583
74.598,62.5420,-0.373583
74.630,62.5549,-0.373583
74.660,62.5666,-0.373583
74.691,62.5781,-0.605342
74.723,62.5888,-0.605342
74.753,62.5983,-0.605342
74.784,62.6074,-0.605342
74.814,62.6155,-0.605342
74.846,62.6234,-0.605342
74.877,62.6301,-0.605342
74.908,62.6363,-0.605342
74.939,62.6418,-0.904903
74.969,62.6462,-0.904903
74.999,62.6502,-0.904903
75.031,62.6535,-0.904903
75.063,62.6561,-0.904903
75.094,62.6580,-0.904903
75.125,62.6590,-0.904903
75.156,62.6594,-0.904903
75.186,62.6594,-1.088349
75.217,62.6594,-1.088349
75.252,62.6594,-1.088349
75.280,62.6594,-1.088349
75.310,62.6594,-1.088349
75.341,62.6594,-1.088349
75.372,62.6594,-1.088349
75.403,62.6594,-1.088349
75.434,62.6594,-1.088349
75.465,62.6594,-0.932024
75.496,62.6594,-0.932024
75.527,62.6594,-0.932024
75.558,62.6594,-0.932024
75.588,62.6594,-0.932024
75.619,62.6594,-0.932024
75.649,62.6594,-0.932024
75.681,62.6594,-0.932024
75.711,62.6594,-0.662783
75.741,62.6594,-0.662783
75.773,62.6594,-0.662783
75.803,62.6594,-0.662783
75.834,62.6594,-0.662783
75.868,62.6594,-0.662783
75.897,62.6594,-0.662783
75.928,62.6594,-0.662783
75.959,62.6594,-0.519585
75.991,62.6594,-0.519585
76.022,62.6594,-0.519585
76.053,62.6594,-0.519585
76.084,62.6594,-0.519585
76.116,62.6594,-0.519585
76.148,62.6594,-0.519585
76.179,62.6594,-0.519585
76.210,62.6594,-0.441658
76.246,62.6594,-0.441658
76.286,62.6594,-0.441658
76.317,62.6594,-0.441658
76.351,62.6594,-0.441658
76.380,62.6594,-0.441658
76.411,62.6594,-0.441658
76.442,62.6594,-0.441658
76.473,62.6594,-0.394728
76.504,62.6594,-0.394728
76.536,62.6594,-0.394728
76.566,62.6594,-0.394728
76.598,62.6594,-0.394728
76.629,62.6594,-0.394728
76.661,62.6594,-0.394728
76.690,62.6594,-0.362592
76.722,62.6594,-0.362592
76.754,62.6594,-0.362592
76.784,62.6594,-0.362592
76.815,62.6594,-0.362592
76.846,62.6594,-0.362592
76.877,62.6594,-0.362592
76.908,62.6594,-0.362592
76.939,62.6594,-0.338924
76.971,62.6594,-0.338924
77.002,62.6594,-0.338924
77.033,62.6594,-0.338924
77.063,62.6594,-0.338924
77.094,62.6594,-0.338924
77.125,62.6594,-0.338924
77.157,62.6594,-0.338924
77.188,62.6594,-0.338924
77.218,62.6594,-0.323266
77.250,62.6594,-0.323266
77.281,62.6594,-0.323266
77.315,62.6594,-0.323266
77.343,62.6594,-0.323266
77.373,62.6594,-0.323266
77.403,62.6594,-0.323266
77.436,62.6594,-0.323266
77.466,62.6594,-0.310571
77.499,62.6594,-0.310571
77.528,62.6594,-0.310571
77.559,62.6594,-0.310571
77.589,62.6594,-0.310571
77.620,62.6594,-0.310571
77.651,62.6594,-0.310571
77.682,62.6594,-0.310571
77.714,62.6594,-0.298827
77.746,62.6594,-0.298827
77.776,62.6594,-0.298827
77.807,62.6594,-0.298827
77.837,62.6594,-0.298827
77.868,62.6594,-0.298827
77.899,62.6594,-0.298827
77.930,62.6594,-0.298827
77.961,62.6594,-0.290423
77.992,62.6594,-0.290423
78.023,62.6594,-0.290423
78.054,62.6594,-0.290423
78.085,62.6594,-0.290423
78.116,62.6594,-0.290423
78.147,62.6594,-0.290423
78.178,62.6594,-0.290423
78.209,62.6594,-0.283949
78.240,62.6594,-0.283949
78.270,62.6594,-0.283949
78.300,62.6594,-0.283949
78.331,62.6594,-0.283949
78.364,62.6594,-0.283949
78.393,62.6594,-0.283949
78.424,62.6594,-0.283949
78.455,62.6594,-0.283949
78.487,62.6594,-0.283949
78.518,62.6594,-0.278199
78.549,62.6594,-0.278199
78.582,62.6594,-0.278199
78.612,62.6594,-0.278199
78.643,62.6594,-0.278199
78.674,62.6594,-0.278199
78.704,62.6594,-0.278199
78.735,62.6594,-0.273475
78.766,62.6594,-0.273475
78.796,62.6594,-0.273475
78.827,62.6594,-0.273475
78.859,62.6594,-0.273475
78.889,62.6594,-0.273475
78.922,62.6594,-0.273475
78.950,62.6594,-0.269457
78.982,62.6594,-0.269457
79.012,62.6594,-0.269457
79.043,62.6594,-0.269457
79.073,62.6594,-0.269457
79.104,62.6594,-0.269457
79.135,62.6594,-0.269457
79.169,62.6594,-0.269457
79.198,62.6594,-0.269457
79.229,62.6594,-0.264921
79.260,62.6594,-0.264921
79.291,62.6594,-0.264921
79.321,62.6594,-0.264921
79.352,62.6594,-0.264921
79.383,62.6594,-0.264921
79.413,62.6594,-0.264921
79.445,62.6594,-0.259924
79.476,62.6594,-0.259924
79.506,62.6594,-0.259924
79.537,62.6594,-0.259924
79.568,62.6587,-0.259924
79.599,62.6574,-0.259924
79.630,62.6554,-0.259924
79.661,62.6525,-0.259924
79.692,62.6490,-0.259924
79.724,62.6447,-0.255577
79.755,62.6396,-0.255577
79.785,62.6342,-0.255577
79.816,62.6276,-0.255577
79.848,62.6204,-0.255577
79.878,62.6126,-0.255577
79.909,62.6041,-0.255577
79.941,62.5945,0.233152
79.973,62.5841,0.233152
80.003,62.5733,0.233152
80.034,62.5623,0.233152
80.065,62.5500,0.233152
80.096,62.5367,0.233152
80.126,62.5234,0.233152
80.157,62.5089,0.233152
80.187,62.4949,0.233152
80.217,62.4787,0.399094
80.248,62.4624,0.399094
80.280,62.4447,0.399094
80.311,62.4269,0.399094
80.342,62.4078,0.399094
80.373,62.3889,0.399094
80.403,62.3688,0.399094
80.434,62.3481,0.060001
80.465,62.3259,0.060001
80.496,62.3035,0.060001
80.527,62.2811,0.060001
80.558,62.2570,0.060001
80.589,62.2324,0.060001
80.620,62.2073,0.060001
80.651,62.1813,0.060001
80.682,62.1545,0.060001
80.713,62.1271,0.053752
80.744,62.0982,0.053752
80.774,62.0710,0.053752
80.805,62.0415,0.053752
80.837,62.0102,0.053752
80.868,61.9793,0.053752
80.898,61.9470,0.053752
80.930,61.9144,0.076092
80.962,61.8804,0.076092
80.992,61.8465,0.076092
81.023,61.8117,0.076092
81.054,61.7761,0.076092
81.085,61.7409,0.076092
81.116,61.7030,0.076092
81.147,61.6661,0.076092
81.179,61.6261,0.076092
81.210,61.5878,0.090434
81.241,61.5474,0.090434
81.272,61.5076,0.090434
81.303,61.4650,0.090434
81.334,61.4242,0.090434
81.365,61.3799,0.090434
81.396,61.3369,0.090434
81.429,61.2898,0.095591
81.459,61.2465,0.095591
81.491,61.1975,0.095591
81.522,61.1538,0.095591
81.552,61.1070,0.095591
81.583,61.0591,0.095591
81.614,61.0118,0.095591
81.644,60.9616,0.095591
81.675,60.9121,0.095591
81.707,60.8609,0.096513
81.737,60.8107,0.096513
81.769,60.7557,0.096513
81.800,60.7040,0.096513
81.831,60.6499,0.096513
81.862,60.5964,0.096513
81.893,60.5402,0.096513
81.924,60.4846,0.096513
81.955,60.4281,0.101209
81.985,60.3731,0.101209
82.019,60.3100,0.101209
82.047,60.2555,0.101209
82.079,60.1950,0.101209
82.109,60.1356,0.101209
82.140,60.0743,0.101209
82.171,60.0159,0.101209
82.208,59.9439,0.101209
82.249,59.8702,0.115927
82.280,59.8115,0.115927
82.311,59.7566,0.115927
82.343,59.7003,0.115927
82.375,59.6436,0.115927
82.405,59.5892,0.115927
82.439,59.5317,0.115927
82.467,59.4844,0.139801
82.500,59.4289,0.139801
82.530,59.3792,0.139801
82.564,59.3240,0.139801
82.592,59.2791,0.139801
82.623,59.2302,0.139801
82.654,59.1824,0.139801
82.688,59.1294,0.162621
82.717,59.0866,0.162621
82.747,59.0420,0.162621
82.782,58.9908,0.162621
82.810,58.9509,0.162621
82.842,58.9068,0.162621
82.872,58.8640,0.162621
82.903,58.8222,0.162621
82.937,58.7758,0.162621
82.965,58.7385,0.152486
82.996,58.6991,0.152486
83.027,58.6604,0.152486
83.057,58.6217,0.152486
83.087,58.5851,0.152486
83.119,58.5468,0.152486
83.151,58.5094,0.152486
83.181,58.4732,0.152486
83.213,58.4374,0.080543
83.245,58.4021,0.080543
83.275,58.3699,0.080543
83.305,58.3372,0.080543
83.341,58.3009,0.080543
83.368,58.2737,0.080543
83.399,58.2433,0.080543
83.429,58.2136,0.080543
83.460,58.1846,0.080543
83.490,58.1569,0.024966
83.521,58.1285,0.024966
83.552,58.1018,0.024966
83.583,58.0751,0.024966
83.614,58.0502,0.024966
83.646,58.0239,0.024966
83.677,57.9999,0.024966
83.708,57.9762,0.024966
83.739,57.9538,0.021126
83.769,57.9318,0.021126
83.801,57.9109,0.021126
83.833,57.8891,0.021126
83.865,57.8691,0.021126
83.896,57.8490,0.021126
83.927,57.8311,0.021126
83.959,57.8132,0.021126
83.989,57.7968,0.019592
84.020,57.7808,0.019592
84.051,57.7653,0.019592
84.081,57.7509,0.019592
84.114,57.7361,0.019592
84.144,57.7234,0.019592
84.176,57.7106,0.019592
84.207,57.6986,0.018793
84.238,57.6876,0.018793
84.269,57.6771,0.018793
84.300,57.6679,0.018793
84.331,57.6587,0.018793
84.363,57.6507,0.018793
84.393,57.6432,0.018793
84.424,57.6368,0.018793
84.456,57.6305,0.018793
84.486,57.6255,0.018313
84.516,57.6213,0.018313
84.546,57.6176,0.018313
84.577,57.6145,0.018313
84.610,57.6120,0.018313
84.638,57.6105,0.018313
84.669,57.6096,0.018313
84.700,57.6094,0.018313
84.732,57.6094,0.017946
84.763,57.6094,0.017946
84.794,57.6094,0.017946
84.825,57.6094,0.017946
84.856,57.6094,0.017946
84.886,57.6101,0.017946
84.917,57.6115,0.017946
84.948,57.6135,0.017946
84.979,57.6163,0.017786
85.008,57.6197,0.017786
85.039,57.6238,0.017786
85.070,57.6290,0.017786
85.101,57.6344,0.017786
85.132,57.6409,0.017786
85.163,57.6481,0.017786
85.195,57.6561,0.017786
85.226,57.6646,0.017607
85.256,57.6741,0.017607
85.287,57.6839,0.017607
85.318,57.6947,0.017607
85.349,57.7060,0.017607
85.380,57.7183,0.017607
85.411,57.7314,0.017607
85.443,57.7453,0.017381
85.475,57.7601,0.017381
85.505,57.7751,0.017381
85.536,57.7908,0.017381
85.567,57.8079,0.017381
85.598,57.8248,0.017381
85.629,57.8432,0.017381
85.660,57.8618,0.017381
85.690,57.8809,0.017381
85.721,57.9005,0.017381
85.752,57.9222,0.017381
85.783,57.9437,0.017277
85.813,57.9656,0.017277
85.844,57.9884,0.017277
85.876,58.0131,0.017277
85.907,58.0376,0.017277
85.938,58.0629,0.017165
85.969,58.0887,0.017165
86.001,58.1159,0.017165
86.031,58.1431,0.017165
86.062,58.1720,0.017165
86.093,58.2005,0.017165
86.124,58.2300,0.017165
86.155,58.2600,0.017165
86.185,58.2911,0.017165
86.217,58.3241,0.016901
86.248,58.3560,0.016901
86.279,58.3901,0.016901
86.310,58.4235,0.016901
86.341,58.4583,0.016901
86.372,58.4934,0.016901
86.403,58.5301,0.016901
86.434,58.5671,0.016393
86.465,58.6047,0.016393
86.497,58.6442,0.016393
86.526,58.6812,0.016393
86.559,58.7251,0.016393
86.588,58.7614,0.016393
86.619,58.8034,0.016393
86.650,58.8452,0.016393
86.681,58.8879,0.016393
86.712,58.9315,0.016393
86.742,58.9744,0.016393
86.768,59.0110,0.015320
86.803,59.0636,0.015320
86.834,59.1092,0.015320
86.866,59.1573,0.015320
86.898,59.2071,0.015320
86.928,59.2546,0.015320
86.958,59.3027,0.013080
86.990,59.3527,0.013080
87.021,59.4038,0.013080
87.052,59.4557,0.013080
87.084,59.5094,0.013080
87.114,59.5621,0.013080
87.145,59.6146,0.013080
87.177,59.6720,0.008912
87.208,59.7257,0.008912
87.239,59.7829,0.008912
87.270,59.8380,0.008912
87.300,59.8955,0.008912
87.332,59.9537,0.008912
87.363,60.0111,0.008912
87.393,60.0703,0.008912
87.424,60.1303,0.008912
87.456,60.1916,0.008912
87.487,60.2497,0.001684
87.518,60.3095,0.001684
87.548,60.3643,0.001684
87.580,60.4222,0.001684
87.610,60.4772,0.001684
87.641,60.5327,0.001684
87.671,60.5856,0.001684
87.702,60.6401,-0.010182
87.733,60.6924,-0.010182
87.770,60.7551,-0.010182
87.812,60.8237,-0.010182
87.843,60.8752,-0.010182
87.873,60.9239,-0.010182
87.905,60.9746,-0.010182
87.938,61.0271,-0.010182
87.968,61.0710,-0.010182
87.998,61.1161,-0.027384
88.029,61.1634,-0.027384
88.060,61.2087,-0.027384
88.092,61.2555,-0.027384
88.126,61.3030,-0.027384
88.156,61.3447,-0.027384
88.185,61.3852,-0.050741
88.215,61.4265,-0.050741
88.246,61.4671,-0.050741
88.278,61.5084,-0.050741
88.308,61.5474,-0.050741
88.340,61.5868,-0.050741
88.371,61.6245,-0.050741
88.401,61.6615,-0.050741
88.432,61.6978,-0.050741
88.463,61.7334,-0.050741
88.496,61.7715,-0.081682
88.526,61.8051,-0.081682
88.557,61.8387,-0.081682
88.588,61.8719,-0.081682
88.622,61.9077,-0.081682
88.651,61.9366,-0.081682
88.681,61.9674,-0.081682
88.712,61.9978,-0.123031
88.743,62.0277,-0.123031
88.775,62.0564,-0.123031
88.806,62.0844,-0.123031
88.837,62.1113,-0.123031
88.867,62.1382,-0.123031
88.899,62.1638,-0.123031
88.931,62.1898,-0.123031
88.961,62.2136,-0.189826
88.992,62.2373,-0.189826
89.023,62.2608,-0.189826
89.054,62.2823,-0.189826
89.085,62.3040,-0.189826
89.116,62.3245,-0.189826
89.147,62.3446,-0.189826
89.178,62.3638,-0.189826
89.208,62.3819,-0.318259
89.240,62.4003,-0.318259
89.271,62.4174,-0.318259
89.301,62.4332,-0.318259
89.332,62.4485,-0.318259
89.363,62.4637,-0.318259
89.394,62.4776,-0.318259
89.426,62.4918,-0.318259
89.457,62.5042,-0.524657
89.488,62.5161,-0.524657
89.519,62.5278,-0.524657
89.550,62.5384,-0.524657
89.580,62.5477,-0.524657
89.612,62.5572,-0.524657
89.642,62.5651,-0.524657
89.674,62.5730,-0.524657
89.704,62.5799,-0.807675
89.738,62.5866,-0.807675
89.767,62.5915,-0.807675
89.799,62.5964,-0.807675
89.829,62.6003,-0.807675
89.860,62.6037,-0.807675
89.891,62.6062,-0.807675
89.923,62.6080,-0.807675
89.953,62.6090,-1.064522
89.984,62.6094,-1.064522
90.014,62.6094,-1.064522
90.045,62.6094,-1.064522
90.076,62.6094,-1.064522
90.107,62.6094,-1.064522
