Elapsed Time (s),Position (mm),Force (N)
-0.021,69.8092,-0.249027
0.010,69.8092,-0.249027
0.041,69.8092,-0.249027
0.073,69.8092,-0.249027
0.104,69.8092,-0.185234
0.134,69.8092,-0.185234
0.165,69.8092,-0.185234
0.197,69.8092,-0.185234
0.228,69.8092,-0.185234
0.259,69.8092,-0.185234
0.290,69.8092,-0.185234
0.321,69.8092,-0.185234
0.352,69.8092,-0.185234
0.383,69.8092,-0.172154
0.415,69.8092,-0.172154
0.446,69.8092,-0.172154
0.480,69.8092,-0.172154
0.508,69.8092,-0.172154
0.539,69.8092,-0.172154
0.569,69.8092,-0.172154
0.600,69.8092,-0.172154
0.630,69.8092,-0.164371
0.661,69.8092,-0.164371
0.692,69.8092,-0.164371
0.723,69.8092,-0.164371
0.755,69.8092,-0.164371
0.785,69.8092,-0.164371
0.816,69.8092,-0.164371
0.847,69.8092,-0.164371
0.879,69.8092,-0.158518
0.910,69.8092,-0.158518
0.941,69.8092,-0.158518
0.972,69.8092,-0.158518
1.003,69.8092,-0.158518
1.034,69.8092,-0.158518
1.065,69.8092,-0.158518
1.096,69.8092,-0.158518
1.127,69.8092,-0.154104
1.158,69.8092,-0.154104
1.190,69.8092,-0.154104
1.220,69.8092,-0.154104
1.251,69.8092,-0.154104
1.283,69.8092,-0.154104
1.314,69.8092,-0.154104
1.345,69.8092,-0.154104
1.379,69.8092,-0.150519
1.407,69.8092,-0.150519
1.438,69.8092,-0.150519
1.469,69.8092,-0.150519
1.500,69.8092,-0.150519
1.531,69.8092,-0.150519
1.562,69.8092,-0.150519
1.593,69.8092,-0.150519
1.622,69.8092,-0.147602
1.653,69.8092,-0.147602
1.683,69.8092,-0.147602
1.714,69.8092,-0.147602
1.745,69.8092,-0.147602
1.776,69.8092,-0.147602
1.807,69.8092,-0.147602
1.838,69.8092,-0.147602
1.868,69.8092,-0.147602
1.899,69.8092,-0.145268
1.930,69.8092,-0.145268
1.961,69.8092,-0.145268
1.993,69.8092,-0.145268
2.023,69.8092,-0.145268
2.054,69.8092,-0.145268
2.085,69.8092,-0.143104
2.117,69.8092,-0.143104
2.148,69.8092,-0.143104
2.180,69.8092,-0.143104
2.210,69.8092,-0.143104
2.241,69.8092,-0.143104
2.272,69.8092,-0.143104
2.303,69.8092,-0.143104
2.333,69.8092,-0.143104
2.365,69.8092,-0.141175
2.396,69.8092,-0.141175
2.428,69.8092,-0.141175
2.459,69.8092,-0.141175
2.490,69.8092,-0.141175
2.522,69.8092,-0.141175
2.553,69.8092,-0.141175
2.585,69.8092,-0.141175
2.615,69.8092,-0.139509
2.646,69.8092,-0.139509
2.677,69.8092,-0.139509
2.709,69.8092,-0.139509
2.740,69.8092,-0.139509
2.771,69.8092,-0.139509
2.803,69.8092,-0.139509
2.833,69.8092,-0.139509
2.864,69.8092,-0.137994
2.894,69.8092,-0.137994
2.925,69.8092,-0.137994
2.956,69.8092,-0.137994
2.986,69.8092,-0.137994
3.017,69.8092,-0.137994
3.049,69.8092,-0.137994
3.081,69.8092,-0.137994
3.110,69.8092,-0.137994
3.142,69.8092,-0.136639
3.173,69.8092,-0.136639
3.204,69.8092,-0.136639
3.235,69.8092,-0.136639
3.266,69.8092,-0.136639
3.297,69.8092,-0.136639
3.327,69.8092,-0.136639
3.358,69.8092,-0.135406
3.389,69.8092,-0.135406
3.420,69.8092,-0.135406
3.451,69.8092,-0.135406
3.483,69.8092,-0.135406
3.513,69.8092,-0.135406
3.544,69.8092,-0.135406
3.574,69.8092,-0.135406
3.606,69.8092,-0.134107
3.636,69.8092,-0.134107
3.667,69.8092,-0.134107
3.698,69.8092,-0.134107
3.729,69.8092,-0.134107
3.761,69.8092,-0.134107
3.792,69.8092,-0.134107
3.824,69.8092,-0.134107
3.855,69.8092,-0.132583
3.886,69.8092,-0.132583
3.917,69.8092,-0.132583
3.948,69.8092,-0.132583
3.979,69.8092,-0.132583
4.011,69.8092,-0.132583
4.041,69.8092,-0.132583
4.072,69.8092,-0.132583
4.104,69.8092,-0.131068
4.134,69.8086,-0.131068
4.166,69.8073,-0.131068
4.197,69.8054,-0.131068
4.229,69.8026,-0.131068
4.260,69.7990,-0.131068
4.291,69.7948,-0.131068
4.323,69.7898,-0.131068
4.352,69.7843,-0.077805
4.384,69.7776,-0.077805
4.416,69.7705,-0.077805
4.446,69.7627,-0.077805
4.477,69.7544,-0.077805
4.508,69.7448,-0.077805
4.539,69.7347,-0.077805
4.570,69.7239,-0.077805
4.601,69.7128,-0.077805
4.632,69.7007,-0.033953
4.663,69.6874,-0.033953
4.694,69.6740,-0.033953
4.725,69.6595,-0.033953
4.756,69.6442,-0.033953
4.787,69.6285,-0.033953
4.818,69.6122,-0.033953
4.849,69.5943,-0.033953
4.880,69.5760,-0.033953
4.912,69.5571,-0.038855
4.944,69.5371,-0.038855
4.974,69.5171,-0.038855
5.005,69.4964,-0.038855
5.036,69.4742,-0.038855
5.067,69.4523,-0.038855
5.098,69.4292,-0.022190
5.129,69.4056,-0.022190
5.160,69.3804,-0.022190
5.191,69.3554,-0.022190
5.222,69.3297,-0.022190
5.253,69.3028,-0.022190
5.283,69.2753,-0.022190
5.315,69.2471,-0.022190
5.349,69.2151,-0.022190
5.377,69.1885,-0.022190
5.408,69.1577,0.003557
5.439,69.1262,0.003557
5.470,69.0959,0.003557
5.501,69.0651,0.003557
5.532,69.0338,0.003557
5.563,69.0033,0.003557
5.594,68.9714,0.003557
5.625,68.9410,0.003557
5.656,68.9092,0.025794
5.687,68.8794,0.025794
5.718,68.8478,0.025794
5.749,68.8165,0.025794
5.780,68.7856,0.025794
5.811,68.7546,0.025794
5.843,68.7226,0.025794
5.873,68.6924,0.039100
5.904,68.6612,0.039100
5.935,68.6310,0.039100
5.966,68.5979,0.039100
5.997,68.5685,0.039100
6.029,68.5372,0.039100
6.060,68.5061,0.039100
6.091,68.4754,0.039100
6.122,68.4432,0.044257
6.152,68.4134,0.044257
6.184,68.3819,0.044257
6.214,68.3506,0.044257
6.246,68.3196,0.044257
6.277,68.2885,0.044257
6.308,68.2577,0.044257
6.339,68.2275,0.044257
6.370,68.1958,0.045772
6.400,68.1651,0.045772
6.430,68.1353,0.045772
6.461,68.1042,0.045772
6.492,68.0740,0.045772
6.524,68.0424,0.045772
6.555,68.0110,0.045772
6.586,67.9801,0.046205
6.617,67.9479,0.046205
6.649,67.9168,0.046205
6.680,67.8860,0.046205
6.710,67.8557,0.046205
6.741,67.8240,0.046205
6.773,67.7929,0.046205
6.804,67.7621,0.046205
6.834,67.7316,0.046205
6.866,67.6998,0.046478
6.897,67.6690,0.046478
6.928,67.6374,0.046478
6.959,67.6065,0.046478
6.990,67.5757,0.046478
7.021,67.5442,0.046478
7.052,67.5141,0.046478
7.086,67.4802,0.046478
7.114,67.4519,0.046478
7.148,67.4174,0.047240
7.176,67.3901,0.047240
7.206,67.3596,0.047240
7.237,67.3284,0.047240
7.268,67.2976,0.047240
7.299,67.2667,0.047240
7.330,67.2353,0.047240
7.361,67.2042,0.047240
7.393,67.1722,0.048840
7.424,67.1418,0.048840
7.455,67.1109,0.048840
7.487,67.0791,0.048840
7.518,67.0482,0.048840
7.549,67.0166,0.048840
7.580,66.9861,0.048840
7.612,66.9537,0.049950
7.644,66.9221,0.049950
7.675,66.8906,0.049950
7.706,66.8594,0.049950
7.737,66.8289,0.049950
7.768,66.7978,0.049950
7.804,66.7621,0.049950
7.830,66.7363,0.048040
7.861,66.7045,0.048040
7.892,66.6741,0.048040
7.923,66.6430,0.048040
7.953,66.6125,0.048040
7.985,66.5801,0.048040
8.016,66.5500,0.048040
8.048,66.5176,0.048040
8.078,66.4875,0.048040
8.111,66.4546,0.042780
8.141,66.4247,0.042780
8.174,66.3911,0.042780
8.204,66.3622,0.042780
8.235,66.3313,0.042780
8.265,66.3012,0.042780
8.295,66.2699,0.042780
8.326,66.2398,0.042780
8.357,66.2092,0.026697
8.388,66.1774,0.026697
8.418,66.1479,0.026697
8.448,66.1178,0.026697
8.479,66.0870,0.026697
8.510,66.0555,0.026697
8.541,66.0247,0.026697
8.573,65.9927,0.026697
8.604,65.9612,0.012826
8.636,65.9301,0.012826
8.668,65.8976,0.012826
8.699,65.8671,0.012826
8.731,65.8346,0.012826
8.762,65.8044,0.012826
8.792,65.7737,0.012826
8.823,65.7428,0.012826
8.853,65.7126,0.012826
8.884,65.6819,0.012826
8.915,65.6504,0.011603
8.946,65.6197,0.011603
8.977,65.5887,0.011603
9.008,65.5582,0.011603
9.040,65.5254,0.011603
9.069,65.4965,0.011603
9.100,65.4654,0.011603
9.130,65.4356,0.011292
9.162,65.4036,0.011292
9.192,65.3751,0.011292
9.223,65.3446,0.011292
9.255,65.3157,0.011292
9.285,65.2874,0.011292
9.316,65.2610,0.011292
9.346,65.2348,0.011292
9.378,65.2079,0.011085
9.408,65.1835,0.011085
9.440,65.1587,0.011085
9.472,65.1345,0.011085
9.502,65.1117,0.011085
9.534,65.0887,0.011085
9.564,65.0680,0.011085
9.595,65.0471,0.011085
9.626,65.0275,0.010831
9.658,65.0071,0.010831
9.687,64.9894,0.010831
9.719,64.9709,0.010831
9.750,64.9538,0.010831
9.780,64.9382,0.010831
9.811,64.9223,0.010831
9.842,64.9069,0.010831
9.872,64.8932,0.010831
9.904,64.8793,0.010831
9.935,64.8666,0.010653
9.966,64.8545,0.010653
9.996,64.8432,0.010653
10.028,64.8321,0.010653
10.059,64.8225,0.010653
10.089,64.8133,0.010653
10.120,64.8049,0.010577
10.153,64.7967,0.010577
10.181,64.7902,0.010577
10.213,64.7836,0.010577
10.244,64.7782,0.010577
10.276,64.7731,0.010577
10.306,64.7690,0.010577
10.337,64.7655,0.010577
10.368,64.7629,0.010427
10.400,64.7609,0.010427
10.430,64.7597,0.010427
10.461,64.7592,0.010427
10.492,64.7592,0.010427
10.522,64.7592,0.010427
10.554,64.7592,0.010427
10.584,64.7592,0.010427
10.614,64.7592,0.010276
10.646,64.7592,0.010276
10.677,64.7592,0.010276
10.707,64.7592,0.010276
10.738,64.7592,0.010276
10.770,64.7592,0.010276
10.801,64.7592,0.010276
10.831,64.7592,0.010276
10.862,64.7592,0.010220
10.893,64.7592,0.010220
10.925,64.7592,0.010220
10.956,64.7595,0.010220
10.987,64.7605,0.010220
11.017,64.7622,0.010220
11.048,64.7647,0.010220
11.080,64.7680,0.010220
11.110,64.7717,0.010220
11.141,64.7764,0.010173
11.173,64.7818,0.010173
11.204,64.7881,0.010173
11.235,64.7948,0.010173
11.267,64.8027,0.010173
11.297,64.8107,0.010173
11.328,64.8199,0.010173
11.359,64.8293,0.010013
11.388,64.8397,0.010013
11.420,64.8507,0.010013
11.452,64.8636,0.010013
11.482,64.8755,0.010013
11.512,64.8884,0.010013
11.543,64.9025,0.010013
11.574,64.9175,0.010013
11.606,64.9331,0.009740
11.636,64.9493,0.009740
11.667,64.9658,0.009740
11.698,64.9834,0.009740
11.729,65.0018,0.009740
11.760,65.0213,0.009740
11.791,65.0409,0.009740
11.822,65.0621,0.009740
11.853,65.0829,0.009542
11.883,65.1051,0.009542
11.915,65.1277,0.009542
11.946,65.1511,0.009542
11.977,65.1756,0.009542
12.008,65.2004,0.009542
12.038,65.2258,0.009542
12.069,65.2526,0.009542
12.100,65.2787,0.009288
12.131,65.3075,0.009288
12.162,65.3355,0.009288
12.195,65.3674,0.009288
12.224,65.3957,0.009288
12.255,65.4251,0.009288
12.285,65.4566,0.009288
12.317,65.4883,0.009288
12.347,65.5187,0.009288
12.378,65.5490,0.008865
12.409,65.5807,0.008865
12.440,65.6108,0.008865
12.471,65.6428,0.008865
12.502,65.6730,0.008865
12.534,65.7044,0.008865
12.565,65.7356,0.008865
12.596,65.7676,0.008865
12.627,65.7985,0.008545
12.664,65.8347,0.008545
12.704,65.8755,0.008545
12.736,65.9062,0.008545
12.767,65.9378,0.008545
12.797,65.9679,0.008545
12.828,65.9992,0.008545
12.859,66.0301,0.008225
12.892,66.0633,0.008225
12.922,66.0926,0.008225
12.953,66.1240,0.008225
12.984,66.1542,0.008225
13.015,66.1871,0.008225
13.046,66.2167,0.008225
13.077,66.2479,0.008225
13.107,66.2779,0.007782
13.138,66.3098,0.007782
13.169,66.3406,0.007782
13.201,66.3716,0.007782
13.233,66.4041,0.007782
13.265,66.4359,0.007782
13.295,66.4653,0.007782
13.326,66.4967,0.007782
13.357,66.5277,0.007274
13.388,66.5584,0.007274
13.419,66.5891,0.007274
13.450,66.6210,0.007274
13.481,66.6521,0.007274
13.514,66.6843,0.007274
13.543,66.7138,0.007274
13.574,66.7453,0.007274
13.605,66.7750,0.006710
13.638,66.8089,0.006710
13.667,66.8377,0.006710
13.698,66.8684,0.006710
13.729,66.9001,0.006710
13.762,66.9323,0.006710
13.791,66.9625,0.006710
13.822,66.9932,0.006710
13.853,67.0242,0.006710
13.884,67.0548,0.006098
13.915,67.0856,0.006098
13.946,67.1169,0.006098
13.977,67.1474,0.006098
14.008,67.1788,0.006098
14.039,67.2090,0.006098
14.070,67.2412,0.006098
14.101,67.2716,0.005336
14.133,67.3039,0.005336
14.164,67.3351,0.005336
14.195,67.3659,0.005336
14.227,67.3983,0.005336
14.258,67.4284,0.005336
14.290,67.4609,0.005336
14.321,67.4923,0.005336
14.351,67.5218,0.004244
14.382,67.5525,0.004244
14.413,67.5840,0.004244
14.444,67.6147,0.004244
14.476,67.6462,0.004244
14.506,67.6766,0.004244
14.537,67.7080,0.004244
14.569,67.7392,0.004244
14.600,67.7704,0.002654
14.630,67.8011,0.002654
14.661,67.8320,0.002654
14.692,67.8626,0.002654
14.723,67.8939,0.002654
14.756,67.9265,0.002654
14.784,67.9554,0.002654
14.816,67.9869,0.002654
14.847,68.0178,0.002654
14.878,68.0489,0.000169
14.909,68.0797,0.000169
14.940,68.1107,0.000169
14.971,68.1421,0.000169
15.002,68.1732,0.000169
15.033,68.2042,0.000169
15.065,68.2358,0.000169
15.096,68.2660,-0.004056
15.126,68.2965,-0.004056
15.157,68.3274,-0.004056
15.187,68.3579,-0.004056
15.218,68.3895,-0.004056
15.249,68.4199,-0.004056
15.280,68.4511,-0.004056
15.313,68.4845,-0.004056
15.342,68.5127,-0.004056
15.373,68.5429,-0.011311
15.404,68.5742,-0.011311
15.435,68.6053,-0.011311
15.466,68.6367,-0.011311
15.497,68.6686,-0.011311
15.528,68.6986,-0.011311
15.559,68.7297,-0.011311
15.590,68.7606,-0.023215
15.621,68.7911,-0.023215
15.652,68.8220,-0.023215
15.683,68.8543,-0.023215
15.714,68.8847,-0.023215
15.745,68.9160,-0.023215
15.777,68.9477,-0.023215
15.807,68.9782,-0.023215
15.838,69.0081,-0.042027
15.869,69.0399,-0.042027
15.901,69.0709,-0.042027
15.931,69.1016,-0.042027
15.962,69.1330,-0.042027
15.993,69.1619,-0.042027
16.024,69.1912,-0.042027
16.055,69.2197,-0.042027
16.085,69.2465,-0.069533
16.116,69.2735,-0.069533
16.148,69.3002,-0.069533
16.179,69.3255,-0.069533
16.210,69.3502,-0.069533
16.240,69.3740,-0.069533
16.271,69.3971,-0.069533
16.304,69.4213,-0.069533
16.332,69.4412,-0.069533
16.363,69.4626,-0.069533
16.393,69.4819,-0.102724
16.424,69.5011,-0.102724
16.455,69.5203,-0.102724
16.485,69.5383,-0.102724
16.516,69.5561,-0.102724
16.547,69.5727,-0.102724
16.577,69.5887,-0.102724
16.608,69.6034,-0.142097
16.638,69.6180,-0.142097
16.670,69.6323,-0.142097
16.700,69.6451,-0.142097
16.731,69.6575,-0.142097
16.761,69.6690,-0.142097
16.792,69.6803,-0.142097
16.823,69.6904,-0.142097
16.854,69.7002,-0.142097
16.885,69.7089,-0.209955
16.916,69.7172,-0.209955
16.947,69.7249,-0.209955
16.978,69.7312,-0.209955
17.008,69.7374,-0.209955
17.039,69.7425,-0.209955
17.069,69.7471,-0.209955
17.100,69.7508,-0.209955
17.132,69.7540,-0.209955
17.162,69.7564,-0.298441
17.194,69.7580,-0.298441
17.225,69.7590,-0.298441
17.255,69.7592,-0.298441
17.286,69.7592,-0.298441
17.316,69.7592,-0.298441
17.347,69.7592,-0.298441
17.378,69.7592,-0.312453
17.409,69.7592,-0.312453
17.440,69.7592,-0.312453
17.472,69.7592,-0.312453
17.503,69.7592,-0.312453
17.535,69.7592,-0.312453
17.566,69.7592,-0.312453
17.597,69.7592,-0.312453
17.628,69.7592,-0.237800
17.659,69.7592,-0.237800
17.690,69.7592,-0.237800
17.721,69.7592,-0.237800
17.751,69.7592,-0.237800
17.784,69.7592,-0.237800
17.813,69.7592,-0.237800
17.844,69.7592,-0.237800
17.875,69.7592,-0.183700
17.906,69.7592,-0.183700
17.939,69.7592,-0.183700
17.968,69.7592,-0.183700
18.000,69.7592,-0.183700
18.031,69.7592,-0.183700
18.063,69.7592,-0.183700
18.093,69.7592,-0.171090
18.127,69.7592,-0.171090
18.154,69.7592,-0.171090
18.186,69.7592,-0.171090
18.216,69.7592,-0.171090
18.246,69.7592,-0.171090
18.278,69.7592,-0.171090
18.308,69.7592,-0.171090
18.339,69.7592,-0.171090
18.371,69.7592,-0.163562
18.401,69.7592,-0.163562
18.432,69.7592,-0.163562
18.464,69.7592,-0.163562
18.495,69.7592,-0.163562
18.526,69.7592,-0.163562
18.556,69.7592,-0.163562
18.588,69.7592,-0.157869
18.619,69.7592,-0.157869
18.650,69.7592,-0.157869
18.681,69.7592,-0.157869
18.711,69.7592,-0.157869
18.743,69.7592,-0.157869
18.773,69.7592,-0.157869
18.804,69.7592,-0.157869
18.835,69.7592,-0.157869
18.866,69.7592,-0.153483
18.898,69.7592,-0.153483
18.929,69.7592,-0.153483
18.960,69.7592,-0.153483
18.991,69.7592,-0.153483
19.021,69.7592,-0.153483
19.052,69.7592,-0.153483
19.084,69.7592,-0.149983
19.115,69.7592,-0.149983
19.146,69.7592,-0.149983
19.177,69.7592,-0.149983
19.208,69.7592,-0.149983
19.240,69.7592,-0.149983
19.270,69.7592,-0.149983
19.300,69.7592,-0.149983
19.332,69.7592,-0.149983
19.363,69.7592,-0.147113
19.394,69.7592,-0.147113
19.425,69.7592,-0.147113
19.457,69.7592,-0.147113
19.488,69.7592,-0.147113
19.518,69.7592,-0.147113
19.550,69.7592,-0.147113
19.581,69.7592,-0.147113
19.612,69.7592,-0.144704
19.643,69.7592,-0.144704
19.675,69.7592,-0.144704
19.705,69.7592,-0.144704
19.736,69.7592,-0.144704
19.767,69.7592,-0.144704
19.801,69.7592,-0.144704
19.829,69.7592,-0.144704
19.861,69.7592,-0.144704
19.891,69.7592,-0.142567
19.922,69.7592,-0.142567
19.953,69.7592,-0.142567
19.985,69.7592,-0.142567
20.015,69.7592,-0.142567
20.045,69.7592,-0.142567
20.076,69.7592,-0.142567
20.113,69.7592,-0.142567
20.155,69.7592,-0.140695
20.185,69.7592,-0.140695
20.217,69.7592,-0.140695
20.247,69.7592,-0.140695
20.278,69.7592,-0.140695
20.310,69.7592,-0.140695
20.340,69.7592,-0.140695
20.371,69.7592,-0.138991
20.403,69.7592,-0.138991
20.434,69.7592,-0.138991
20.465,69.7592,-0.138991
20.496,69.7592,-0.138991
20.527,69.7592,-0.138991
20.558,69.7592,-0.138991
20.592,69.7592,-0.138991
20.620,69.7592,-0.138991
20.652,69.7592,-0.137514
20.684,69.7592,-0.137514
20.715,69.7592,-0.137514
20.746,69.7592,-0.137514
20.777,69.7592,-0.137514
20.808,69.7592,-0.137514
20.839,69.7592,-0.137514
20.870,69.7592,-0.137514
20.901,69.7592,-0.136215
20.933,69.7592,-0.136215
20.963,69.7592,-0.136215
20.995,69.7592,-0.136215
21.027,69.7592,-0.136215
21.055,69.7592,-0.136215
21.092,69.7592,-0.136215
21.132,69.7592,-0.135001
21.163,69.7592,-0.135001
21.194,69.7592,-0.135001
21.230,69.7592,-0.135001
21.257,69.7592,-0.135001
21.289,69.7592,-0.135001
21.319,69.7592,-0.135001
21.350,69.7592,-0.135001
21.381,69.7592,-0.133693
21.412,69.7592,-0.133693
21.443,69.7592,-0.133693
21.474,69.7592,-0.133693
21.505,69.7592,-0.133693
21.537,69.7592,-0.133693
21.568,69.7592,-0.133693
21.599,69.7592,-0.132159
21.630,69.7592,-0.132159
21.662,69.7592,-0.132159
21.693,69.7592,-0.132159
21.723,69.7592,-0.132159
21.755,69.7592,-0.132159
21.786,69.7592,-0.132159
21.817,69.7592,-0.132159
21.847,69.7585,-0.130579
21.879,69.7571,-0.130579
21.910,69.7549,-0.130579
21.942,69.7520,-0.130579
21.973,69.7484,-0.130579
22.003,69.7442,-0.130579
22.034,69.7391,-0.130579
22.065,69.7333,-0.130579
22.096,69.7270,-0.046610
22.127,69.7198,-0.046610
22.157,69.7118,-0.046610
22.189,69.7029,-0.046610
22.221,69.6932,-0.046610
22.251,69.6833,-0.046610
22.283,69.6725,-0.046610
22.314,69.6606,-0.046610
22.351,69.6459,-0.004329
22.391,69.6287,-0.004329
22.424,69.6140,-0.004329
22.455,69.5990,-0.004329
22.485,69.5836,-0.004329
22.516,69.5672,-0.004329
22.547,69.5500,-0.004329
22.579,69.5323,-0.004329
22.610,69.5132,-0.038319
22.639,69.4953,-0.038319
22.672,69.4742,-0.038319
22.702,69.4539,-0.038319
22.734,69.4320,-0.038319
22.764,69.4103,-0.038319
22.797,69.3858,-0.038319
22.827,69.3632,-0.038319
22.859,69.3380,-0.018200
22.890,69.3132,-0.018200
22.920,69.2874,-0.018200
22.951,69.2603,-0.018200
22.982,69.2340,-0.018200
23.013,69.2064,-0.018200
23.045,69.1763,-0.018200
23.075,69.1482,-0.018200
23.106,69.1176,0.007481
23.137,69.0866,0.007481
23.167,69.0567,0.007481
23.198,69.0257,0.007481
23.232,68.9911,0.007481
23.261,68.9629,0.007481
23.292,68.9321,0.007481
23.324,68.9001,0.007481
23.354,68.8697,0.007481
23.385,68.8383,0.028438
23.416,68.8068,0.028438
23.447,68.7769,0.028438
23.478,68.7461,0.028438
23.511,68.7128,0.028438
23.539,68.6847,0.028438
23.571,68.6528,0.028438
23.601,68.6229,0.028438
23.631,68.5917,0.040098
23.664,68.5597,0.040098
23.694,68.5292,0.040098
23.725,68.4990,0.040098
23.757,68.4668,0.040098
23.788,68.4361,0.040098
23.818,68.4048,0.040098
23.849,68.3744,0.044069
23.881,68.3424,0.044069
23.912,68.3117,0.044069
23.942,68.2821,0.044069
23.973,68.2503,0.044069
24.004,68.2198,0.044069
24.035,68.1886,0.044069
24.066,68.1577,0.044069
24.097,68.1264,0.045255
24.128,68.0947,0.045255
24.159,68.0646,0.045255
24.190,68.0332,0.045255
24.222,68.0019,0.045255
24.254,67.9697,0.045255
24.283,67.9407,0.045255
24.314,67.9087,0.045255
24.347,67.8765,0.045782
24.377,67.8463,0.045782
24.409,67.8151,0.045782
24.443,67.7792,0.045782
24.470,67.7534,0.045782
24.502,67.7223,0.045782
24.532,67.6922,0.045782
24.563,67.6615,0.045782
24.593,67.6299,0.046233
24.625,67.5993,0.046233
24.656,67.5672,0.046233
24.687,67.5362,0.046233
24.718,67.5051,0.046233
24.749,67.4750,0.046233
24.780,67.4441,0.046233
24.811,67.4123,0.046233
24.842,67.3818,0.047184
24.874,67.3497,0.047184
24.906,67.3178,0.047184
24.935,67.2885,0.047184
24.966,67.2577,0.047184
24.999,67.2247,0.047184
25.028,67.1960,0.047184
25.059,67.1645,0.047184
25.089,67.1345,0.048821
25.120,67.1040,0.048821
25.152,67.0715,0.048821
25.181,67.0430,0.048821
25.212,67.0116,0.048821
25.242,66.9816,0.048821
25.274,66.9496,0.048821
25.305,66.9186,0.048821
25.335,66.8884,0.048821
25.366,66.8583,0.049470
25.398,66.8252,0.049470
25.427,66.7969,0.049470
25.458,66.7663,0.049470
25.488,66.7354,0.049470
25.520,66.7034,0.049470
25.551,66.6718,0.049470
25.583,66.6411,0.049470
25.614,66.6103,0.047033
25.644,66.5796,0.047033
25.675,66.5491,0.047033
25.706,66.5171,0.047033
25.737,66.4871,0.047033
25.767,66.4555,0.047033
25.799,66.4252,0.047033
25.831,66.3926,0.047033
25.861,66.3626,0.035854
25.892,66.3315,0.035854
25.923,66.3007,0.035854
25.954,66.2698,0.035854
25.985,66.2386,0.035854
26.016,66.2079,0.035854
26.047,66.1768,0.035854
26.078,66.1449,0.035854
26.109,66.1150,0.019865
26.140,66.0830,0.019865
26.172,66.0520,0.019865
26.203,66.0205,0.019865
26.234,65.9900,0.019865
26.265,65.9586,0.019865
26.297,65.9269,0.019865
26.328,65.8960,0.019865
26.359,65.8646,0.019865
26.389,65.8347,0.012318
26.420,65.8044,0.012318
26.451,65.7725,0.012318
26.482,65.7415,0.012318
26.514,65.7094,0.012318
26.545,65.6791,0.012318
26.576,65.6482,0.012318
26.607,65.6170,0.011547
26.639,65.5846,0.011547
26.669,65.5544,0.011547
26.700,65.5236,0.011547
26.732,65.4913,0.011547
26.762,65.4616,0.011547
26.793,65.4305,0.011547
26.825,65.3984,0.011547
26.855,65.3682,0.011321
26.886,65.3383,0.011321
26.917,65.3080,0.011321
26.947,65.2797,0.011321
26.978,65.2517,0.011321
27.009,65.2243,0.011321
27.039,65.1974,0.011321
27.070,65.1716,0.011321
27.102,65.1450,0.011095
27.132,65.1205,0.011095
27.164,65.0967,0.011095
27.194,65.0734,0.011095
27.225,65.0509,0.011095
27.256,65.0286,0.011095
27.287,65.0078,0.011095
27.318,64.9872,0.011095
27.349,64.9672,0.010869
27.381,64.9476,0.010869
27.412,64.9291,0.010869
27.444,64.9114,0.010869
27.474,64.8950,0.010869
27.505,64.8791,0.010869
27.536,64.8636,0.010869
27.567,64.8490,0.010869
27.598,64.8350,0.010700
27.630,64.8220,0.010700
27.660,64.8093,0.010700
27.691,64.7979,0.010700
27.722,64.7865,0.010700
27.754,64.7763,0.010700
27.785,64.7670,0.010700
27.816,64.7580,0.010700
27.847,64.7499,0.010530
27.878,64.7426,0.010530
27.909,64.7361,0.010530
27.941,64.7301,0.010530
27.972,64.7249,0.010530
28.002,64.7206,0.010530
28.032,64.7170,0.010530
28.063,64.7139,0.010530
28.094,64.7117,0.010427
28.125,64.7102,0.010427
28.155,64.7094,0.010427
28.189,64.7092,0.010427
28.219,64.7092,0.010427
28.250,64.7092,0.010427
28.281,64.7092,0.010427
28.313,64.7092,0.010427
28.344,64.7092,0.010427
28.374,64.7092,0.010323
28.406,64.7092,0.010323
28.436,64.7092,0.010323
28.467,64.7092,0.010323
28.499,64.7092,0.010323
28.532,64.7092,0.010323
28.561,64.7092,0.010323
28.593,64.7092,0.010286
28.624,64.7092,0.010286
28.654,64.7092,0.010286
28.685,64.7092,0.010286
28.716,64.7094,0.010286
28.748,64.7102,0.010286
28.779,64.7117,0.010286
28.810,64.7139,0.010286
28.841,64.7170,0.010286
28.872,64.7206,0.010286
28.903,64.7252,0.010220
28.934,64.7303,0.010220
28.965,64.7363,0.010220
28.997,64.7430,0.010220
29.029,64.7508,0.010220
29.060,64.7590,0.010220
29.091,64.7679,0.010220
29.121,64.7769,0.010022
29.152,64.7871,0.010022
29.183,64.7984,0.010022
29.214,64.8098,0.010022
29.245,64.8226,0.010022
29.276,64.8360,0.010022
29.307,64.8499,0.010022
29.338,64.8645,0.010022
29.369,64.8795,0.009834
29.400,64.8958,0.009834
29.430,64.9121,0.009834
29.461,64.9299,0.009834
29.492,64.9477,0.009834
29.523,64.9671,0.009834
29.555,64.9868,0.009834
29.585,65.0076,0.009834
29.617,65.0287,0.009693
29.647,65.0502,0.009693
29.679,65.0731,0.009693
29.710,65.0969,0.009693
29.741,65.1215,0.009693
29.773,65.1464,0.009693
29.804,65.1717,0.009693
29.835,65.1987,0.009693
29.866,65.2250,0.009363
29.898,65.2541,0.009363
29.928,65.2817,0.009363
29.959,65.3107,0.009363
29.990,65.3408,0.009363
30.021,65.3711,0.009363
30.051,65.4018,0.009363
30.082,65.4322,0.009363
30.112,65.4628,0.008978
30.143,65.4947,0.008978
30.175,65.5256,0.008978
30.206,65.5564,0.008978
30.236,65.5871,0.008978
30.268,65.6187,0.008978
30.298,65.6496,0.008978
30.329,65.6796,0.008978
30.361,65.7118,0.008978
30.392,65.7426,0.008629
30.423,65.7741,0.008629
30.454,65.8042,0.008629
30.485,65.8366,0.008629
30.518,65.8679,0.008629
30.547,65.8980,0.008629
30.578,65.9286,0.008629
30.610,65.9615,0.008300
30.641,65.9915,0.008300
30.672,66.0223,0.008300
30.703,66.0539,0.008300
30.735,66.0851,0.008300
30.766,66.1164,0.008300
30.796,66.1462,0.008300
30.827,66.1773,0.008300
30.857,66.2084,0.007942
30.888,66.2391,0.007942
30.920,66.2704,0.007942
30.950,66.3002,0.007942
30.981,66.3321,0.007942
31.012,66.3622,0.007942
31.043,66.3938,0.007942
31.074,66.4241,0.007942
31.104,66.4555,0.007942
31.136,66.4862,0.007481
31.166,66.5167,0.007481
31.197,66.5474,0.007481
31.230,66.5800,0.007481
31.260,66.6111,0.007481
31.288,66.6379,0.007481
31.322,66.6728,0.007481
31.354,66.7048,0.007481
31.386,66.7363,0.006917
31.416,66.7674,0.006917
31.450,66.8003,0.006917
31.478,66.8280,0.006917
31.509,66.8595,0.006917
31.540,66.8910,0.006917
31.572,66.9227,0.006917
31.601,66.9518,0.006917
31.633,66.9837,0.006258
31.663,67.0140,0.006258
31.695,67.0461,0.006258
31.726,67.0758,0.006258
31.756,67.1072,0.006258
31.788,67.1386,0.006258
31.819,67.1696,0.006258
31.850,67.2004,0.005496
31.882,67.2329,0.005496
31.913,67.2632,0.005496
31.943,67.2941,0.005496
31.976,67.3262,0.005496
32.005,67.3550,0.005496
32.036,67.3868,0.005496
32.069,67.4201,0.005496
32.097,67.4477,0.005496
32.128,67.4781,0.004413
32.158,67.5082,0.004413
32.188,67.5392,0.004413
32.221,67.5709,0.004413
32.252,67.6020,0.004413
32.282,67.6326,0.004413
32.314,67.6638,0.004413
32.346,67.6961,0.004413
32.376,67.7267,0.002898
32.406,67.7567,0.002898
32.437,67.7871,0.002898
32.468,67.8185,0.002898
32.501,67.8522,0.002898
32.531,67.8813,0.002898
32.560,67.9110,0.002898
32.593,67.9431,0.002898
32.623,67.9735,0.000565
32.654,68.0048,0.000565
32.685,68.0353,0.000565
32.716,68.0668,0.000565
32.747,68.0974,0.000565
32.778,68.1292,0.000565
32.810,68.1604,0.000565
32.840,68.1898,-0.003454
32.871,68.2216,-0.003454
32.901,68.2517,-0.003454
32.927,68.2773,-0.003454
32.963,68.3132,-0.003454
32.994,68.3447,-0.003454
33.025,68.3764,-0.003454
33.057,68.4084,-0.003454
33.089,68.4399,-0.010370
33.119,68.4706,-0.010370
33.150,68.5009,-0.010370
33.181,68.5311,-0.010370
33.212,68.5633,-0.010370
33.243,68.5939,-0.010370
33.273,68.6243,-0.010370
33.305,68.6554,-0.010370
33.336,68.6865,-0.021842
33.367,68.7172,-0.021842
33.399,68.7494,-0.021842
33.430,68.7802,-0.021842
33.461,68.8112,-0.021842
33.490,68.8412,-0.021842
33.522,68.8732,-0.021842
33.554,68.9041,-0.021842
33.586,68.9364,-0.021842
33.617,68.9672,-0.039947
33.648,68.9992,-0.039947
33.679,69.0293,-0.039947
33.710,69.0603,-0.039947
33.741,69.0906,-0.039947
33.771,69.1197,-0.039947
33.803,69.1500,-0.039947
33.833,69.1769,-0.066616
33.865,69.2046,-0.066616
33.896,69.2315,-0.066616
33.929,69.2590,-0.066616
33.958,69.2825,-0.066616
33.989,69.3073,-0.066616
34.020,69.3308,-0.066616
34.051,69.3542,-0.066616
34.082,69.3764,-0.066616
34.113,69.3981,-0.099421
34.145,69.4198,-0.099421
34.176,69.4397,-0.099421
34.207,69.4597,-0.099421
34.239,69.4789,-0.099421
34.270,69.4969,-0.099421
34.300,69.5135,-0.099421
34.332,69.5306,-0.099421
34.363,69.5463,-0.137627
34.394,69.5610,-0.137627
34.425,69.5757,-0.137627
34.456,69.5891,-0.137627
34.487,69.6020,-0.137627
34.518,69.6139,-0.137627
34.549,69.6256,-0.137627
34.580,69.6361,-0.137627
34.611,69.6462,-0.202634
34.644,69.6560,-0.202634
34.672,69.6637,-0.202634
34.703,69.6714,-0.202634
34.735,69.6786,-0.202634
34.765,69.6848,-0.202634
34.796,69.6904,-0.202634
34.827,69.6952,-0.202634
34.858,69.6993,-0.291581
34.889,69.7028,-0.291581
34.920,69.7055,-0.291581
34.951,69.7075,-0.291581
34.982,69.7087,-0.291581
35.013,69.7092,-0.291581
35.043,69.7092,-0.291581
35.074,69.7092,-0.291581
35.105,69.7092,-0.316904
35.136,69.7092,-0.316904
35.167,69.7092,-0.316904
35.200,69.7092,-0.316904
35.228,69.7092,-0.316904
35.260,69.7092,-0.316904
35.291,69.7092,-0.316904
35.321,69.7092,-0.316904
35.351,69.7092,-0.246082
35.382,69.7092,-0.246082
35.413,69.7092,-0.246082
35.444,69.7092,-0.246082
35.470,69.7092,-0.246082
35.507,69.7092,-0.246082
35.539,69.7092,-0.246082
35.569,69.7092,-0.246082
35.600,69.7092,-0.246082
35.631,69.7092,-0.185441
35.662,69.7092,-0.185441
35.693,69.7092,-0.185441
35.725,69.7092,-0.185441
35.757,69.7092,-0.185441
35.787,69.7092,-0.185441
35.817,69.7092,-0.185441
35.849,69.7092,-0.171580
35.880,69.7092,-0.171580
35.911,69.7092,-0.171580
35.943,69.7092,-0.171580
35.975,69.7092,-0.171580
36.006,69.7092,-0.171580
36.038,69.7092,-0.171580
36.069,69.7092,-0.171580
36.100,69.7092,-0.171580
36.131,69.7092,-0.163854
36.162,69.7092,-0.163854
36.192,69.7092,-0.163854
36.223,69.7092,-0.163854
36.254,69.7092,-0.163854
36.286,69.7092,-0.163854
36.317,69.7092,-0.163854
36.348,69.7092,-0.157991
36.379,69.7092,-0.157991
36.410,69.7092,-0.157991
36.442,69.7092,-0.157991
36.473,69.7092,-0.157991
36.504,69.7092,-0.157991
36.535,69.7092,-0.157991
36.566,69.7092,-0.157991
36.597,69.7092,-0.153483
36.628,69.7092,-0.153483
36.660,69.7092,-0.153483
36.692,69.7092,-0.153483
36.722,69.7092,-0.153483
36.753,69.7092,-0.153483
36.784,69.7092,-0.153483
36.815,69.7092,-0.153483
36.847,69.7092,-0.149973
36.877,69.7092,-0.149973
36.908,69.7092,-0.149973
36.940,69.7092,-0.149973
36.973,69.7092,-0.149973
37.001,69.7092,-0.149973
37.032,69.7092,-0.149973
37.063,69.7092,-0.149973
37.099,69.7092,-0.149973
37.125,69.7092,-0.147094
37.156,69.7092,-0.147094
37.187,69.7092,-0.147094
37.218,69.7092,-0.147094
37.252,69.7092,-0.147094
37.280,69.7092,-0.147094
37.310,69.7092,-0.147094
37.342,69.7092,-0.147094
37.375,69.7092,-0.144581
37.404,69.7092,-0.144581
37.436,69.7092,-0.144581
37.467,69.7092,-0.144581
37.498,69.7092,-0.144581
37.531,69.7092,-0.144581
37.560,69.7092,-0.144581
37.594,69.7092,-0.144581
37.622,69.7092,-0.142417
37.653,69.7092,-0.142417
37.684,69.7092,-0.142417
37.715,69.7092,-0.142417
37.746,69.7092,-0.142417
37.776,69.7092,-0.142417
37.807,69.7092,-0.142417
37.839,69.7092,-0.142417
37.870,69.7092,-0.140488
37.899,69.7092,-0.140488
37.931,69.7092,-0.140488
37.964,69.7092,-0.140488
37.994,69.7092,-0.140488
38.027,69.7092,-0.140488
38.056,69.7092,-0.140488
38.087,69.7092,-0.140488
38.118,69.7092,-0.138878
38.155,69.7092,-0.138878
38.196,69.7092,-0.138878
38.228,69.7092,-0.138878
38.255,69.7092,-0.138878
38.290,69.7092,-0.138878
38.322,69.7092,-0.138878
38.354,69.7092,-0.137382
38.386,69.7092,-0.137382
38.418,69.7092,-0.137382
38.448,69.7092,-0.137382
38.479,69.7092,-0.137382
38.511,69.7092,-0.137382
38.541,69.7092,-0.137382
38.574,69.7092,-0.137382
38.603,69.7092,-0.136027
38.635,69.7092,-0.136027
38.666,69.7092,-0.136027
38.699,69.7092,-0.136027
38.730,69.7092,-0.136027
38.762,69.7092,-0.136027
38.792,69.7092,-0.136027
38.824,69.7092,-0.136027
38.854,69.7092,-0.136027
38.885,69.7092,-0.134832
38.916,69.7092,-0.134832
38.946,69.7092,-0.134832
38.978,69.7092,-0.134832
39.010,69.7092,-0.134832
39.040,69.7092,-0.134832
39.071,69.7092,-0.134832
39.102,69.7092,-0.133533
39.134,69.7092,-0.133533
39.164,69.7092,-0.133533
39.196,69.7092,-0.133533
39.227,69.7092,-0.133533
39.258,69.7092,-0.133533
39.289,69.7092,-0.133533
39.320,69.7092,-0.133533
39.351,69.7092,-0.133533
39.383,69.7092,-0.131990
39.414,69.7092,-0.131990
39.445,69.7092,-0.131990
39.477,69.7092,-0.131990
39.508,69.7092,-0.131990
39.539,69.7092,-0.131990
39.570,69.7092,-0.131990
39.601,69.7092,-0.131990
39.632,69.7092,-0.130362
39.663,69.7086,-0.130362
39.695,69.7072,-0.130362
39.725,69.7053,-0.130362
39.756,69.7024,-0.130362
39.787,69.6988,-0.130362
39.817,69.6947,-0.130362
39.849,69.6896,-0.130362
39.881,69.6838,-0.098818
39.912,69.6775,-0.098818
39.942,69.6702,-0.098818
39.973,69.6625,-0.098818
40.004,69.6538,-0.098818
40.035,69.6447,-0.098818
40.066,69.6344,-0.098818
40.097,69.6240,-0.098818
40.128,69.6124,-0.052811
40.159,69.6000,-0.052811
40.190,69.5873,-0.052811
40.221,69.5734,-0.052811
40.253,69.5587,-0.052811
40.282,69.5440,-0.052811
40.313,69.5285,-0.052811
40.344,69.5117,-0.037406
40.378,69.4929,-0.037406
40.405,69.4771,-0.037406
40.435,69.4592,-0.037406
40.468,69.4385,-0.037406
40.496,69.4196,-0.037406
40.527,69.3987,-0.037406
40.562,69.3745,-0.037406
40.589,69.3550,-0.037406
40.620,69.3321,-0.024589
40.653,69.3068,-0.024589
40.681,69.2845,-0.024589
40.711,69.2600,-0.024589
40.743,69.2336,-0.024589
40.774,69.2068,-0.024589
40.805,69.1797,-0.024589
40.836,69.1509,0.001233
40.867,69.1225,0.001233
40.897,69.0935,0.001233
40.928,69.0636,0.001233
40.959,69.0326,0.001233
40.991,69.0007,0.001233
41.022,68.9696,0.001233
41.054,68.9374,0.001233
41.084,68.9078,0.001233
41.115,68.8759,0.024420
41.146,68.8455,0.024420
41.177,68.8139,0.024420
41.210,68.7812,0.024420
41.239,68.7516,0.024420
41.271,68.7213,0.024420
41.302,68.6891,0.024420
41.334,68.6579,0.024420
41.364,68.6270,0.024420
41.394,68.5970,0.038893
41.427,68.5644,0.038893
41.462,68.5293,0.038893
41.489,68.5027,0.038893
41.520,68.4720,0.038893
41.550,68.4415,0.038893
41.581,68.4096,0.038893
41.612,68.3793,0.044671
41.643,68.3482,0.044671
41.675,68.3169,0.044671
41.709,68.2828,0.044671
41.736,68.2552,0.044671
41.769,68.2227,0.044671
41.798,68.1939,0.044671
41.829,68.1620,0.044671
41.860,68.1317,0.044671
41.891,68.1008,0.046318
41.921,68.0703,0.046318
41.951,68.0399,0.046318
41.982,68.0090,0.046318
42.013,67.9782,0.046318
42.044,67.9482,0.046318
42.075,67.9159,0.046318
42.106,67.8861,0.046318
42.137,67.8541,0.046751
42.169,67.8230,0.046751
42.200,67.7915,0.046751
42.230,67.7621,0.046751
42.261,67.7299,0.046751
42.293,67.6991,0.046751
42.324,67.6673,0.046751
42.356,67.6356,0.046920
42.388,67.6033,0.046920
42.417,67.5743,0.046920
42.449,67.5425,0.046920
42.480,67.5113,0.046920
42.511,67.4807,0.046920
42.542,67.4498,0.046920
42.572,67.4195,0.046920
42.602,67.3894,0.046920
42.633,67.3591,0.046920
42.664,67.3275,0.047457
42.696,67.2955,0.047457
42.727,67.2645,0.047457
42.758,67.2342,0.047457
42.787,67.2045,0.047457
42.819,67.1733,0.047457
42.853,67.1386,0.047457
42.881,67.1103,0.048859
42.911,67.0804,0.048859
42.942,67.0496,0.048859
42.973,67.0190,0.048859
43.004,66.9880,0.048859
43.034,66.9570,0.048859
43.065,66.9266,0.048859
43.096,66.8944,0.048859
43.127,66.8650,0.050035
43.158,66.8326,0.050035
43.188,66.8031,0.050035
43.214,66.7776,0.050035
43.250,66.7414,0.050035
43.283,66.7090,0.050035
43.313,66.6783,0.050035
43.344,66.6470,0.050035
43.376,66.6162,0.048652
43.406,66.5861,0.048652
43.436,66.5559,0.048652
43.467,66.5242,0.048652
43.498,66.4929,0.048652
43.529,66.4630,0.048652
43.560,66.4317,0.048652
43.591,66.4008,0.048652
43.622,66.3698,0.046054
43.654,66.3378,0.046054
43.685,66.3069,0.046054
43.716,66.2756,0.046054
43.747,66.2451,0.046054
43.783,66.2089,0.046054
43.808,66.1837,0.046054
43.839,66.1525,0.046054
43.870,66.1217,0.030113
43.901,66.0901,0.030113
43.932,66.0592,0.030113
43.964,66.0275,0.030113
43.996,65.9961,0.030113
44.028,65.9638,0.030113
44.058,65.9336,0.030113
44.089,65.9026,0.030113
44.120,65.8719,0.013598
44.150,65.8409,0.013598
44.182,65.8097,0.013598
44.213,65.7789,0.013598
44.244,65.7482,0.013598
44.275,65.7173,0.013598
44.305,65.6870,0.013598
44.337,65.6545,0.013598
44.368,65.6234,0.013598
44.399,65.5928,0.011801
44.431,65.5613,0.011801
44.463,65.5289,0.011801
44.492,65.4996,0.011801
44.523,65.4687,0.011801
44.553,65.4384,0.011801
44.585,65.4065,0.011801
44.615,65.3767,0.011452
44.647,65.3445,0.011452
44.679,65.3125,0.011452
44.709,65.2831,0.011452
44.740,65.2537,0.011452
44.771,65.2245,0.011452
44.803,65.1958,0.011452
44.834,65.1677,0.011452
44.864,65.1401,0.011452
44.895,65.1157,0.011198
44.926,65.0894,0.011198
44.957,65.0657,0.011198
44.988,65.0409,0.011198
45.019,65.0183,0.011198
45.050,64.9962,0.011198
45.080,64.9746,0.011198
45.112,64.9532,0.010925
45.142,64.9327,0.010925
45.173,64.9136,0.010925
45.205,64.8940,0.010925
45.235,64.8769,0.010925
45.265,64.8594,0.010925
45.296,64.8433,0.010925
45.327,64.8273,0.010925
45.357,64.8124,0.010737
45.388,64.7973,0.010737
45.419,64.7841,0.010737
45.449,64.7714,0.010737
45.481,64.7585,0.010737
45.511,64.7471,0.010737
45.543,64.7360,0.010737
45.573,64.7260,0.010737
45.606,64.7162,0.010558
45.636,64.7074,0.010558
45.667,64.6994,0.010558
45.699,64.6920,0.010558
45.730,64.6854,0.010558
45.761,64.6796,0.010558
45.793,64.6744,0.010558
45.824,64.6700,0.010558
45.854,64.6664,0.010558
45.886,64.6636,0.010417
45.917,64.6615,0.010417
45.948,64.6600,0.010417
45.979,64.6594,0.010417
46.010,64.6592,0.010417
46.041,64.6592,0.010417
46.073,64.6592,0.010417
46.104,64.6592,0.010417
46.135,64.6592,0.010351
46.166,64.6592,0.010351
46.197,64.6592,0.010351
46.228,64.6592,0.010351
46.259,64.6592,0.010351
46.290,64.6592,0.010351
46.323,64.6592,0.010351
46.353,64.6592,0.010295
46.384,64.6592,0.010295
46.415,64.6592,0.010295
46.446,64.6594,0.010295
46.477,64.6601,0.010295
46.508,64.6616,0.010295
46.540,64.6638,0.010295
46.571,64.6667,0.010295
46.601,64.6704,0.010295
46.633,64.6749,0.010248
46.664,64.6801,0.010248
46.695,64.6858,0.010248
46.726,64.6925,0.010248
46.757,64.6998,0.010248
46.788,64.7079,0.010248
46.819,64.7164,0.010248
46.849,64.7260,0.010248
46.882,64.7365,0.010107
46.913,64.7473,0.010107
46.943,64.7591,0.010107
46.974,64.7717,0.010107
47.006,64.7848,0.010107
47.036,64.7984,0.010107
47.067,64.8129,0.010107
47.099,64.8284,0.009881
47.131,64.8457,0.009881
47.160,64.8609,0.009881
47.192,64.8789,0.009881
47.222,64.8970,0.009881
47.255,64.9168,0.009881
47.285,64.9358,0.009881
47.319,64.9586,0.009881
47.347,64.9772,0.009881
47.378,65.0001,0.009683
47.409,65.0224,0.009683
47.441,65.0457,0.009683
47.471,65.0698,0.009683
47.502,65.0944,0.009683
47.534,65.1210,0.009683
47.565,65.1470,0.009683
47.597,65.1747,0.009382
47.628,65.2020,0.009382
47.659,65.2304,0.009382
47.690,65.2605,0.009382
47.721,65.2898,0.009382
47.752,65.3212,0.009382
47.783,65.3513,0.009382
47.815,65.3840,0.009382
47.846,65.4142,0.008996
47.877,65.4461,0.008996
47.907,65.4761,0.008996
47.938,65.5076,0.008996
47.969,65.5378,0.008996
48.001,65.5702,0.008996
48.030,65.5991,0.008996
48.063,65.6322,0.008996
48.092,65.6604,0.008996
48.123,65.6919,0.008695
48.154,65.7230,0.008695
48.184,65.7535,0.008695
48.216,65.7851,0.008695
48.248,65.8169,0.008695
48.278,65.8476,0.008695
48.309,65.8775,0.008695
48.340,65.9094,0.008272
48.372,65.9412,0.008272
48.403,65.9725,0.008272
48.435,66.0040,0.008272
48.465,66.0349,0.008272
48.497,66.0654,0.008272
48.528,66.0966,0.008272
48.558,66.1271,0.008272
48.589,66.1582,0.007839
48.621,66.1902,0.007839
48.652,66.2211,0.007839
48.683,66.2513,0.007839
48.713,66.2821,0.007839
48.744,66.3126,0.007839
48.775,66.3431,0.007839
48.805,66.3741,0.007839
48.836,66.4043,0.007839
48.866,66.4354,0.007406
48.897,66.4654,0.007406
48.928,66.4978,0.007406
48.961,66.5300,0.007406
48.990,66.5590,0.007406
49.021,66.5902,0.007406
49.052,66.6207,0.007406
49.082,66.6511,0.007406
49.113,66.6818,0.007406
49.144,66.7125,0.006870
49.174,66.7432,0.006870
49.205,66.7746,0.006870
49.236,66.8050,0.006870
49.267,66.8367,0.006870
49.298,66.8669,0.006870
49.329,66.8986,0.006870
49.360,66.9292,0.006267
49.392,66.9610,0.006267
49.423,66.9924,0.006267
49.454,67.0238,0.006267
49.486,67.0545,0.006267
49.517,67.0858,0.006267
49.547,67.1160,0.006267
49.579,67.1481,0.006267
49.609,67.1779,0.005430
49.641,67.2097,0.005430
49.672,67.2412,0.005430
49.704,67.2730,0.005430
49.735,67.3038,0.005430
49.767,67.3360,0.005430
49.797,67.3661,0.005430
49.829,67.3976,0.005430
49.859,67.4276,0.004329
49.891,67.4592,0.004329
49.921,67.4898,0.004329
49.952,67.5215,0.004329
49.983,67.5518,0.004329
50.015,67.5833,0.004329
50.046,67.6142,0.004329
50.076,67.6449,0.004329
50.107,67.6767,0.002785
50.138,67.7066,0.002785
50.169,67.7376,0.002785
50.200,67.7690,0.002785
50.232,67.8001,0.002785
50.264,67.8328,0.002785
50.294,67.8622,0.002785
50.325,67.8943,0.002785
50.355,67.9240,0.000282
50.386,67.9552,0.000282
50.417,67.9852,0.000282
50.448,68.0168,0.000282
50.479,68.0473,0.000282
50.509,68.0782,0.000282
50.540,68.1083,0.000282
50.571,68.1393,0.000282
50.601,68.1694,-0.003971
50.632,68.2007,-0.003971
50.663,68.2322,-0.003971
50.694,68.2626,-0.003971
50.725,68.2935,-0.003971
50.756,68.3246,-0.003971
50.787,68.3560,-0.003971
50.818,68.3865,-0.003971
50.849,68.4177,-0.003971
50.880,68.4490,-0.011208
50.911,68.4795,-0.011208
50.942,68.5108,-0.011208
50.973,68.5419,-0.011208
51.005,68.5729,-0.011208
51.035,68.6034,-0.011208
51.066,68.6348,-0.011208
51.097,68.6655,-0.023150
51.128,68.6972,-0.023150
51.160,68.7285,-0.023150
51.192,68.7605,-0.023150
51.222,68.7910,-0.023150
51.253,68.8222,-0.023150
51.285,68.8536,-0.023150
51.316,68.8852,-0.023150
51.347,68.9160,-0.041829
51.379,68.9472,-0.041829
51.410,68.9782,-0.041829
51.440,69.0090,-0.041829
51.471,69.0388,-0.041829
51.502,69.0687,-0.041829
51.533,69.0984,-0.041829
51.563,69.1255,-0.041829
51.594,69.1521,-0.069006
51.625,69.1794,-0.069006
51.656,69.2056,-0.069006
51.689,69.2320,-0.069006
51.718,69.2556,-0.069006
51.750,69.2800,-0.069006
51.780,69.3024,-0.069006
51.811,69.3251,-0.069006
51.843,69.3471,-0.101980
51.874,69.3682,-0.101980
51.905,69.3888,-0.101980
51.936,69.4082,-0.101980
51.968,69.4268,-0.101980
51.999,69.4448,-0.101980
52.029,69.4619,-0.101980
52.060,69.4785,-0.101980
52.092,69.4947,-0.140939
52.123,69.5101,-0.140939
52.155,69.5244,-0.140939
52.186,69.5385,-0.140939
52.217,69.5512,-0.140939
52.248,69.5636,-0.140939
52.279,69.5749,-0.140939
52.310,69.5856,-0.140939
52.341,69.5956,-0.208252
52.375,69.6058,-0.208252
52.404,69.6136,-0.208252
52.434,69.6212,-0.208252
52.465,69.6282,-0.208252
52.496,69.6346,-0.208252
52.527,69.6403,-0.208252
52.557,69.6450,-0.208252
52.588,69.6493,-0.296277
52.620,69.6527,-0.296277
52.651,69.6555,-0.296277
52.683,69.6575,-0.296277
52.714,69.6588,-0.296277
52.745,69.6593,-0.296277
52.777,69.6593,-0.296277
52.807,69.6593,-0.296277
52.839,69.6593,-0.296277
52.869,69.6593,-0.311239
52.902,69.6593,-0.311239
52.931,69.6593,-0.311239
52.962,69.6593,-0.311239
52.994,69.6593,-0.311239
53.021,69.6593,-0.311239
53.056,69.6593,-0.311239
53.087,69.6593,-0.311239
53.118,69.6593,-0.311239
53.149,69.6593,-0.237857
53.180,69.6593,-0.237857
53.211,69.6593,-0.237857
53.242,69.6593,-0.237857
53.273,69.6593,-0.237857
53.304,69.6593,-0.237857
53.334,69.6593,-0.237857
53.365,69.6593,-0.237857
53.396,69.6593,-0.183380
53.427,69.6593,-0.183380
53.458,69.6593,-0.183380
53.488,69.6593,-0.183380
53.519,69.6593,-0.183380
53.550,69.6593,-0.183380
53.583,69.6593,-0.183380
53.612,69.6593,-0.170366
53.644,69.6593,-0.170366
53.675,69.6593,-0.170366
53.706,69.6593,-0.170366
53.736,69.6593,-0.170366
53.767,69.6593,-0.170366
53.798,69.6593,-0.170366
53.830,69.6593,-0.170366
53.861,69.6593,-0.170366
53.891,69.6593,-0.170366
53.923,69.6593,-0.162753
53.954,69.6593,-0.162753
53.985,69.6593,-0.162753
54.016,69.6593,-0.162753
54.046,69.6593,-0.162753
54.077,69.6593,-0.162753
54.104,69.6593,-0.157050
54.140,69.6593,-0.157050
54.170,69.6593,-0.157050
54.200,69.6593,-0.157050
54.230,69.6593,-0.157050
54.262,69.6593,-0.157050
54.292,69.6593,-0.157050
54.324,69.6593,-0.157050
54.354,69.6593,-0.152721
54.386,69.6593,-0.152721
54.417,69.6593,-0.152721
54.448,69.6593,-0.152721
54.481,69.6593,-0.152721
54.511,69.6593,-0.152721
54.542,69.6593,-0.152721
54.573,69.6593,-0.152721
54.604,69.6593,-0.152721
54.635,69.6593,-0.149239
54.666,69.6593,-0.149239
54.697,69.6593,-0.149239
54.728,69.6593,-0.149239
54.759,69.6593,-0.149239
54.790,69.6593,-0.149239
54.824,69.6593,-0.149239
54.852,69.6593,-0.146388
54.884,69.6593,-0.146388
54.914,69.6593,-0.146388
54.945,69.6593,-0.146388
54.976,69.6593,-0.146388
55.009,69.6593,-0.146388
55.038,69.6593,-0.146388
55.069,69.6593,-0.146388
55.100,69.6593,-0.146388
55.132,69.6593,-0.143951
55.165,69.6593,-0.143951
55.194,69.6593,-0.143951
55.226,69.6593,-0.143951
55.257,69.6593,-0.143951
55.288,69.6593,-0.143951
55.320,69.6593,-0.143951
55.352,69.6593,-0.143951
55.382,69.6593,-0.141805
55.414,69.6593,-0.141805
55.446,69.6593,-0.141805
55.477,69.6593,-0.141805
55.509,69.6593,-0.141805
55.541,69.6593,-0.141805
55.571,69.6593,-0.141805
55.602,69.6593,-0.139998
55.633,69.6593,-0.139998
55.664,69.6593,-0.139998
55.695,69.6593,-0.139998
55.725,69.6593,-0.139998
55.756,69.6593,-0.139998
55.787,69.6593,-0.139998
55.820,69.6593,-0.139998
55.849,69.6593,-0.138361
55.883,69.6593,-0.138361
55.911,69.6593,-0.138361
55.943,69.6593,-0.138361
55.973,69.6593,-0.138361
56.004,69.6593,-0.138361
56.034,69.6593,-0.138361
56.064,69.6593,-0.138361
56.096,69.6593,-0.136855
56.132,69.6593,-0.136855
56.159,69.6593,-0.136855
56.190,69.6593,-0.136855
56.220,69.6593,-0.136855
56.250,69.6593,-0.136855
56.282,69.6593,-0.136855
56.312,69.6593,-0.136855
56.343,69.6593,-0.135557
56.375,69.6593,-0.135557
56.406,69.6593,-0.135557
56.437,69.6593,-0.135557
56.467,69.6593,-0.135557
56.499,69.6593,-0.135557
56.530,69.6593,-0.135557
56.560,69.6593,-0.135557
56.591,69.6593,-0.134314
56.622,69.6593,-0.134314
56.653,69.6593,-0.134314
56.689,69.6593,-0.134314
56.715,69.6593,-0.134314
56.746,69.6593,-0.134314
56.777,69.6593,-0.134314
56.807,69.6593,-0.134314
56.838,69.6593,-0.133072
56.868,69.6593,-0.133072
56.899,69.6593,-0.133072
56.930,69.6593,-0.133072
56.961,69.6593,-0.133072
56.992,69.6593,-0.133072
57.023,69.6593,-0.133072
57.053,69.6593,-0.133072
57.084,69.6593,-0.131604
57.116,69.6593,-0.131604
57.147,69.6593,-0.131604
57.178,69.6593,-0.131604
57.209,69.6593,-0.131604
57.240,69.6593,-0.131604
57.271,69.6593,-0.131604
57.302,69.6593,-0.131604
57.333,69.6593,-0.131604
57.364,69.6593,-0.130033
57.395,69.6593,-0.130033
57.426,69.6590,-0.130033
57.457,69.6581,-0.130033
57.489,69.6563,-0.130033
57.520,69.6539,-0.130033
57.552,69.6506,-0.130033
57.583,69.6467,-0.130033
57.614,69.6420,-0.113997
57.645,69.6368,-0.113997
57.677,69.6305,-0.113997
57.708,69.6238,-0.113997
57.738,69.6163,-0.113997
57.769,69.6080,-0.113997
57.799,69.5993,-0.113997
57.830,69.5894,-0.113997
57.862,69.5790,-0.113997
57.892,69.5678,-0.063059
57.923,69.5563,-0.063059
57.955,69.5435,-0.063059
57.986,69.5300,-0.063059
58.016,69.5159,-0.063059
58.047,69.5015,-0.063059
58.079,69.4855,-0.063059
58.109,69.4700,-0.033426
58.140,69.4525,-0.033426
58.172,69.4348,-0.033426
58.203,69.4159,-0.033426
58.234,69.3964,-0.033426
58.265,69.3769,-0.033426
58.298,69.3547,-0.033426
58.327,69.3349,-0.033426
58.358,69.3130,-0.027224
58.388,69.2900,-0.027224
58.419,69.2671,-0.027224
58.450,69.2425,-0.027224
58.481,69.2180,-0.027224
58.513,69.1911,-0.027224
58.545,69.1640,-0.027224
58.576,69.1374,-0.027224
58.606,69.1100,-0.001835
58.637,69.0811,-0.001835
58.668,69.0519,-0.001835
58.699,69.0220,-0.001835
58.732,68.9893,-0.001835
58.760,68.9614,-0.001835
58.792,68.9286,-0.001835
58.824,68.8971,-0.001835
58.856,68.8655,0.021663
58.886,68.8355,0.021663
58.916,68.8046,0.021663
58.947,68.7742,0.021663
58.978,68.7431,0.021663
59.009,68.7128,0.021663
59.040,68.6816,0.021663
59.071,68.6504,0.021663
59.102,68.6194,0.021663
59.133,68.5877,0.036926
59.163,68.5583,0.036926
59.195,68.5264,0.036926
59.226,68.4952,0.036926
59.257,68.4647,0.036926
59.287,68.4330,0.036926
59.319,68.4022,0.036926
59.350,68.3704,0.036926
59.381,68.3404,0.043335
59.411,68.3100,0.043335
59.443,68.2786,0.043335
59.474,68.2475,0.043335
59.505,68.2167,0.043335
59.536,68.1852,0.043335
59.567,68.1545,0.043335
59.598,68.1228,0.043335
59.629,68.0923,0.045339
59.659,68.0616,0.045339
59.691,68.0307,0.045339
59.721,67.9997,0.045339
59.752,67.9687,0.045339
59.784,67.9362,0.045339
59.815,67.9063,0.045339
59.846,67.8749,0.045339
59.877,67.8444,0.045979
59.907,67.8134,0.045979
59.939,67.7825,0.045979
59.974,67.7456,0.045979
60.016,67.7050,0.045979
60.046,67.6748,0.045979
60.077,67.6442,0.045979
60.108,67.6126,0.046252
60.140,67.5809,0.046252
60.171,67.5496,0.046252
60.202,67.5187,0.046252
60.232,67.4880,0.046252
60.264,67.4566,0.046252
60.295,67.4262,0.046252
60.327,67.3936,0.046252
60.356,67.3648,0.046911
60.390,67.3305,0.046911
60.418,67.3034,0.046911
60.449,67.2713,0.046911
60.480,67.2409,0.046911
60.511,67.2100,0.046911
60.541,67.1800,0.046911
60.573,67.1478,0.046911
60.603,67.1180,0.046911
60.634,67.0868,0.048473
60.665,67.0561,0.048473
60.695,67.0264,0.048473
60.726,66.9949,0.048473
60.758,66.9632,0.048473
60.789,66.9326,0.048473
60.820,66.9005,0.048473
60.851,66.8701,0.049997
60.882,66.8392,0.049997
60.913,66.8078,0.049997
60.944,66.7779,0.049997
60.975,66.7468,0.049997
61.004,66.7168,0.049997
61.036,66.6855,0.049997
61.067,66.6538,0.049997
61.098,66.6237,0.048718
61.130,66.5914,0.048718
61.161,66.5607,0.048718
61.192,66.5296,0.048718
61.222,66.4993,0.048718
61.253,66.4680,0.048718
61.283,66.4380,0.048718
61.314,66.4069,0.048718
61.346,66.3759,0.044991
61.377,66.3434,0.044991
61.408,66.3132,0.044991
61.440,66.2812,0.044991
61.470,66.2513,0.044991
61.501,66.2197,0.044991
61.532,66.1899,0.044991
61.562,66.1588,0.044991
61.594,66.1271,0.028993
61.624,66.0971,0.028993
61.655,66.0663,0.028993
61.686,66.0352,0.028993
61.717,66.0040,0.028993
61.749,65.9720,0.028993
61.779,65.9419,0.028993
61.811,65.9108,0.028993
61.842,65.8796,0.013542
61.873,65.8478,0.013542
61.903,65.8177,0.013542
61.935,65.7869,0.013542
61.966,65.7555,0.013542
61.997,65.7242,0.013542
62.028,65.6935,0.013542
62.059,65.6625,0.013542
62.090,65.6317,0.011829
62.120,65.6005,0.011829
62.151,65.5703,0.011829
62.182,65.5397,0.011829
62.213,65.5084,0.011829
62.244,65.4778,0.011829
62.274,65.4472,0.011829
62.305,65.4163,0.011829
62.336,65.3848,0.011424
62.369,65.3523,0.011424
62.398,65.3235,0.011424
62.430,65.2910,0.011424
62.461,65.2603,0.011424
62.492,65.2295,0.011424
62.524,65.1990,0.011424
62.555,65.1697,0.011424
62.586,65.1419,0.011424
62.617,65.1152,0.011245
62.646,65.0894,0.011245
62.677,65.0637,0.011245
62.707,65.0390,0.011245
62.738,65.0133,0.011245
62.769,64.9903,0.011245
62.800,64.9666,0.011245
62.831,64.9449,0.011245
62.862,64.9229,0.011038
62.894,64.9015,0.011038
62.925,64.8814,0.011038
62.960,64.8593,0.011038
62.987,64.8429,0.011038
63.018,64.8246,0.011038
63.049,64.8072,0.011038
63.081,64.7903,0.010813
63.112,64.7742,0.010813
63.142,64.7593,0.010813
63.176,64.7440,0.010813
63.205,64.7311,0.010813
63.236,64.7179,0.010813
63.267,64.7058,0.010813
63.298,64.6942,0.010813
63.329,64.6837,0.010813
63.361,64.6733,0.010662
63.391,64.6645,0.010662
63.422,64.6555,0.010662
63.453,64.6478,0.010662
63.485,64.6404,0.010662
63.516,64.6342,0.010662
63.548,64.6284,0.010662
63.576,64.6238,0.010662
63.608,64.6194,0.010662
63.638,64.6161,0.010511
63.669,64.6132,0.010511
63.700,64.6111,0.010511
63.731,64.6098,0.010511
63.761,64.6091,0.010511
63.792,64.6091,0.010511
63.823,64.6091,0.010511
63.856,64.6091,0.010511
63.886,64.6091,0.010511
63.916,64.6091,0.010361
63.947,64.6091,0.010361
63.979,64.6091,0.010361
64.011,64.6091,0.010361
64.042,64.6091,0.010361
64.073,64.6091,0.010361
64.109,64.6091,0.010361
64.134,64.6091,0.010323
64.166,64.6091,0.010323
64.196,64.6091,0.010323
64.227,64.6096,0.010323
64.258,64.6109,0.010323
64.289,64.6127,0.010323
64.320,64.6153,0.010323
64.351,64.6188,0.010323
64.381,64.6229,0.010295
64.413,64.6279,0.010295
64.444,64.6333,0.010295
64.474,64.6394,0.010295
64.506,64.6467,0.010295
64.536,64.6543,0.010295
64.567,64.6626,0.010295
64.603,64.6734,0.010295
64.629,64.6818,0.010295
64.660,64.6925,0.010144
64.690,64.7036,0.010144
64.721,64.7157,0.010144
64.752,64.7283,0.010144
64.783,64.7420,0.010144
64.814,64.7561,0.010144
64.849,64.7733,0.010144
64.877,64.7877,0.010144
64.907,64.8032,0.010144
64.937,64.8205,0.009975
64.969,64.8382,0.009975
65.001,64.8574,0.009975
65.031,64.8765,0.009975
65.062,64.8968,0.009975
65.093,64.9173,0.009749
65.125,64.9398,0.009749
65.157,64.9624,0.009749
65.188,64.9858,0.009749
65.219,65.0095,0.009749
65.250,65.0339,0.009749
65.280,65.0581,0.009749
65.311,65.0845,0.009749
65.343,65.1114,0.009749
65.374,65.1390,0.009439
65.406,65.1686,0.009439
65.437,65.1964,0.009439
65.468,65.2262,0.009439
65.499,65.2572,0.009439
65.531,65.2884,0.009439
65.561,65.3191,0.009439
65.593,65.3507,0.009439
65.623,65.3803,0.009043
65.654,65.4122,0.009043
65.685,65.4423,0.009043
65.717,65.4748,0.009043
65.747,65.5047,0.009043
65.777,65.5345,0.009043
65.807,65.5656,0.009043
65.839,65.5966,0.009043
65.869,65.6274,0.008695
65.900,65.6583,0.008695
65.931,65.6890,0.008695
65.962,65.7204,0.008695
65.993,65.7503,0.008695
66.024,65.7823,0.008695
66.055,65.8125,0.008695
66.086,65.8439,0.008695
66.117,65.8749,0.008328
66.148,65.9063,0.008328
66.179,65.9373,0.008328
66.210,65.9682,0.008328
66.241,65.9992,0.008328
66.273,66.0312,0.008328
66.304,66.0612,0.008328
66.336,66.0938,0.008328
66.367,66.1241,0.007886
66.399,66.1581,0.007886
66.429,66.1866,0.007886
66.460,66.2180,0.007886
66.490,66.2481,0.007886
66.521,66.2795,0.007886
66.552,66.3102,0.007886
66.583,66.3410,0.007886
66.615,66.3729,0.007453
66.646,66.4040,0.007453
66.677,66.4345,0.007453
66.708,66.4654,0.007453
66.739,66.4964,0.007453
66.770,66.5280,0.007453
66.801,66.5590,0.007453
66.833,66.5910,0.007453
66.864,66.6212,0.006945
66.895,66.6527,0.006945
66.926,66.6834,0.006945
66.958,66.7157,0.006945
66.988,66.7454,0.006945
67.019,66.7767,0.006945
67.049,66.8067,0.006945
67.079,66.8373,0.006945
67.110,66.8676,0.006286
67.141,66.8989,0.006286
67.172,66.9294,0.006286
67.203,66.9604,0.006286
67.233,66.9911,0.006286
67.265,67.0229,0.006286
67.296,67.0534,0.006286
67.326,67.0843,0.006286
67.358,67.1158,0.005533
67.388,67.1460,0.005533
67.419,67.1766,0.005533
67.450,67.2083,0.005533
67.482,67.2393,0.005533
67.513,67.2711,0.005533
67.543,67.3011,0.005533
67.574,67.3320,0.005533
67.605,67.3631,0.005533
67.637,67.3946,0.004526
67.668,67.4252,0.004526
67.699,67.4575,0.004526
67.731,67.4888,0.004526
67.761,67.5194,0.004526
67.792,67.5499,0.004526
67.823,67.5817,0.004526
67.854,67.6121,0.002955
67.886,67.6434,0.002955
67.916,67.6741,0.002955
67.948,67.7063,0.002955
67.978,67.7361,0.002955
68.009,67.7676,0.002955
68.040,67.7980,0.002955
68.076,67.8342,0.002955
68.102,67.8593,0.002955
68.133,67.8910,0.000518
68.164,67.9212,0.000518
68.195,67.9529,0.000518
68.225,67.9830,0.000518
68.257,68.0147,0.000518
68.289,68.0461,0.000518
68.319,68.0773,0.000518
68.349,68.1071,-0.003585
68.381,68.1390,-0.003585
68.412,68.1690,-0.003585
68.443,68.2009,-0.003585
68.474,68.2312,-0.003585
68.507,68.2657,-0.003585
68.536,68.2931,-0.003585
68.567,68.3244,-0.003585
68.597,68.3544,-0.010643
68.628,68.3860,-0.010643
68.659,68.4175,-0.010643
68.689,68.4469,-0.010643
68.720,68.4777,-0.010643
68.751,68.5084,-0.010643
68.782,68.5392,-0.010643
68.813,68.5703,-0.010643
68.844,68.6015,-0.022350
68.876,68.6341,-0.022350
68.907,68.6642,-0.022350
68.938,68.6960,-0.022350
68.969,68.7270,-0.022350
69.000,68.7577,-0.022350
69.031,68.7882,-0.022350
69.062,68.8200,-0.022350
69.093,68.8504,-0.040643
69.124,68.8817,-0.040643
69.155,68.9120,-0.040643
69.185,68.9435,-0.040643
69.216,68.9733,-0.040643
69.247,69.0038,-0.040643
69.279,69.0339,-0.040643
69.309,69.0621,-0.040643
69.340,69.0897,-0.040643
69.371,69.1168,-0.067369
69.402,69.1434,-0.067369
69.432,69.1681,-0.067369
69.464,69.1940,-0.067369
69.496,69.2188,-0.067369
69.526,69.2413,-0.067369
69.556,69.2636,-0.067369
69.586,69.2847,-0.100155
69.619,69.3076,-0.100155
69.648,69.3264,-0.100155
69.679,69.3467,-0.100155
69.714,69.3679,-0.100155
69.742,69.3844,-0.100155
69.774,69.4029,-0.100155
69.803,69.4191,-0.100155
69.834,69.4350,-0.100155
69.865,69.4508,-0.138436
69.896,69.4653,-0.138436
69.927,69.4793,-0.138436
69.961,69.4941,-0.138436
69.989,69.5055,-0.138436
70.021,69.5179,-0.138436
70.052,69.5292,-0.138436
70.083,69.5394,-0.138436
70.115,69.5494,-0.203885
70.146,69.5585,-0.203885
70.177,69.5667,-0.203885
70.209,69.5744,-0.203885
70.238,69.5807,-0.203885
70.269,69.5868,-0.203885
70.300,69.5923,-0.203885
70.331,69.5967,-0.203885
70.362,69.6007,-0.291750
70.392,69.6037,-0.291750
70.424,69.6062,-0.291750
70.455,69.6079,-0.291750
70.486,69.6089,-0.291750
70.517,69.6091,-0.291750
70.548,69.6091,-0.291750
70.579,69.6091,-0.291750
70.611,69.6091,-0.312575
70.642,69.6091,-0.312575
70.675,69.6091,-0.312575
70.705,69.6091,-0.312575
70.735,69.6091,-0.312575
70.766,69.6091,-0.312575
70.797,69.6091,-0.312575
70.828,69.6091,-0.312575
70.859,69.6091,-0.312575
70.889,69.6091,-0.241866
70.920,69.6091,-0.241866
70.951,69.6091,-0.241866
70.984,69.6091,-0.241866
71.015,69.6091,-0.241866
71.045,69.6091,-0.241866
71.076,69.6091,-0.241866
71.106,69.6091,-0.241866
71.137,69.6091,-0.184557
71.168,69.6091,-0.184557
71.199,69.6091,-0.184557
71.230,69.6091,-0.184557
71.261,69.6091,-0.184557
71.291,69.6091,-0.184557
71.322,69.6091,-0.184557
71.353,69.6091,-0.184557
71.385,69.6091,-0.170686
71.415,69.6091,-0.170686
71.446,69.6091,-0.170686
71.477,69.6091,-0.170686
71.508,69.6091,-0.170686
71.538,69.6091,-0.170686
71.569,69.6091,-0.170686
71.601,69.6091,-0.170686
71.632,69.6091,-0.162931
71.663,69.6091,-0.162931
71.695,69.6091,-0.162931
71.726,69.6091,-0.162931
71.757,69.6091,-0.162931
71.787,69.6091,-0.162931
71.818,69.6091,-0.162931
71.849,69.6091,-0.162931
71.880,69.6091,-0.157144
71.911,69.6091,-0.157144
71.942,69.6091,-0.157144
71.973,69.6091,-0.157144
72.004,69.6091,-0.157144
72.036,69.6091,-0.157144
72.066,69.6091,-0.157144
72.097,69.6091,-0.157144
72.128,69.6091,-0.152768
72.160,69.6091,-0.152768
72.189,69.6091,-0.152768
72.221,69.6091,-0.152768
72.252,69.6091,-0.152768
72.282,69.6091,-0.152768
72.312,69.6091,-0.152768
72.343,69.6091,-0.152768
72.374,69.6091,-0.149315
72.405,69.6091,-0.149315
72.436,69.6091,-0.149315
72.468,69.6091,-0.149315
72.498,69.6091,-0.149315
72.531,69.6091,-0.149315
72.561,69.6091,-0.149315
72.593,69.6091,-0.149315
72.622,69.6091,-0.146379
72.652,69.6091,-0.146379
72.686,69.6091,-0.146379
72.714,69.6091,-0.146379
72.747,69.6091,-0.146379
72.776,69.6091,-0.146379
72.807,69.6091,-0.146379
72.839,69.6091,-0.143913
72.870,69.6091,-0.143913
72.901,69.6091,-0.143913
72.931,69.6091,-0.143913
72.962,69.6091,-0.143913
72.993,69.6091,-0.143913
73.024,69.6091,-0.143913
73.054,69.6091,-0.143913
73.086,69.6091,-0.143913
73.117,69.6091,-0.141777
73.148,69.6091,-0.141777
73.178,69.6091,-0.141777
73.209,69.6091,-0.141777
73.242,69.6091,-0.141777
73.271,69.6091,-0.141777
73.303,69.6091,-0.141777
73.334,69.6091,-0.141777
73.367,69.6091,-0.139885
73.397,69.6091,-0.139885
73.428,69.6091,-0.139885
73.460,69.6091,-0.139885
73.490,69.6091,-0.139885
73.524,69.6091,-0.139885
73.553,69.6091,-0.139885
73.585,69.6091,-0.139885
73.615,69.6091,-0.139885
73.648,69.6091,-0.138220
73.677,69.6091,-0.138220
73.709,69.6091,-0.138220
73.739,69.6091,-0.138220
73.772,69.6091,-0.138220
73.800,69.6091,-0.138220
73.831,69.6091,-0.138220
73.862,69.6091,-0.138220
73.893,69.6091,-0.136733
73.923,69.6091,-0.136733
73.954,69.6091,-0.136733
73.986,69.6091,-0.136733
74.016,69.6091,-0.136733
74.047,69.6091,-0.136733
74.078,69.6091,-0.136733
74.109,69.6091,-0.135415
74.143,69.6091,-0.135415
74.171,69.6091,-0.135415
74.202,69.6091,-0.135415
74.234,69.6091,-0.135415
74.264,69.6091,-0.135415
74.295,69.6091,-0.135415
74.326,69.6091,-0.135415
74.356,69.6091,-0.134183
74.388,69.6091,-0.134183
74.419,69.6091,-0.134183
74.450,69.6091,-0.134183
74.481,69.6091,-0.134183
74.511,69.6091,-0.134183
74.542,69.6091,-0.134183
74.573,69.6091,-0.134183
74.605,69.6091,-0.133006
74.637,69.6091,-0.133006
74.668,69.6091,-0.133006
74.699,69.6091,-0.133006
74.730,69.6091,-0.133006
74.761,69.6091,-0.133006
74.792,69.6091,-0.133006
74.822,69.6091,-0.133006
74.853,69.6091,-0.131604
74.885,69.6091,-0.131604
74.916,69.6091,-0.131604
74.947,69.6091,-0.131604
74.977,69.6091,-0.131604
75.009,69.6091,-0.131604
75.039,69.6091,-0.131604
75.070,69.6091,-0.131604
75.102,69.6091,-0.130070
75.132,69.6091,-0.130070
75.164,69.6091,-0.130070
75.194,69.6091,-0.130070
75.225,69.6091,-0.130070
75.256,69.6089,-0.130070
75.287,69.6079,-0.130070
75.317,69.6062,-0.130070
75.348,69.6039,-0.128160
75.379,69.6007,-0.128160
75.410,69.5969,-0.128160
75.443,69.5919,-0.128160
75.472,69.5869,-0.128160
75.504,69.5807,-0.128160
75.534,69.5740,-0.128160
75.564,69.5667,-0.128160
75.595,69.5588,-0.032598
75.625,69.5499,-0.032598
75.657,69.5398,-0.032598
75.688,69.5295,-0.032598
75.719,69.5186,-0.032598
75.750,69.5067,-0.032598
75.781,69.4943,-0.032598
75.812,69.4809,-0.032598
75.843,69.4670,-0.032598
75.873,69.4520,0.009015
75.904,69.4371,0.009015
75.935,69.4209,0.009015
75.966,69.4041,0.009015
75.997,69.3865,0.009015
76.027,69.3682,0.009015
76.059,69.3486,0.009015
76.089,69.3298,-0.033407
76.120,69.3085,-0.033407
76.152,69.2874,-0.033407
76.182,69.2660,-0.033407
76.213,69.2430,-0.033407
76.244,69.2196,-0.033407
76.276,69.1947,-0.033407
76.307,69.1697,-0.033407
76.338,69.1443,-0.009636
76.369,69.1183,-0.009636
76.400,69.0912,-0.009636
76.431,69.0625,-0.009636
76.461,69.0350,-0.009636
76.492,69.0060,-0.009636
76.523,68.9765,-0.009636
76.554,68.9454,-0.009636
76.585,68.9149,-0.009636
76.616,68.8830,0.015433
76.647,68.8525,0.015433
76.680,68.8182,0.015433
76.709,68.7908,0.015433
76.740,68.7591,0.015433
76.771,68.7283,0.015433
76.802,68.6968,0.015433
76.834,68.6658,0.033689
76.865,68.6347,0.033689
76.896,68.6023,0.033689
76.927,68.5728,0.033689
76.957,68.5417,0.033689
76.988,68.5107,0.033689
77.019,68.4798,0.033689
77.050,68.4485,0.033689
77.082,68.4170,0.033689
77.114,68.3857,0.042507
77.144,68.3546,0.042507
77.176,68.3240,0.042507
77.207,68.2920,0.042507
77.238,68.2613,0.042507
77.271,68.2276,0.042507
77.300,68.1991,0.042507
77.331,68.1679,0.042507
77.362,68.1380,0.045490
77.393,68.1064,0.045490
77.423,68.0753,0.045490
77.454,68.0448,0.045490
77.486,68.0137,0.045490
77.517,67.9818,0.045490
77.549,67.9511,0.045490
77.581,67.9187,0.045490
77.611,67.8879,0.046600
77.645,67.8545,0.046600
77.673,67.8266,0.046600
77.704,67.7953,0.046600
77.735,67.7637,0.046600
77.767,67.7327,0.046600
77.798,67.7013,0.046600
77.829,67.6704,0.046600
77.860,67.6399,0.046986
77.891,67.6084,0.046986
77.921,67.5784,0.046986
77.952,67.5471,0.046986
77.983,67.5166,0.046986
78.014,67.4855,0.046986
78.044,67.4546,0.046986
78.075,67.4245,0.046986
78.107,67.3916,0.046986
78.137,67.3626,0.047193
78.169,67.3308,0.047193
78.199,67.3002,0.047193
78.230,67.2687,0.047193
78.261,67.2388,0.047193
78.292,67.2068,0.047193
78.323,67.1757,0.047193
78.355,67.1437,0.047193
78.386,67.1135,0.048162
78.417,67.0828,0.048162
78.447,67.0519,0.048162
78.477,67.0226,0.048162
78.511,66.9880,0.048162
78.539,66.9604,0.048162
78.570,66.9290,0.048162
78.601,66.8984,0.048162
78.632,66.8671,0.049630
78.662,66.8369,0.049630
78.693,66.8067,0.049630
78.724,66.7751,0.049630
78.756,66.7428,0.049630
78.789,66.7108,0.049630
78.819,66.6800,0.049630
78.851,66.6482,0.049329
78.881,66.6178,0.049329
78.912,66.5879,0.049329
78.944,66.5546,0.049329
78.973,66.5263,0.049329
79.005,66.4947,0.049329
79.035,66.4648,0.049329
79.069,66.4298,0.049329
79.097,66.4018,0.049329
79.129,66.3702,0.047344
79.159,66.3408,0.047344
79.190,66.3096,0.047344
79.221,66.2786,0.047344
79.252,66.2477,0.047344
79.283,66.2157,0.047344
79.315,66.1844,0.047344
79.345,66.1543,0.033877
79.376,66.1233,0.033877
79.407,66.0925,0.033877
79.441,66.0579,0.033877
79.469,66.0300,0.033877
79.500,65.9998,0.033877
79.530,65.9691,0.033877
79.562,65.9371,0.033877
79.593,65.9067,0.016976
79.624,65.8755,0.016976
79.655,65.8442,0.016976
79.686,65.8137,0.016976
79.718,65.7814,0.016976
79.749,65.7507,0.016976
79.779,65.7201,0.016976
79.812,65.6873,0.016976
79.842,65.6575,0.016976
79.873,65.6259,0.012158
79.905,65.5949,0.012158
79.936,65.5628,0.012158
79.967,65.5320,0.012158
79.999,65.4991,0.012158
80.033,65.4658,0.012158
80.062,65.4380,0.012158
80.096,65.4030,0.012158
80.123,65.3762,0.011612
80.154,65.3451,0.011612
80.184,65.3152,0.011612
80.216,65.2841,0.011612
80.246,65.2533,0.011612
80.277,65.2227,0.011612
80.307,65.1925,0.011612
80.339,65.1622,0.011612
80.370,65.1328,0.011612
80.401,65.1039,0.011321
80.433,65.0751,0.011321
80.463,65.0489,0.011321
80.494,65.0224,0.011321
80.525,64.9976,0.011321
80.556,64.9723,0.011321
80.587,64.9483,0.011321
80.618,64.9248,0.011085
80.649,64.9013,0.011085
80.679,64.8810,0.011085
80.710,64.8592,0.011085
80.743,64.8375,0.011085
80.772,64.8186,0.011085
80.804,64.7995,0.011085
80.835,64.7809,0.011085
80.866,64.7634,0.010860
80.897,64.7462,0.010860
80.928,64.7302,0.010860
80.959,64.7148,0.010860
80.989,64.7007,0.010860
81.020,64.6868,0.010860
81.051,64.6735,0.010860
81.083,64.6609,0.010860
81.113,64.6490,0.010737
81.145,64.6378,0.010737
81.175,64.6276,0.010737
81.206,64.6183,0.010737
81.237,64.6091,0.010737
81.268,64.6010,0.010737
81.300,64.5935,0.010737
81.329,64.5871,0.010737
81.360,64.5811,0.010596
81.391,64.5758,0.010596
81.422,64.5713,0.010596
81.453,64.5673,0.010596
81.484,64.5644,0.010596
81.515,64.5619,0.010596
81.546,64.5603,0.010596
81.578,64.5594,0.010596
81.608,64.5592,0.010361
81.639,64.5592,0.010361
81.670,64.5592,0.010361
81.702,64.5592,0.010361
81.733,64.5592,0.010361
81.763,64.5592,0.010361
81.794,64.5592,0.010361
81.825,64.5592,0.010361
81.855,64.5592,0.010220
81.887,64.5592,0.010220
81.917,64.5592,0.010220
81.949,64.5592,0.010220
81.980,64.5592,0.010220
82.011,64.5592,0.010220
82.041,64.5592,0.010220
82.072,64.5592,0.010220
82.103,64.5592,0.010267
82.133,64.5592,0.010267
82.165,64.5593,0.010267
82.196,64.5599,0.010267
82.227,64.5613,0.010267
82.258,64.5635,0.010267
82.289,64.5662,0.010267
82.320,64.5700,0.010267
82.350,64.5740,0.010267
82.380,64.5791,0.010229
82.412,64.5850,0.010229
82.443,64.5915,0.010229
82.474,64.5986,0.010229
82.505,64.6067,0.010229
82.536,64.6151,0.010229
82.567,64.6246,0.010229
82.600,64.6352,0.010229
82.628,64.6455,0.010031
82.659,64.6568,0.010031
82.690,64.6690,0.010031
82.721,64.6821,0.010031
82.751,64.6953,0.010031
82.782,64.7100,0.010031
82.813,64.7249,0.010031
82.844,64.7410,0.010031
82.875,64.7573,0.010031
82.906,64.7750,0.009815
82.937,64.7928,0.009815
82.968,64.8115,0.009815
82.998,64.8304,0.009815
83.029,64.8509,0.009815
83.060,64.8716,0.009815
83.091,64.8937,0.009815
83.122,64.9156,0.009599
83.153,64.9387,0.009599
83.184,64.9625,0.009599
83.219,64.9915,0.009599
83.246,65.0135,0.009599
83.277,65.0391,0.009599
83.308,65.0651,0.009599
83.339,65.0928,0.009599
83.369,65.1206,0.009288
83.400,65.1491,0.009288
83.431,65.1785,0.009288
83.461,65.2084,0.009288
83.492,65.2393,0.009288
83.524,65.2716,0.009288
83.555,65.3023,0.009288
83.585,65.3328,0.009288
83.616,65.3630,0.008930
83.647,65.3945,0.008930
83.679,65.4261,0.008930
83.710,65.4573,0.008930
83.742,65.4891,0.008930
83.772,65.5200,0.008930
83.803,65.5507,0.008930
83.835,65.5821,0.008930
83.866,65.6131,0.008639
83.897,65.6447,0.008639
83.928,65.6756,0.008639
83.959,65.7066,0.008639
83.985,65.7330,0.008639
84.021,65.7678,0.008639
84.052,65.7991,0.008639
84.083,65.8300,0.008639
84.113,65.8613,0.008639
84.147,65.8949,0.008281
84.180,65.9270,0.008281
84.208,65.9549,0.008281
84.238,65.9863,0.008281
84.270,66.0171,0.008281
84.302,66.0504,0.008281
84.331,66.0787,0.008281
84.362,66.1092,0.007858
84.396,66.1438,0.007858
84.424,66.1711,0.007858
84.455,66.2032,0.007858
84.486,66.2332,0.007858
84.518,66.2652,0.007858
84.548,66.2952,0.007858
84.580,66.3277,0.007858
84.610,66.3575,0.007368
84.642,66.3900,0.007368
84.673,66.4201,0.007368
84.708,66.4559,0.007368
84.734,66.4816,0.007368
84.765,66.5135,0.007368
84.796,66.5430,0.007368
84.828,66.5748,0.007368
84.858,66.6047,0.006766
84.889,66.6368,0.006766
84.920,66.6678,0.006766
84.951,66.6977,0.006766
84.981,66.7286,0.006766
85.012,66.7601,0.006766
85.044,66.7908,0.006766
85.075,66.8218,0.006766
85.106,66.8528,0.006117
85.137,66.8846,0.006117
85.168,66.9151,0.006117
85.199,66.9466,0.006117
85.229,66.9763,0.006117
85.260,67.0081,0.006117
85.292,67.0391,0.006117
85.323,67.0709,0.006117
85.354,67.1018,0.005298
85.385,67.1333,0.005298
85.417,67.1640,0.005298
85.452,67.2010,0.005298
85.479,67.2257,0.005298
85.510,67.2572,0.005298
85.540,67.2876,0.005298
85.571,67.3187,0.005298
85.602,67.3492,0.005298
85.634,67.3812,0.004206
85.665,67.4121,0.004206
85.696,67.4438,0.004206
85.726,67.4733,0.004206
85.758,67.5050,0.004206
85.788,67.5354,0.004206
85.819,67.5665,0.004206
85.851,67.5977,0.002597
85.881,67.6285,0.002597
85.912,67.6604,0.002597
85.944,67.6920,0.002597
85.976,67.7227,0.002597
86.007,67.7549,0.002597
86.039,67.7858,0.002597
86.070,67.8180,0.002597
86.101,67.8483,-0.000094
86.132,67.8799,-0.000094
86.164,67.9108,-0.000094
86.194,67.9417,-0.000094
86.225,67.9722,-0.000094
86.256,68.0035,-0.000094
86.287,68.0347,-0.000094
86.317,68.0643,-0.000094
86.350,68.0971,-0.004555
86.378,68.1260,-0.004555
86.410,68.1579,-0.004555
86.440,68.1878,-0.004555
86.472,68.2195,-0.004555
86.503,68.2503,-0.004555
86.534,68.2809,-0.004555
86.565,68.3122,-0.004555
86.596,68.3437,-0.012224
86.626,68.3740,-0.012224
86.658,68.4049,-0.012224
86.689,68.4361,-0.012224
86.720,68.4675,-0.012224
86.751,68.4981,-0.012224
86.783,68.5306,-0.012224
86.813,68.5604,-0.012224
86.848,68.5951,-0.024881
86.875,68.6222,-0.024881
86.907,68.6538,-0.024881
86.937,68.6842,-0.024881
86.970,68.7172,-0.024881
86.999,68.7462,-0.024881
87.029,68.7768,-0.024881
87.061,68.8078,-0.024881
87.091,68.8386,-0.024881
87.123,68.8700,-0.044445
87.153,68.9002,-0.044445
87.184,68.9310,-0.044445
87.215,68.9605,-0.044445
87.245,68.9896,-0.044445
87.278,69.0192,-0.044445
87.307,69.0456,-0.044445
87.341,69.0753,-0.044445
87.369,69.0984,-0.044445
87.400,69.1245,-0.072432
87.431,69.1490,-0.072432
87.462,69.1728,-0.072432
87.493,69.1958,-0.072432
87.524,69.2183,-0.072432
87.555,69.2407,-0.072432
87.587,69.2623,-0.072432
87.618,69.2825,-0.072432
87.652,69.3047,-0.105603
87.679,69.3210,-0.105603
87.710,69.3390,-0.105603
87.740,69.3564,-0.105603
87.774,69.3747,-0.105603
87.802,69.3889,-0.105603
87.833,69.4044,-0.146181
87.863,69.4188,-0.146181
87.895,69.4332,-0.146181
87.926,69.4463,-0.146181
87.957,69.4585,-0.146181
87.987,69.4700,-0.146181
88.018,69.4809,-0.146181
88.049,69.4913,-0.146181
88.080,69.5009,-0.146181
88.111,69.5098,-0.216702
88.141,69.5176,-0.216702
88.173,69.5252,-0.216702
88.204,69.5318,-0.216702
88.235,69.5378,-0.216702
88.266,69.5429,-0.216702
88.297,69.5475,-0.216702
88.327,69.5511,-0.216702
88.357,69.5541,-0.216702
88.388,69.5564,-0.302732
88.419,69.5580,-0.302732
88.450,69.5589,-0.302732
88.481,69.5592,-0.302732
88.511,69.5592,-0.302732
88.542,69.5592,-0.302732
88.573,69.5592,-0.302732
88.608,69.5592,-0.302732
88.636,69.5592,-0.302506
88.666,69.5592,-0.302506
88.696,69.5592,-0.302506
88.728,69.5592,-0.302506
88.760,69.5592,-0.302506
88.790,69.5592,-0.302506
88.821,69.5592,-0.302506
88.852,69.5592,-0.302506
88.882,69.5592,-0.302506
88.913,69.5592,-0.302506
88.944,69.5592,-0.225106
88.975,69.5592,-0.225106
89.006,69.5592,-0.225106
89.037,69.5592,-0.225106
89.068,69.5592,-0.225106
89.100,69.5592,-0.180312
89.131,69.5592,-0.180312
89.162,69.5592,-0.180312
89.193,69.5592,-0.180312
89.224,69.5592,-0.180312
89.255,69.5592,-0.180312
89.286,69.5592,-0.180312
89.317,69.5592,-0.180312
89.348,69.5592,-0.180312
89.380,69.5592,-0.180312
89.411,69.5592,-0.169208
89.441,69.5592,-0.169208
89.473,69.5592,-0.169208
89.504,69.5592,-0.169208
89.535,69.5592,-0.169208
89.565,69.5592,-0.169208
89.596,69.5592,-0.169208
89.627,69.5592,-0.161717
89.659,69.5592,-0.161717
89.690,69.5592,-0.161717
89.721,69.5592,-0.161717
89.753,69.5592,-0.161717
89.785,69.5592,-0.161717
89.816,69.5592,-0.161717
89.848,69.5592,-0.161717
89.879,69.5592,-0.156259
89.911,69.5592,-0.156259
89.943,69.5592,-0.156259
89.974,69.5592,-0.156259
90.005,69.5592,-0.156259
90.036,69.5592,-0.156259
90.066,69.5592,-0.156259
90.098,69.5592,-0.156259
90.128,69.5592,-0.156259
90.159,69.5592,-0.152044
90.190,69.5592,-0.152044
90.221,69.5592,-0.152044
90.252,69.5592,-0.152044
90.284,69.5592,-0.152044
90.315,69.5592,-0.152044
90.346,69.5592,-0.152044
90.377,69.5592,-0.148628
90.408,69.5592,-0.148628
90.439,69.5592,-0.148628
90.469,69.5592,-0.148628
90.500,69.5592,-0.148628
90.532,69.5592,-0.148628
90.563,69.5592,-0.148628
90.595,69.5592,-0.145861
90.626,69.5592,-0.145861
90.657,69.5592,-0.145861
90.688,69.5592,-0.145861
90.719,69.5592,-0.145861
90.752,69.5592,-0.145861
90.781,69.5592,-0.145861
90.812,69.5592,-0.145861
90.844,69.5592,-0.145861
90.874,69.5592,-0.143471
90.905,69.5592,-0.143471
90.937,69.5592,-0.143471
90.969,69.5592,-0.143471
91.001,69.5592,-0.143471
91.032,69.5592,-0.143471
91.062,69.5592,-0.143471
91.093,69.5592,-0.141335
91.124,69.5592,-0.141335
91.155,69.5592,-0.141335
91.186,69.5592,-0.141335
91.217,69.5592,-0.141335
91.248,69.5592,-0.141335
91.279,69.5592,-0.141335
91.310,69.5592,-0.141335
91.341,69.5592,-0.141335
91.372,69.5592,-0.141335
91.404,69.5592,-0.139500
91.434,69.5592,-0.139500
91.465,69.5592,-0.139500
91.497,69.5592,-0.139500
91.527,69.5592,-0.139500
91.557,69.5592,-0.139500
91.589,69.5592,-0.139500
91.620,69.5592,-0.137872
91.651,69.5592,-0.137872
91.682,69.5592,-0.137872
91.712,69.5592,-0.137872
91.743,69.5592,-0.137872
91.774,69.5592,-0.137872
91.805,69.5592,-0.137872
91.836,69.5592,-0.137872
91.867,69.5592,-0.137872
91.897,69.5592,-0.136422
91.929,69.5592,-0.136422
91.959,69.5592,-0.136422
91.989,69.5592,-0.136422
92.020,69.5592,-0.136422
92.051,69.5592,-0.136422
92.083,69.5592,-0.136422
92.112,69.5592,-0.136422
92.143,69.5592,-0.135171
92.174,69.5592,-0.135171
92.204,69.5592,-0.135171
92.235,69.5592,-0.135171
92.266,69.5592,-0.135171
92.297,69.5592,-0.135171
92.328,69.5592,-0.135171
92.359,69.5592,-0.133994
92.390,69.5592,-0.133994
92.421,69.5592,-0.133994
92.453,69.5592,-0.133994
92.484,69.5592,-0.133994
92.515,69.5592,-0.133994
92.547,69.5592,-0.133994
92.577,69.5592,-0.133994
92.609,69.5592,-0.132611
92.640,69.5592,-0.132611
92.671,69.5592,-0.132611
92.703,69.5592,-0.132611
92.734,69.5592,-0.132611
92.764,69.5592,-0.132611
92.795,69.5592,-0.132611
92.826,69.5592,-0.132611
92.857,69.5592,-0.131106
92.890,69.5592,-0.131106
92.919,69.5592,-0.131106
92.952,69.5592,-0.131106
92.982,69.5592,-0.131106
93.013,69.5592,-0.131106
93.044,69.5592,-0.131106
93.075,69.5589,-0.131106
93.106,69.5579,-0.129562
93.138,69.5561,-0.129562
93.169,69.5537,-0.129562
93.199,69.5505,-0.129562
93.230,69.5465,-0.129562
93.260,69.5420,-0.129562
93.291,69.5368,-0.129562
93.321,69.5309,-0.129562
93.352,69.5242,-0.043674
93.383,69.5165,-0.043674
93.414,69.5083,-0.043674
93.446,69.4991,-0.043674
93.477,69.4893,-0.043674
93.507,69.4793,-0.043674
93.538,69.4683,-0.043674
93.569,69.4562,-0.043674
93.600,69.4438,-0.043674
93.631,69.4303,-0.001882
93.662,69.4162,-0.001882
93.693,69.4013,-0.001882
93.724,69.3859,-0.001882
93.756,69.3694,-0.001882
93.787,69.3522,-0.001882
93.818,69.3346,-0.001882
93.849,69.3158,-0.001882
93.880,69.2967,-0.037773
93.912,69.2766,-0.037773
93.943,69.2558,-0.037773
93.973,69.2348,-0.037773
94.005,69.2123,-0.037773
94.036,69.1892,-0.037773
94.067,69.1660,-0.037773
94.098,69.1417,-0.037773
94.130,69.1164,-0.017108
94.161,69.0901,-0.017108
94.192,69.0636,-0.017108
94.223,69.0359,-0.017108
94.254,69.0089,-0.017108
94.284,68.9805,-0.017108
94.316,68.9503,-0.017108
94.346,68.9206,-0.017108
94.378,68.8889,0.008516
94.409,68.8587,0.008516
94.440,68.8263,0.008516
94.471,68.7956,0.008516
94.503,68.7642,0.008516
94.534,68.7335,0.008516
94.565,68.7022,0.008516
94.596,68.6715,0.008516
94.627,68.6395,0.029040
94.658,68.6093,0.029040
94.690,68.5765,0.029040
94.722,68.5447,0.029040
94.753,68.5139,0.029040
94.784,68.4835,0.029040
94.815,68.4528,0.029040
94.846,68.4217,0.040248
94.877,68.3905,0.040248
94.909,68.3582,0.040248
94.939,68.3284,0.040248
94.970,68.2976,0.040248
95.000,68.2672,0.040248
95.032,68.2352,0.040248
95.063,68.2047,0.040248
95.094,68.1737,0.040248
95.125,68.1423,0.040248
95.156,68.1113,0.044106
95.187,68.0804,0.044106
95.218,68.0489,0.044106
95.249,68.0184,0.044106
95.280,67.9877,0.044106
95.311,67.9559,0.044106
95.343,67.9244,0.044106
95.374,67.8937,0.045339
95.404,67.8634,0.045339
95.435,67.8321,0.045339
95.466,67.8005,0.045339
95.497,67.7700,0.045339
95.528,67.7395,0.045339
95.560,67.7074,0.045339
95.592,67.6756,0.045339
95.623,67.6442,0.045866
95.653,67.6141,0.045866
95.685,67.5822,0.045866
95.716,67.5517,0.045866
95.746,67.5213,0.045866
95.778,67.4890,0.045866
95.809,67.4587,0.045866
95.841,67.4268,0.046214
95.872,67.3958,0.046214
95.902,67.3652,0.046214
95.933,67.3338,0.046214
95.965,67.3028,0.046214
95.995,67.2722,0.046214
96.026,67.2405,0.046214
96.057,67.2105,0.046214
96.087,67.1793,0.047174
96.119,67.1491,0.047174
96.149,67.1179,0.047174
96.181,67.0868,0.047174
96.212,67.0551,0.047174
96.243,67.0242,0.047174
96.275,66.9920,0.047174
96.306,66.9617,0.047174
96.337,66.9302,0.047174
96.367,66.9005,0.048868
96.398,66.8692,0.048868
96.429,66.8383,0.048868
96.460,66.8076,0.048868
96.491,66.7760,0.048868
96.522,66.7449,0.048868
96.557,66.7108,0.048868
96.585,66.6826,0.049386
96.616,66.6513,0.049386
96.647,66.6209,0.049386
96.678,66.5897,0.049386
96.709,66.5589,0.049386
96.739,66.5280,0.049386
96.770,66.4974,0.049386
96.802,66.4656,0.049386
96.832,66.4358,0.049386
96.863,66.4048,0.046977
96.893,66.3737,0.046977
96.926,66.3414,0.046977
96.955,66.3125,0.046977
96.986,66.2810,0.046977
97.018,66.2495,0.046977
97.048,66.2190,0.046977
97.080,66.1876,0.046977
97.111,66.1560,0.035458
97.142,66.1256,0.035458
97.173,66.0942,0.035458
97.205,66.0624,0.035458
97.235,66.0321,0.035458
97.266,66.0004,0.035458
97.297,65.9701,0.035458
97.332,65.9358,0.035458
97.360,65.9077,0.035458
97.392,65.8752,0.019432
97.425,65.8427,0.019432
97.454,65.8133,0.019432
97.484,65.7829,0.019432
97.515,65.7519,0.019432
97.547,65.7213,0.019432
97.577,65.6906,0.019432
97.608,65.6601,0.012356
97.638,65.6292,0.012356
97.672,65.5953,0.012356
97.700,65.5676,0.012356
97.731,65.5362,0.012356
97.762,65.5056,0.012356
97.792,65.4752,0.012356
97.823,65.4447,0.012356
97.855,65.4127,0.011565
97.885,65.3826,0.011565
97.917,65.3508,0.011565
97.948,65.3195,0.011565
97.979,65.2887,0.011565
98.010,65.2573,0.011565
98.042,65.2253,0.011565
98.073,65.1938,0.011565
98.103,65.1641,0.011311
98.135,65.1336,0.011311
98.166,65.1025,0.011311
98.197,65.0740,0.011311
98.228,65.0455,0.011311
98.259,65.0182,0.011311
98.290,64.9911,0.011311
98.321,64.9656,0.011311
98.352,64.9400,0.011151
98.383,64.9147,0.011151
98.415,64.8908,0.011151
98.446,64.8677,0.011151
98.476,64.8457,0.011151
98.507,64.8240,0.011151
98.538,64.8030,0.011151
98.568,64.7830,0.011151
98.600,64.7633,0.010973
98.630,64.7442,0.010973
98.662,64.7261,0.010973
98.692,64.7094,0.010973
98.723,64.6921,0.010973
98.754,64.6765,0.010973
98.785,64.6609,0.010973
98.816,64.6467,0.010973
98.848,64.6323,0.010813
98.878,64.6198,0.010813
98.909,64.6077,0.010813
98.940,64.5961,0.010813
98.971,64.5851,0.010813
99.002,64.5750,0.010813
99.033,64.5654,0.010813
99.063,64.5572,0.010813
99.094,64.5492,0.010634
99.125,64.5417,0.010634
99.156,64.5353,0.010634
99.188,64.5294,0.010634
99.218,64.5244,0.010634
99.249,64.5202,0.010634
99.280,64.5164,0.010634
99.311,64.5135,0.010634
99.343,64.5114,0.010634
99.374,64.5099,0.010464
99.405,64.5093,0.010464
99.435,64.5092,0.010464
99.466,64.5092,0.010464
99.497,64.5092,0.010464
99.527,64.5092,0.010464
99.558,64.5092,0.010464
99.589,64.5092,0.010464
99.620,64.5092,0.010464
99.652,64.5092,0.010342
99.683,64.5092,0.010342
99.713,64.5092,0.010342
99.745,64.5092,0.010342
99.776,64.5092,0.010342
99.807,64.5092,0.010342
99.839,64.5092,0.010342
99.870,64.5092,0.010314
99.908,64.5092,0.010314
99.948,64.5092,0.010314
99.978,64.5093,0.010314
100.010,64.5100,0.010314
100.041,64.5117,0.010314
100.072,64.5138,0.010314
100.103,64.5167,0.010304
100.133,64.5203,0.010304
100.165,64.5249,0.010304
100.195,64.5299,0.010304
100.226,64.5358,0.010304
100.257,64.5423,0.010304
100.289,64.5500,0.010304
100.322,64.5585,0.010304
100.352,64.5671,0.010304
100.383,64.5765,0.010116
100.414,64.5869,0.010116
100.446,64.5984,0.010116
100.476,64.6094,0.010116
100.507,64.6222,0.010116
100.538,64.6352,0.010116
100.569,64.6491,0.010116
100.600,64.6641,0.010116
100.631,64.6790,0.009853
100.662,64.6955,0.009853
100.694,64.7125,0.009853
100.725,64.7299,0.009853
100.756,64.7484,0.009853
100.786,64.7674,0.009853
100.817,64.7866,0.009853
100.848,64.8072,0.009853
100.879,64.8282,0.009655
100.910,64.8509,0.009655
100.941,64.8729,0.009655
100.973,64.8968,0.009655
101.003,64.9204,0.009655
101.034,64.9446,0.009655
101.065,64.9709,0.009655
101.091,64.9925,0.009655
101.126,65.0239,0.009392
101.158,65.0514,0.009392
101.189,65.0812,0.009392
101.220,65.1096,0.009392
101.251,65.1401,0.009392
101.281,65.1690,0.009392
101.312,65.1995,0.009392
101.342,65.2303,0.009043
101.373,65.2608,0.009043
101.405,65.2930,0.009043
101.434,65.3224,0.009043
101.466,65.3543,0.009043
101.497,65.3858,0.009043
101.529,65.4167,0.009043
101.563,65.4510,0.009043
101.590,65.4785,0.009043
101.622,65.5096,0.008761
101.653,65.5411,0.008761
101.684,65.5714,0.008761
101.715,65.6024,0.008761
101.746,65.6339,0.008761
101.777,65.6650,0.008761
101.807,65.6947,0.008761
101.838,65.7258,0.008761
101.869,65.7562,0.008441
101.900,65.7877,0.008441
101.930,65.8181,0.008441
101.962,65.8502,0.008441
101.992,65.8796,0.008441
102.024,65.9123,0.008441
102.055,65.9435,0.008441
102.086,65.9736,0.008018
102.117,66.0049,0.008018
102.147,66.0347,0.008018
102.178,66.0658,0.008018
102.209,66.0973,0.008018
102.240,66.1276,0.008018
102.271,66.1596,0.008018
102.303,66.1909,0.008018
102.335,66.2229,0.008018
102.366,66.2538,0.007528
102.397,66.2848,0.007528
102.427,66.3147,0.007528
102.459,66.3471,0.007528
102.490,66.3778,0.007528
102.522,66.4102,0.007528
102.552,66.4401,0.007528
102.584,66.4720,0.006973
102.617,66.5045,0.006973
102.645,66.5331,0.006973
102.676,66.5641,0.006973
102.707,66.5945,0.006973
102.738,66.6258,0.006973
102.767,66.6549,0.006973
102.798,66.6860,0.006973
102.828,66.7158,0.006973
102.860,66.7482,0.006371
102.891,66.7791,0.006371
102.922,66.8102,0.006371
102.953,66.8404,0.006371
102.984,66.8722,0.006371
103.015,66.9025,0.006371
103.046,66.9337,0.006371
103.077,66.9643,0.006371
103.109,66.9968,0.005618
103.139,67.0271,0.005618
103.170,67.0572,0.005618
103.201,67.0890,0.005618
103.232,67.1197,0.005618
103.263,67.1510,0.005618
103.294,67.1814,0.005618
103.325,67.2130,0.005618
103.355,67.2428,0.004611
103.387,67.2747,0.004611
103.417,67.3059,0.004611
103.449,67.3367,0.004611
103.479,67.3667,0.004611
103.510,67.3984,0.004611
103.542,67.4292,0.004611
103.573,67.4611,0.004611
103.605,67.4922,0.003143
103.635,67.5239,0.003143
103.666,67.5541,0.003143
103.699,67.5867,0.003143
103.729,67.6175,0.003143
103.760,67.6478,0.003143
103.791,67.6791,0.003143
103.822,67.7099,0.003143
103.853,67.7410,0.003143
103.884,67.7719,0.000809
103.915,67.8034,0.000809
103.946,67.8346,0.000809
103.982,67.8706,0.000809
104.009,67.8963,0.000809
104.040,67.9275,0.000809
104.071,67.9584,0.000809
104.101,67.9896,-0.003058
104.133,68.0213,-0.003058
104.163,68.0510,-0.003058
104.194,68.0818,-0.003058
104.225,68.1132,-0.003058
104.256,68.1434,-0.003058
104.286,68.1746,-0.003058
104.321,68.2085,-0.003058
104.348,68.2366,-0.003058
104.380,68.2675,-0.009759
104.410,68.2980,-0.009759
104.441,68.3291,-0.009759
104.472,68.3602,-0.009759
104.505,68.3930,-0.009759
104.535,68.4235,-0.009759
104.567,68.4547,-0.009759
104.597,68.4843,-0.021126
104.627,68.5155,-0.021126
104.658,68.5459,-0.021126
104.689,68.5770,-0.021126
104.720,68.6072,-0.021126
104.750,68.6378,-0.021126
104.782,68.6695,-0.021126
104.814,68.7017,-0.021126
104.845,68.7322,-0.038827
104.875,68.7631,-0.038827
104.906,68.7934,-0.038827
104.938,68.8257,-0.038827
104.969,68.8563,-0.038827
105.000,68.8870,-0.038827
105.031,68.9166,-0.038827
105.062,68.9459,-0.038827
105.093,68.9744,-0.064734
105.124,69.0023,-0.064734
105.155,69.0282,-0.064734
105.186,69.0541,-0.064734
105.217,69.0798,-0.064734
105.248,69.1051,-0.064734
105.279,69.1283,-0.064734
105.309,69.1510,-0.064734
105.340,69.1730,-0.064734
105.371,69.1949,-0.064734
105.402,69.2159,-0.097078
105.433,69.2360,-0.097078
105.463,69.2548,-0.097078
105.494,69.2743,-0.097078
105.525,69.2924,-0.097078
105.557,69.3101,-0.097078
105.591,69.3284,-0.097078
105.618,69.3427,-0.097078
105.649,69.3575,-0.134107
105.680,69.3723,-0.134107
105.711,69.3857,-0.134107
105.743,69.3991,-0.134107
105.773,69.4112,-0.134107
105.804,69.4229,-0.134107
105.834,69.4334,-0.134107
105.866,69.4437,-0.196263
105.899,69.4536,-0.196263
105.926,69.4613,-0.196263
105.957,69.4691,-0.196263
105.988,69.4764,-0.196263
106.020,69.4835,-0.196263
106.050,69.4890,-0.196263
106.081,69.4939,-0.196263
106.112,69.4981,-0.283940
106.142,69.5017,-0.283940
106.173,69.5046,-0.283940
106.204,69.5068,-0.283940
106.235,69.5083,-0.283940
106.265,69.5091,-0.283940
106.296,69.5092,-0.283940
106.326,69.5092,-0.283940
106.357,69.5092,-0.283940
106.388,69.5092,-0.315154
106.419,69.5092,-0.315154
106.450,69.5092,-0.315154
106.481,69.5092,-0.315154
106.511,69.5092,-0.315154
106.542,69.5092,-0.315154
106.572,69.5092,-0.315154
106.603,69.5092,-0.248331
106.633,69.5092,-0.248331
106.664,69.5092,-0.248331
106.695,69.5092,-0.248331
106.726,69.5092,-0.248331
106.757,69.5092,-0.248331
106.787,69.5092,-0.248331
