Elapsed Time (s),Position (mm),Force (N)
-0.023,66.5592,-0.414970
0.008,66.5592,-0.414970
0.040,66.5592,-0.340581
0.071,66.5592,-0.340581
0.102,66.5592,-0.340581
0.134,66.5592,-0.340581
0.165,66.5592,-0.340581
0.195,66.5592,-0.340581
0.226,66.5592,-0.340581
0.257,66.5592,-0.340581
0.289,66.5592,-0.311201
0.321,66.5592,-0.311201
0.352,66.5592,-0.311201
0.382,66.5592,-0.311201
0.414,66.5592,-0.311201
0.447,66.5592,-0.311201
0.477,66.5592,-0.311201
0.510,66.5592,-0.311201
0.539,66.5592,-0.296023
0.570,66.5592,-0.296023
0.601,66.5592,-0.296023
0.632,66.5592,-0.296023
0.664,66.5592,-0.296023
0.694,66.5592,-0.296023
0.724,66.5592,-0.296023
0.755,66.5592,-0.296023
0.786,66.5592,-0.285502
0.817,66.5592,-0.285502
0.849,66.5592,-0.285502
0.880,66.5592,-0.285502
0.911,66.5592,-0.285502
0.942,66.5592,-0.285502
0.973,66.5592,-0.285502
1.006,66.5592,-0.285502
1.035,66.5592,-0.277691
1.066,66.5592,-0.277691
1.097,66.5592,-0.277691
1.128,66.5592,-0.277691
1.159,66.5592,-0.277691
1.191,66.5592,-0.277691
1.223,66.5592,-0.277691
1.253,66.5592,-0.277691
1.284,66.5592,-0.271490
1.315,66.5592,-0.271490
1.347,66.5592,-0.271490
1.377,66.5592,-0.271490
1.410,66.5592,-0.271490
1.440,66.5592,-0.271490
1.471,66.5592,-0.271490
1.501,66.5592,-0.271490
1.532,66.5592,-0.266568
1.563,66.5592,-0.266568
1.594,66.5592,-0.266568
1.625,66.5592,-0.266568
1.656,66.5592,-0.266568
1.686,66.5592,-0.266568
1.717,66.5592,-0.266568
1.747,66.5592,-0.266568
1.777,66.5592,-0.262512
1.809,66.5592,-0.262512
1.839,66.5592,-0.262512
1.870,66.5592,-0.262512
1.902,66.5592,-0.262512
1.933,66.5592,-0.262512
1.965,66.5592,-0.262512
1.996,66.5592,-0.262512
2.027,66.5592,-0.262512
2.058,66.5592,-0.258974
2.090,66.5592,-0.258974
2.120,66.5592,-0.258974
2.151,66.5592,-0.258974
2.183,66.5592,-0.258974
2.214,66.5592,-0.258974
2.245,66.5592,-0.258974
2.276,66.5592,-0.258974
2.307,66.5592,-0.255963
2.339,66.5592,-0.255963
2.368,66.5592,-0.255963
2.399,66.5592,-0.255963
2.430,66.5592,-0.255963
2.461,66.5592,-0.255963
2.492,66.5592,-0.255963
2.523,66.5592,-0.255963
2.555,66.5592,-0.253299
2.586,66.5592,-0.253299
2.617,66.5592,-0.253299
2.648,66.5592,-0.253299
2.679,66.5592,-0.253299
2.712,66.5592,-0.253299
2.741,66.5592,-0.253299
2.773,66.5592,-0.253299
2.804,66.5592,-0.250900
2.835,66.5592,-0.250900
2.866,66.5592,-0.250900
2.898,66.5592,-0.250900
2.928,66.5592,-0.250900
2.958,66.5592,-0.250900
2.990,66.5592,-0.250900
3.021,66.5592,-0.250900
3.052,66.5592,-0.248707
3.083,66.5592,-0.248707
3.113,66.5592,-0.248707
3.144,66.5592,-0.248707
3.175,66.5592,-0.248707
3.212,66.5592,-0.248707
3.254,66.5592,-0.248707
3.284,66.5592,-0.246759
3.319,66.5592,-0.246759
3.347,66.5592,-0.246759
3.378,66.5592,-0.246759
3.410,66.5592,-0.246759
3.442,66.5592,-0.246759
3.471,66.5592,-0.246759
3.503,66.5592,-0.246759
3.533,66.5592,-0.246759
3.565,66.5592,-0.244755
3.596,66.5592,-0.244755
3.627,66.5592,-0.244755
3.658,66.5592,-0.244755
3.689,66.5592,-0.244755
3.720,66.5592,-0.244755
3.753,66.5592,-0.244755
3.784,66.5592,-0.241979
3.816,66.5592,-0.241979
3.847,66.5592,-0.241979
3.878,66.5592,-0.241979
3.909,66.5592,-0.241979
3.941,66.5592,-0.241979
3.972,66.5592,-0.241979
4.004,66.5592,-0.241979
4.036,66.5592,-0.238375
4.067,66.5592,-0.238375
4.098,66.5592,-0.238375
4.129,66.5590,-0.238375
4.159,66.5583,-0.238375
4.191,66.5567,-0.238375
4.222,66.5543,-0.238375
4.254,66.5512,-0.238375
4.285,66.5475,-0.229952
4.318,66.5428,-0.229952
4.347,66.5378,-0.229952
4.378,66.5318,-0.229952
4.409,66.5252,-0.229952
4.440,66.5179,-0.229952
4.471,66.5097,-0.229952
4.503,66.5007,-0.229952
4.533,66.4913,-0.229952
4.564,66.4810,0.196988
4.596,66.4696,0.196988
4.627,66.4580,0.196988
4.657,66.4457,0.196988
4.688,66.4328,0.196988
4.718,66.4189,0.196988
4.750,66.4041,0.196988
4.780,66.3886,0.288099
4.811,66.3729,0.288099
4.843,66.3555,0.288099
4.874,66.3382,0.288099
4.905,66.3197,0.288099
4.936,66.3004,0.288099
4.967,66.2807,0.288099
4.998,66.2605,0.288099
5.030,66.2388,-0.032654
5.061,66.2165,-0.032654
5.091,66.1944,-0.032654
5.122,66.1715,-0.032654
5.153,66.1474,-0.032654
5.184,66.1226,-0.032654
5.214,66.0971,-0.032654
5.246,66.0703,-0.032654
5.277,66.0432,-0.032654
5.309,66.0146,-0.006446
5.339,65.9869,-0.006446
5.370,65.9570,-0.006446
5.402,65.9273,-0.006446
5.433,65.8963,-0.006446
5.464,65.8656,-0.006446
5.495,65.8340,-0.006446
5.527,65.8030,0.026358
5.558,65.7705,0.026358
5.589,65.7411,0.026358
5.619,65.7103,0.026358
5.650,65.6790,0.026358
5.682,65.6481,0.026358
5.712,65.6168,0.026358
5.744,65.5858,0.026358
5.775,65.5546,0.049687
5.806,65.5237,0.049687
5.836,65.4933,0.049687
5.867,65.4623,0.049687
5.898,65.4313,0.049687
5.930,65.3995,0.049687
5.961,65.3684,0.049687
5.993,65.3368,0.049687
6.024,65.3054,0.060019
6.056,65.2739,0.060019
6.087,65.2424,0.060019
6.118,65.2116,0.060019
6.149,65.1811,0.060019
6.180,65.1491,0.060019
6.211,65.1185,0.060019
6.243,65.0863,0.060019
6.274,65.0559,0.061845
6.305,65.0235,0.061845
6.336,64.9941,0.061845
6.366,64.9631,0.061845
6.398,64.9320,0.061845
6.429,64.9006,0.061845
6.460,64.8691,0.061845
6.491,64.8382,0.061845
6.522,64.8072,0.061845
6.554,64.7758,0.060377
6.584,64.7453,0.060377
6.616,64.7142,0.060377
6.647,64.6824,0.060377
6.677,64.6517,0.060377
6.709,64.6212,0.060377
6.739,64.5900,0.060377
6.769,64.5600,0.058354
6.800,64.5290,0.058354
6.831,64.4983,0.058354
6.862,64.4670,0.058354
6.892,64.4376,0.058354
6.923,64.4062,0.058354
6.954,64.3760,0.058354
6.986,64.3442,0.058354
7.016,64.3132,0.057592
7.047,64.2827,0.057592
7.078,64.2512,0.057592
7.110,64.2188,0.057592
7.141,64.1887,0.057592
7.172,64.1573,0.057592
7.203,64.1263,0.057592
7.234,64.0957,0.057592
7.265,64.0646,0.059276
7.296,64.0329,0.059276
7.327,64.0025,0.059276
7.358,63.9715,0.059276
7.390,63.9397,0.059276
7.422,63.9077,0.059276
7.451,63.8781,0.059276
7.482,63.8470,0.059276
7.513,63.8164,0.062720
7.544,63.7853,0.062720
7.575,63.7546,0.062720
7.606,63.7237,0.062720
7.637,63.6927,0.062720
7.668,63.6612,0.062720
7.699,63.6294,0.062720
7.730,63.5995,0.062720
7.761,63.5676,0.062720
7.792,63.5380,0.067350
7.823,63.5060,0.067350
7.854,63.4762,0.067350
7.885,63.4436,0.067350
7.916,63.4136,0.067350
7.947,63.3816,0.067350
7.978,63.3514,0.067350
8.009,63.3203,0.067350
8.040,63.2899,0.073730
8.071,63.2583,0.073730
8.101,63.2275,0.073730
8.133,63.1966,0.073730
8.164,63.1653,0.073730
8.195,63.1340,0.073730
8.226,63.1035,0.073730
8.257,63.0726,0.073730
8.288,63.0414,0.073730
8.319,63.0095,0.080703
8.350,62.9791,0.080703
8.381,62.9480,0.080703
8.412,62.9172,0.080703
8.444,62.8855,0.080703
8.474,62.8552,0.080703
8.505,62.8241,0.080703
8.537,62.7931,0.083621
8.567,62.7623,0.083621
8.598,62.7320,0.083621
8.629,62.7007,0.083621
8.660,62.6698,0.083621
8.691,62.6385,0.083621
8.721,62.6084,0.083621
8.753,62.5769,0.083621
8.784,62.5451,0.054270
8.815,62.5146,0.054270
8.846,62.4840,0.054270
8.877,62.4529,0.054270
8.907,62.4220,0.054270
8.939,62.3907,0.054270
8.970,62.3597,0.054270
9.000,62.3291,0.054270
9.031,62.2983,0.021531
9.062,62.2666,0.021531
9.093,62.2362,0.021531
9.125,62.2041,0.021531
9.156,62.1739,0.021531
9.187,62.1424,0.021531
9.218,62.1127,0.021531
9.249,62.0828,0.021531
9.280,62.0546,0.017212
9.311,62.0268,0.017212
9.342,61.9994,0.017212
9.373,61.9734,0.017212
9.404,61.9480,0.017212
9.435,61.9228,0.017212
9.466,61.8989,0.017212
9.496,61.8762,0.017212
9.527,61.8528,0.017212
9.560,61.8304,0.016176
9.591,61.8088,0.016176
9.621,61.7888,0.016176
9.653,61.7685,0.016176
9.684,61.7495,0.016176
9.716,61.7306,0.016176
9.747,61.7133,0.016176
9.777,61.6968,0.015499
9.807,61.6809,0.015499
9.839,61.6654,0.015499
9.870,61.6501,0.015499
9.901,61.6365,0.015499
9.931,61.6235,0.015499
9.963,61.6108,0.015499
9.994,61.5991,0.015499
10.025,61.5877,0.015075
10.057,61.5773,0.015075
10.088,61.5676,0.015075
10.120,61.5585,0.015075
10.152,61.5502,0.015075
10.181,61.5429,0.015075
10.212,61.5365,0.015075
10.244,61.5304,0.015075
10.275,61.5252,0.014765
10.307,61.5206,0.014765
10.339,61.5169,0.014765
10.369,61.5139,0.014765
10.400,61.5117,0.014765
10.432,61.5100,0.014765
10.463,61.5093,0.014765
10.494,61.5092,0.014765
10.525,61.5092,0.014492
10.556,61.5092,0.014492
10.587,61.5092,0.014492
10.618,61.5093,0.014492
10.649,61.5102,0.014492
10.680,61.5118,0.014492
10.711,61.5141,0.014492
10.743,61.5171,0.014492
10.774,61.5210,0.014332
10.806,61.5257,0.014332
10.835,61.5308,0.014332
10.866,61.5366,0.014332
10.897,61.5432,0.014332
10.928,61.5505,0.014332
10.959,61.5587,0.014332
10.990,61.5673,0.014332
11.021,61.5770,0.014134
11.052,61.5874,0.014134
11.083,61.5983,0.014134
11.113,61.6100,0.014134
11.144,61.6225,0.014134
11.174,61.6354,0.014134
11.206,61.6496,0.014134
11.236,61.6636,0.014134
11.267,61.6787,0.013730
11.297,61.6943,0.013730
11.329,61.7121,0.013730
11.360,61.7294,0.013730
11.391,61.7483,0.013730
11.423,61.7674,0.013730
11.454,61.7874,0.013730
11.486,61.8086,0.013730
11.516,61.8293,0.013730
11.547,61.8506,0.013325
11.578,61.8727,0.013325
11.608,61.8959,0.013325
11.639,61.9201,0.013325
11.671,61.9454,0.013325
11.702,61.9714,0.013325
11.734,61.9986,0.013325
11.765,62.0256,0.012892
11.796,62.0530,0.012892
11.826,62.0807,0.012892
11.857,62.1106,0.012892
11.888,62.1397,0.012892
11.920,62.1718,0.012892
11.951,62.2023,0.012892
11.982,62.2336,0.012892
12.012,62.2646,0.012892
12.044,62.2951,0.012892
12.074,62.3261,0.012158
12.106,62.3571,0.012158
12.137,62.3886,0.012158
12.168,62.4194,0.012158
12.199,62.4506,0.012158
12.230,62.4810,0.012158
12.261,62.5126,0.012158
12.291,62.5430,0.011368
12.322,62.5738,0.011368
12.353,62.6039,0.011368
12.383,62.6353,0.011368
12.415,62.6669,0.011368
12.446,62.6981,0.011368
12.478,62.7287,0.011368
12.508,62.7591,0.011368
12.539,62.7901,0.010577
12.570,62.8216,0.010577
12.601,62.8519,0.010577
12.632,62.8831,0.010577
12.662,62.9135,0.010577
12.693,62.9446,0.010577
12.724,62.9756,0.010577
12.756,63.0070,0.010577
12.787,63.0379,0.009608
12.818,63.0699,0.009608
12.849,63.1000,0.009608
12.879,63.1308,0.009608
12.911,63.1622,0.009608
12.942,63.1934,0.009608
12.972,63.2237,0.009608
13.003,63.2548,0.009608
13.034,63.2848,0.008516
13.065,63.3161,0.008516
13.096,63.3483,0.008516
13.127,63.3783,0.008516
13.158,63.4097,0.008516
13.190,63.4412,0.008516
13.220,63.4709,0.008516
13.251,63.5022,0.008516
13.281,63.5329,0.007227
13.316,63.5666,0.007227
13.344,63.5959,0.007227
13.375,63.6265,0.007227
13.406,63.6570,0.007227
13.437,63.6885,0.007227
13.468,63.7194,0.007227
13.498,63.7497,0.007227
13.529,63.7798,0.005656
13.560,63.8112,0.005656
13.591,63.8426,0.005656
13.622,63.8731,0.005656
13.653,63.9054,0.005656
13.684,63.9353,0.005656
13.715,63.9666,0.005656
13.746,63.9975,0.005656
13.776,64.0275,0.003595
13.807,64.0582,0.003595
13.838,64.0892,0.003595
13.868,64.1195,0.003595
13.899,64.1505,0.003595
13.929,64.1799,0.003595
13.960,64.2108,0.003595
13.992,64.2428,0.003595
14.022,64.2734,0.000743
14.055,64.3063,0.000743
14.086,64.3372,0.000743
14.116,64.3668,0.000743
14.147,64.3982,0.000743
14.178,64.4298,0.000743
14.209,64.4611,0.000743
14.241,64.4924,0.000743
14.271,64.5232,0.000743
14.302,64.5531,-0.003444
14.333,64.5846,-0.003444
14.364,64.6152,-0.003444
14.395,64.6472,-0.003444
14.427,64.6785,-0.003444
14.458,64.7100,-0.003444
14.490,64.7414,-0.003444
14.520,64.7721,-0.009655
14.551,64.8029,-0.009655
14.582,64.8335,-0.009655
14.613,64.8648,-0.009655
14.644,64.8958,-0.009655
14.675,64.9268,-0.009655
14.707,64.9576,-0.009655
14.739,64.9899,-0.009655
14.769,65.0203,-0.018896
14.801,65.0523,-0.018896
14.831,65.0825,-0.018896
14.862,65.1135,-0.018896
14.893,65.1444,-0.018896
14.924,65.1751,-0.018896
14.955,65.2066,-0.018896
14.986,65.2376,-0.018896
15.017,65.2682,-0.032372
15.049,65.3007,-0.032372
15.079,65.3303,-0.032372
15.110,65.3613,-0.032372
15.141,65.3921,-0.032372
15.175,65.4267,-0.032372
15.205,65.4557,-0.032372
15.235,65.4871,-0.032372
15.266,65.5174,-0.051936
15.298,65.5494,-0.051936
15.329,65.5800,-0.051936
15.360,65.6113,-0.051936
15.391,65.6425,-0.051936
15.423,65.6740,-0.051936
15.453,65.7044,-0.051936
15.485,65.7370,-0.051936
15.515,65.7660,-0.051936
15.546,65.7973,-0.080722
15.576,65.8275,-0.080722
15.607,65.8579,-0.080722
15.637,65.8878,-0.080722
15.668,65.9182,-0.080722
15.699,65.9466,-0.080722
15.730,65.9753,-0.080722
15.761,66.0019,-0.121535
15.791,66.0285,-0.121535
15.822,66.0544,-0.121535
15.853,66.0803,-0.121535
15.885,66.1049,-0.121535
15.915,66.1283,-0.121535
15.946,66.1514,-0.121535
15.977,66.1732,-0.121535
16.008,66.1958,-0.121535
16.039,66.2161,-0.179334
16.072,66.2378,-0.179334
16.102,66.2565,-0.179334
16.133,66.2759,-0.179334
16.164,66.2939,-0.179334
16.195,66.3116,-0.179334
16.226,66.3276,-0.179334
16.257,66.3434,-0.179334
16.288,66.3587,-0.288287
16.319,66.3735,-0.288287
16.350,66.3869,-0.288287
16.381,66.3998,-0.288287
16.413,66.4123,-0.288287
16.443,66.4239,-0.288287
16.474,66.4345,-0.288287
16.505,66.4444,-0.288287
16.536,66.4537,-0.462906
16.567,66.4624,-0.462906
16.598,66.4702,-0.462906
16.628,66.4774,-0.462906
16.660,66.4839,-0.462906
16.691,66.4897,-0.462906
16.723,66.4947,-0.462906
16.753,66.4989,-0.665503
16.783,66.5022,-0.665503
16.814,66.5051,-0.665503
16.846,66.5072,-0.665503
16.876,66.5086,-0.665503
16.907,66.5092,-0.665503
16.938,66.5092,-0.665503
16.968,66.5092,-0.665503
16.999,66.5092,-0.665503
17.031,66.5092,-0.665503
17.061,66.5092,-0.727103
17.092,66.5092,-0.727103
17.123,66.5092,-0.727103
17.153,66.5092,-0.727103
17.184,66.5092,-0.727103
17.215,66.5092,-0.727103
17.246,66.5092,-0.727103
17.277,66.5092,-0.555345
17.307,66.5092,-0.555345
17.338,66.5092,-0.555345
17.369,66.5092,-0.555345
17.400,66.5092,-0.555345
17.430,66.5092,-0.555345
17.463,66.5092,-0.555345
17.493,66.5092,-0.555345
17.523,66.5092,-0.383878
17.554,66.5092,-0.383878
17.585,66.5092,-0.383878
17.617,66.5092,-0.383878
17.647,66.5092,-0.383878
17.679,66.5092,-0.383878
17.709,66.5092,-0.383878
17.740,66.5092,-0.383878
17.771,66.5092,-0.326889
17.802,66.5092,-0.326889
17.834,66.5092,-0.326889
17.864,66.5092,-0.326889
17.896,66.5092,-0.326889
17.927,66.5092,-0.326889
17.962,66.5092,-0.326889
17.988,66.5092,-0.326889
18.026,66.5092,-0.303080
18.066,66.5092,-0.303080
18.097,66.5092,-0.303080
18.129,66.5092,-0.303080
18.163,66.5092,-0.303080
18.190,66.5092,-0.303080
18.222,66.5092,-0.303080
18.253,66.5092,-0.303080
18.284,66.5092,-0.303080
18.314,66.5092,-0.289934
18.346,66.5092,-0.289934
18.378,66.5092,-0.289934
18.409,66.5092,-0.289934
18.439,66.5092,-0.289934
18.471,66.5092,-0.289934
18.501,66.5092,-0.289934
18.531,66.5092,-0.289934
18.562,66.5092,-0.289934
18.593,66.5092,-0.280486
18.624,66.5092,-0.280486
18.655,66.5092,-0.280486
18.686,66.5092,-0.280486
18.716,66.5092,-0.280486
18.747,66.5092,-0.280486
18.778,66.5092,-0.280486
18.809,66.5092,-0.273344
18.841,66.5092,-0.273344
18.871,66.5092,-0.273344
18.902,66.5092,-0.273344
18.933,66.5092,-0.273344
18.964,66.5092,-0.273344
18.995,66.5092,-0.273344
19.026,66.5092,-0.273344
19.057,66.5092,-0.267735
19.087,66.5092,-0.267735
19.118,66.5092,-0.267735
19.148,66.5092,-0.267735
19.179,66.5092,-0.267735
19.211,66.5092,-0.267735
19.242,66.5092,-0.267735
19.273,66.5092,-0.267735
19.305,66.5092,-0.263067
19.337,66.5092,-0.263067
19.366,66.5092,-0.263067
19.398,66.5092,-0.263067
19.429,66.5092,-0.263067
19.459,66.5092,-0.263067
19.490,66.5092,-0.263067
19.521,66.5092,-0.263067
19.554,66.5092,-0.259124
19.584,66.5092,-0.259124
19.614,66.5092,-0.259124
19.645,66.5092,-0.259124
19.676,66.5092,-0.259124
19.707,66.5092,-0.259124
19.738,66.5092,-0.259124
19.768,66.5092,-0.259124
19.799,66.5092,-0.259124
19.830,66.5092,-0.255840
19.861,66.5092,-0.255840
19.892,66.5092,-0.255840
19.924,66.5092,-0.255840
19.955,66.5092,-0.255840
19.985,66.5092,-0.255840
20.016,66.5092,-0.255840
20.048,66.5092,-0.252942
20.079,66.5092,-0.252942
20.110,66.5092,-0.252942
20.141,66.5092,-0.252942
20.173,66.5092,-0.252942
20.204,66.5092,-0.252942
20.236,66.5092,-0.252942
20.268,66.5092,-0.252942
20.298,66.5092,-0.250373
20.329,66.5092,-0.250373
20.360,66.5092,-0.250373
20.391,66.5092,-0.250373
20.423,66.5092,-0.250373
20.454,66.5092,-0.250373
20.484,66.5092,-0.250373
20.515,66.5092,-0.250373
20.546,66.5092,-0.248114
20.577,66.5092,-0.248114
20.609,66.5092,-0.248114
20.638,66.5092,-0.248114
20.669,66.5092,-0.248114
20.701,66.5092,-0.248114
20.732,66.5092,-0.248114
20.763,66.5092,-0.248114
20.794,66.5092,-0.246091
20.825,66.5092,-0.246091
20.856,66.5092,-0.246091
20.886,66.5092,-0.246091
20.918,66.5092,-0.246091
20.949,66.5092,-0.246091
20.980,66.5092,-0.246091
21.011,66.5092,-0.244341
21.042,66.5092,-0.244341
21.073,66.5092,-0.244341
21.105,66.5092,-0.244341
21.136,66.5092,-0.244341
21.168,66.5092,-0.244341
21.198,66.5092,-0.244341
21.230,66.5092,-0.244341
21.261,66.5092,-0.244341
21.292,66.5092,-0.242459
21.323,66.5092,-0.242459
21.354,66.5092,-0.242459
21.384,66.5092,-0.242459
21.414,66.5092,-0.242459
21.445,66.5092,-0.242459
21.477,66.5092,-0.242459
21.508,66.5092,-0.239730
21.538,66.5092,-0.239730
21.569,66.5092,-0.239730
21.600,66.5092,-0.239730
21.632,66.5092,-0.239730
21.663,66.5092,-0.239730
21.694,66.5092,-0.239730
21.724,66.5092,-0.239730
21.756,66.5092,-0.239730
21.787,66.5092,-0.239730
21.818,66.5092,-0.239730
21.848,66.5092,-0.236314
21.880,66.5092,-0.236314
21.910,66.5089,-0.236314
21.941,66.5079,-0.236314
21.972,66.5062,-0.236314
22.002,66.5038,-0.236314
22.034,66.5005,-0.236314
22.065,66.4965,-0.230583
22.096,66.4919,-0.230583
22.128,66.4865,-0.230583
22.158,66.4807,-0.230583
22.189,66.4737,-0.230583
22.221,66.4660,-0.230583
22.251,66.4577,-0.230583
22.282,66.4489,-0.230583
22.312,66.4395,0.161350
22.343,66.4291,0.161350
22.374,66.4179,0.161350
22.405,66.4059,0.161350
22.436,66.3937,0.161350
22.467,66.3801,0.161350
22.498,66.3662,0.161350
22.529,66.3511,0.161350
22.560,66.3357,0.255172
22.591,66.3194,0.255172
22.622,66.3023,0.255172
22.654,66.2843,0.255172
22.685,66.2658,0.255172
22.715,66.2465,0.255172
22.746,66.2272,0.255172
22.777,66.2066,0.255172
22.808,66.1851,-0.032682
22.837,66.1648,-0.032682
22.869,66.1408,-0.032682
22.899,66.1179,-0.032682
22.930,66.0935,-0.032682
22.961,66.0696,-0.032682
22.992,66.0440,-0.032682
23.022,66.0174,-0.032682
23.053,65.9906,-0.008978
23.084,65.9622,-0.008978
23.115,65.9347,-0.008978
23.146,65.9051,-0.008978
23.178,65.8749,-0.008978
23.208,65.8444,-0.008978
23.238,65.8144,-0.008978
23.271,65.7820,-0.008978
23.301,65.7515,0.023968
23.332,65.7204,0.023968
23.364,65.6890,0.023968
23.395,65.6574,0.023968
23.426,65.6255,0.023968
23.458,65.5945,0.023968
23.489,65.5639,0.023968
23.520,65.5322,0.048360
23.551,65.5017,0.048360
23.581,65.4711,0.048360
23.613,65.4400,0.048360
23.644,65.4088,0.048360
23.675,65.3782,0.048360
23.705,65.3472,0.048360
23.737,65.3160,0.048360
23.768,65.2848,0.059803
23.799,65.2529,0.059803
23.831,65.2218,0.059803
23.862,65.1898,0.059803
23.893,65.1597,0.059803
23.924,65.1282,0.059803
23.955,65.0974,0.059803
23.986,65.0658,0.059803
24.018,65.0347,0.059803
24.049,65.0033,0.062278
24.080,64.9724,0.062278
24.112,64.9405,0.062278
24.143,64.9100,0.062278
24.174,64.8780,0.062278
24.206,64.8470,0.062278
24.237,64.8151,0.062278
24.268,64.7844,0.061139
24.300,64.7526,0.061139
24.330,64.7225,0.061139
24.362,64.6909,0.061139
24.393,64.6602,0.061139
24.424,64.6289,0.061139
24.455,64.5974,0.061139
24.485,64.5671,0.061139
24.517,64.5363,0.059107
24.548,64.5050,0.059107
24.578,64.4743,0.059107
24.610,64.4425,0.059107
24.641,64.4119,0.059107
24.671,64.3809,0.059107
24.703,64.3501,0.059107
24.734,64.3188,0.059107
24.765,64.2880,0.058175
24.796,64.2560,0.058175
24.828,64.2250,0.058175
24.859,64.1939,0.058175
24.890,64.1632,0.058175
24.921,64.1314,0.058175
24.951,64.1014,0.058175
24.982,64.0703,0.058175
25.013,64.0393,0.059615
25.044,64.0086,0.059615
25.075,63.9776,0.059615
25.106,63.9464,0.059615
25.135,63.9175,0.059615
25.168,63.8839,0.059615
25.199,63.8540,0.059615
25.230,63.8225,0.059615
25.262,63.7912,0.059615
25.292,63.7603,0.062739
25.323,63.7291,0.062739
25.353,63.6993,0.062739
25.384,63.6685,0.062739
25.417,63.6361,0.062739
25.446,63.6073,0.062739
25.477,63.5753,0.062739
25.507,63.5453,0.062739
25.539,63.5139,0.067068
25.570,63.4831,0.067068
25.600,63.4524,0.067068
25.631,63.4215,0.067068
25.663,63.3902,0.067068
25.688,63.3643,0.067068
25.725,63.3275,0.067068
25.756,63.2965,0.067068
25.786,63.2665,0.073232
25.818,63.2351,0.073232
25.848,63.2049,0.073232
25.879,63.1743,0.073232
25.910,63.1429,0.073232
25.942,63.1116,0.073232
25.971,63.0807,0.073232
26.003,63.0495,0.073232
26.034,63.0183,0.080242
26.064,62.9878,0.080242
26.096,62.9567,0.080242
26.127,62.9258,0.080242
26.157,62.8949,0.080242
26.188,62.8645,0.080242
26.219,62.8335,0.080242
26.251,62.8021,0.080242
26.281,62.7716,0.083988
26.315,62.7370,0.083988
26.343,62.7102,0.083988
26.374,62.6786,0.083988
26.405,62.6477,0.083988
26.436,62.6162,0.083988
26.467,62.5862,0.083988
26.498,62.5542,0.083988
26.530,62.5234,0.056387
26.561,62.4916,0.056387
26.591,62.4616,0.056387
26.623,62.4293,0.056387
26.653,62.3994,0.056387
26.684,62.3685,0.056387
26.715,62.3381,0.056387
26.747,62.3062,0.056387
26.778,62.2743,0.023300
26.809,62.2438,0.023300
26.841,62.2115,0.023300
26.872,62.1799,0.023300
26.903,62.1500,0.023300
26.934,62.1186,0.023300
26.965,62.0885,0.023300
26.996,62.0577,0.023300
27.026,62.0297,0.023300
27.058,62.0003,0.017428
27.089,61.9733,0.017428
27.120,61.9452,0.017428
27.152,61.9191,0.017428
27.182,61.8934,0.017428
27.213,61.8693,0.017428
27.245,61.8443,0.017428
27.276,61.8215,0.017428
27.308,61.7983,0.016346
27.340,61.7757,0.016346
27.370,61.7551,0.016346
27.400,61.7356,0.016346
27.430,61.7162,0.016346
27.461,61.6973,0.016346
27.492,61.6786,0.016346
27.523,61.6611,0.016346
27.555,61.6444,0.015668
27.587,61.6277,0.015668
27.617,61.6129,0.015668
27.648,61.5983,0.015668
27.682,61.5830,0.015668
27.712,61.5701,0.015668
27.741,61.5587,0.015668
27.772,61.5471,0.015668
27.806,61.5351,0.015151
27.834,61.5259,0.015151
27.865,61.5164,0.015151
27.896,61.5077,0.015151
27.927,61.4999,0.015151
27.958,61.4926,0.015151
27.989,61.4859,0.015151
28.020,61.4800,0.014774
28.050,61.4751,0.014774
28.081,61.4706,0.014774
28.112,61.4668,0.014774
28.144,61.4638,0.014774
28.174,61.4616,0.014774
28.206,61.4601,0.014774
28.237,61.4593,0.014774
28.267,61.4592,0.014774
28.298,61.4592,0.014483
28.336,61.4592,0.014483
28.376,61.4592,0.014483
28.407,61.4592,0.014483
28.439,61.4592,0.014483
28.470,61.4592,0.014483
28.500,61.4592,0.014483
28.531,61.4592,0.014407
28.563,61.4592,0.014407
28.594,61.4592,0.014407
28.630,61.4592,0.014407
28.655,61.4592,0.014407
28.687,61.4592,0.014407
28.718,61.4592,0.014407
28.749,61.4592,0.014407
28.780,61.4592,0.014360
28.812,61.4594,0.014360
28.843,61.4603,0.014360
28.873,61.4619,0.014360
28.905,61.4643,0.014360
28.936,61.4675,0.014360
28.967,61.4712,0.014360
28.998,61.4759,0.014360
29.030,61.4813,0.014144
29.061,61.4875,0.014144
29.092,61.4942,0.014144
29.123,61.5017,0.014144
29.154,61.5097,0.014144
29.185,61.5186,0.014144
29.217,61.5285,0.014144
29.248,61.5389,0.014144
29.279,61.5505,0.014144
29.310,61.5620,0.013909
29.341,61.5744,0.013909
29.371,61.5877,0.013909
29.403,61.6022,0.013909
29.434,61.6165,0.013909
29.467,61.6332,0.013909
29.497,61.6492,0.013909
29.528,61.6661,0.013909
29.559,61.6836,0.013645
29.591,61.7027,0.013645
29.621,61.7213,0.013645
29.652,61.7415,0.013645
29.683,61.7619,0.013645
29.714,61.7835,0.013645
29.744,61.8055,0.013645
29.776,61.8284,0.013645
29.808,61.8520,0.013212
29.839,61.8768,0.013212
29.868,61.9001,0.013212
29.900,61.9261,0.013212
29.930,61.9526,0.013212
29.961,61.9796,0.013212
29.992,62.0076,0.013212
30.023,62.0354,0.013212
30.053,62.0646,0.012657
30.085,62.0952,0.012657
30.115,62.1251,0.012657
30.146,62.1565,0.012657
30.177,62.1868,0.012657
30.209,62.2192,0.012657
30.239,62.2498,0.012657
30.271,62.2808,0.012657
30.301,62.3109,0.011951
30.331,62.3414,0.011951
30.362,62.3723,0.011951
30.393,62.4036,0.011951
30.424,62.4335,0.011951
30.455,62.4655,0.011951
30.486,62.4957,0.011951
30.517,62.5272,0.011951
30.548,62.5578,0.011151
30.580,62.5900,0.011151
30.610,62.6197,0.011151
30.642,62.6522,0.011151
30.673,62.6831,0.011151
30.704,62.7148,0.011151
30.735,62.7447,0.011151
30.769,62.7808,0.011151
30.796,62.8065,0.010220
30.830,62.8412,0.010220
30.859,62.8686,0.010220
30.890,62.9001,0.010220
30.922,62.9320,0.010220
30.954,62.9641,0.010220
30.985,62.9949,0.010220
31.016,63.0260,0.010220
31.047,63.0570,0.009297
31.078,63.0880,0.009297
31.110,63.1195,0.009297
31.142,63.1517,0.009297
31.172,63.1818,0.009297
31.202,63.2116,0.009297
31.233,63.2427,0.009297
31.264,63.2743,0.009297
31.294,63.3044,0.008225
31.326,63.3357,0.008225
31.357,63.3667,0.008225
31.388,63.3973,0.008225
31.419,63.4283,0.008225
31.450,63.4603,0.008225
31.481,63.4907,0.008225
31.512,63.5222,0.008225
31.543,63.5528,0.008225
31.575,63.5848,0.006832
31.606,63.6156,0.006832
31.637,63.6472,0.006832
31.667,63.6772,0.006832
31.698,63.7087,0.006832
31.729,63.7385,0.006832
31.761,63.7715,0.006832
31.791,63.8011,0.005195
31.822,63.8320,0.005195
31.853,63.8631,0.005195
31.885,63.8960,0.005195
31.914,63.9242,0.005195
31.946,63.9554,0.005195
31.977,63.9865,0.005195
32.008,64.0182,0.005195
32.039,64.0483,0.002993
32.071,64.0807,0.002993
32.101,64.1109,0.002993
32.133,64.1433,0.002993
32.164,64.1738,0.002993
32.195,64.2053,0.002993
32.225,64.2350,0.002993
32.256,64.2662,0.002993
32.287,64.2964,-0.000179
32.318,64.3286,-0.000179
32.349,64.3594,-0.000179
32.380,64.3902,-0.000179
32.411,64.4205,-0.000179
32.441,64.4518,-0.000179
32.472,64.4819,-0.000179
32.503,64.5129,-0.000179
32.534,64.5450,-0.004799
32.565,64.5750,-0.004799
32.596,64.6059,-0.004799
32.627,64.6372,-0.004799
32.658,64.6682,-0.004799
32.688,64.6979,-0.004799
32.719,64.7288,-0.004799
32.751,64.7607,-0.004799
32.781,64.7911,-0.011659
32.813,64.8230,-0.011659
32.845,64.8543,-0.011659
32.876,64.8857,-0.011659
32.907,64.9166,-0.011659
32.937,64.9471,-0.011659
32.968,64.9780,-0.011659
32.999,65.0091,-0.011659
33.030,65.0401,-0.021776
33.061,65.0714,-0.021776
33.092,65.1021,-0.021776
33.123,65.1336,-0.021776
33.154,65.1650,-0.021776
33.186,65.1963,-0.021776
33.216,65.2263,-0.021776
33.247,65.2574,-0.021776
33.278,65.2887,-0.036578
33.309,65.3198,-0.036578
33.341,65.3514,-0.036578
33.373,65.3832,-0.036578
33.402,65.4117,-0.036578
33.432,65.4413,-0.036578
33.462,65.4720,-0.036578
33.494,65.5040,-0.036578
33.525,65.5351,-0.058194
33.555,65.5654,-0.058194
33.587,65.5969,-0.058194
33.619,65.6289,-0.058194
33.649,65.6590,-0.058194
33.681,65.6909,-0.058194
33.712,65.7218,-0.058194
33.743,65.7533,-0.058194
33.774,65.7836,-0.058194
33.804,65.8146,-0.089399
33.835,65.8433,-0.089399
33.866,65.8746,-0.089399
33.897,65.9027,-0.089399
33.928,65.9306,-0.089399
33.959,65.9576,-0.089399
33.994,65.9879,-0.089399
34.020,66.0096,-0.132988
34.053,66.0371,-0.132988
34.083,66.0602,-0.132988
34.115,66.0846,-0.132988
34.146,66.1078,-0.132988
34.176,66.1295,-0.132988
34.207,66.1510,-0.132988
34.238,66.1716,-0.132988
34.269,66.1916,-0.198587
34.300,66.2109,-0.198587
34.331,66.2294,-0.198587
34.362,66.2477,-0.198587
34.393,66.2647,-0.198587
34.424,66.2815,-0.198587
34.456,66.2971,-0.198587
34.485,66.3116,-0.198587
34.516,66.3256,-0.322118
34.548,66.3395,-0.322118
34.579,66.3523,-0.322118
34.610,66.3647,-0.322118
34.641,66.3760,-0.322118
34.672,66.3869,-0.322118
34.703,66.3967,-0.322118
34.734,66.4057,-0.322118
34.766,66.4144,-0.506618
34.796,66.4220,-0.506618
34.828,66.4292,-0.506618
34.859,66.4353,-0.506618
34.890,66.4408,-0.506618
34.920,66.4457,-0.506618
34.951,66.4496,-0.506618
34.982,66.4530,-0.506618
35.013,66.4556,-0.695211
35.044,66.4576,-0.695211
35.075,66.4587,-0.695211
35.106,66.4592,-0.695211
35.136,66.4592,-0.695211
35.167,66.4592,-0.695211
35.197,66.4592,-0.695211
35.228,66.4592,-0.695211
35.261,66.4592,-0.695211
35.291,66.4592,-0.695211
35.323,66.4592,-0.685754
35.353,66.4592,-0.685754
35.383,66.4592,-0.685754
35.416,66.4592,-0.685754
35.447,66.4592,-0.685754
35.477,66.4592,-0.685754
35.509,66.4592,-0.685754
35.539,66.4592,-0.494506
35.570,66.4592,-0.494506
35.601,66.4592,-0.494506
35.631,66.4592,-0.494506
35.664,66.4592,-0.494506
35.695,66.4592,-0.494506
35.726,66.4592,-0.494506
35.756,66.4592,-0.366920
35.787,66.4592,-0.366920
35.817,66.4592,-0.366920
35.848,66.4592,-0.366920
35.879,66.4592,-0.366920
35.911,66.4592,-0.366920
35.941,66.4592,-0.366920
35.973,66.4592,-0.366920
36.003,66.4592,-0.366920
36.034,66.4592,-0.319323
36.065,66.4592,-0.319323
36.096,66.4592,-0.319323
36.128,66.4592,-0.319323
36.159,66.4592,-0.319323
36.190,66.4592,-0.319323
36.220,66.4592,-0.319323
36.253,66.4592,-0.319323
36.285,66.4592,-0.296851
36.314,66.4592,-0.296851
36.345,66.4592,-0.296851
36.376,66.4592,-0.296851
36.407,66.4592,-0.296851
36.438,66.4592,-0.296851
36.471,66.4592,-0.296851
36.501,66.4592,-0.296851
36.531,66.4592,-0.296851
36.561,66.4592,-0.284448
36.593,66.4592,-0.284448
36.623,66.4592,-0.284448
36.654,66.4592,-0.284448
36.685,66.4592,-0.284448
36.716,66.4592,-0.284448
36.747,66.4592,-0.284448
36.777,66.4592,-0.284448
36.809,66.4592,-0.276355
36.840,66.4592,-0.276355
36.871,66.4592,-0.276355
36.902,66.4592,-0.276355
36.934,66.4592,-0.276355
36.964,66.4592,-0.276355
36.996,66.4592,-0.276355
37.027,66.4592,-0.269815
37.058,66.4592,-0.269815
37.092,66.4592,-0.269815
37.119,66.4592,-0.269815
37.151,66.4592,-0.269815
37.181,66.4592,-0.269815
37.212,66.4592,-0.269815
37.242,66.4592,-0.269815
37.274,66.4592,-0.269815
37.305,66.4592,-0.264507
37.337,66.4592,-0.264507
37.368,66.4592,-0.264507
37.399,66.4592,-0.264507
37.431,66.4592,-0.264507
37.463,66.4592,-0.264507
37.494,66.4592,-0.264507
37.525,66.4592,-0.260150
37.557,66.4592,-0.260150
37.588,66.4592,-0.260150
37.616,66.4592,-0.260150
37.651,66.4592,-0.260150
37.682,66.4592,-0.260150
37.712,66.4592,-0.260150
37.743,66.4592,-0.260150
37.774,66.4592,-0.256414
37.805,66.4592,-0.256414
37.836,66.4592,-0.256414
37.867,66.4592,-0.256414
37.899,66.4592,-0.256414
37.930,66.4592,-0.256414
37.961,66.4592,-0.256414
37.992,66.4592,-0.256414
38.023,66.4592,-0.256414
38.055,66.4592,-0.253205
38.086,66.4592,-0.253205
38.118,66.4592,-0.253205
38.155,66.4592,-0.253205
38.195,66.4592,-0.253205
38.226,66.4592,-0.253205
38.259,66.4592,-0.253205
38.288,66.4592,-0.250439
38.321,66.4592,-0.250439
38.351,66.4592,-0.250439
38.384,66.4592,-0.250439
38.413,66.4592,-0.250439
38.444,66.4592,-0.250439
38.475,66.4592,-0.250439
38.506,66.4592,-0.250439
38.537,66.4592,-0.247992
38.568,66.4592,-0.247992
38.599,66.4592,-0.247992
38.631,66.4592,-0.247992
38.661,66.4592,-0.247992
38.694,66.4592,-0.247992
38.724,66.4592,-0.247992
38.756,66.4592,-0.247992
38.787,66.4592,-0.245884
38.818,66.4592,-0.245884
38.849,66.4592,-0.245884
38.883,66.4592,-0.245884
38.910,66.4592,-0.245884
38.941,66.4592,-0.245884
38.971,66.4592,-0.245884
39.002,66.4592,-0.245884
39.033,66.4592,-0.243870
39.064,66.4592,-0.243870
39.096,66.4592,-0.243870
39.127,66.4592,-0.243870
39.158,66.4592,-0.243870
39.189,66.4592,-0.243870
39.220,66.4592,-0.243870
39.251,66.4592,-0.243870
39.282,66.4592,-0.241988
39.313,66.4592,-0.241988
39.344,66.4592,-0.241988
39.374,66.4592,-0.241988
39.405,66.4592,-0.241988
39.437,66.4592,-0.241988
39.467,66.4592,-0.241988
39.498,66.4592,-0.241988
39.529,66.4592,-0.240294
39.560,66.4592,-0.240294
39.591,66.4592,-0.240294
39.622,66.4592,-0.240294
39.652,66.4592,-0.240294
39.683,66.4592,-0.240294
39.713,66.4592,-0.240294
39.745,66.4592,-0.240294
39.775,66.4592,-0.240294
39.806,66.4592,-0.238694
39.838,66.4592,-0.238694
39.869,66.4592,-0.238694
39.899,66.4592,-0.238694
39.932,66.4592,-0.238694
39.961,66.4592,-0.238694
39.993,66.4592,-0.238694
40.025,66.4592,-0.236539
40.058,66.4592,-0.236539
40.087,66.4592,-0.236539
40.118,66.4592,-0.236539
40.148,66.4592,-0.236539
40.179,66.4592,-0.236539
40.211,66.4592,-0.236539
40.242,66.4592,-0.236539
40.273,66.4592,-0.233378
40.304,66.4592,-0.233378
40.334,66.4592,-0.233378
40.365,66.4592,-0.233378
40.396,66.4592,-0.233378
40.426,66.4590,-0.233378
40.458,66.4581,-0.233378
40.488,66.4563,-0.233378
40.518,66.4540,-0.229199
40.550,66.4509,-0.229199
40.581,66.4470,-0.229199
40.613,66.4423,-0.229199
40.643,66.4371,-0.229199
40.674,66.4310,-0.229199
40.706,66.4242,-0.229199
40.736,66.4168,-0.229199
40.767,66.4085,0.093859
40.800,66.3993,0.093859
40.830,66.3899,0.093859
40.861,66.3795,0.093859
40.892,66.3683,0.093859
40.923,66.3560,0.093859
40.956,66.3424,0.093859
40.985,66.3302,0.093859
41.016,66.3162,0.093859
41.048,66.3011,0.093859
41.078,66.2857,0.189986
41.109,66.2699,0.189986
41.140,66.2529,0.189986
41.171,66.2347,0.189986
41.202,66.2165,0.189986
41.233,66.1975,0.189986
41.265,66.1775,0.189986
41.296,66.1568,-0.031054
41.327,66.1349,-0.031054
41.358,66.1133,-0.031054
41.389,66.0905,-0.031054
41.420,66.0664,-0.031054
41.452,66.0420,-0.031054
41.482,66.0177,-0.031054
41.513,65.9908,-0.031054
41.544,65.9648,-0.010493
41.575,65.9376,-0.010493
41.607,65.9094,-0.010493
41.638,65.8805,-0.010493
41.668,65.8522,-0.010493
41.699,65.8220,-0.010493
41.730,65.7911,-0.010493
41.761,65.7608,-0.010493
41.793,65.7288,0.022416
41.824,65.6973,0.022416
41.855,65.6656,0.022416
41.887,65.6342,0.022416
41.919,65.6028,0.022416
41.950,65.5713,0.022416
41.979,65.5424,0.022416
42.011,65.5100,0.047391
42.042,65.4784,0.047391
42.074,65.4475,0.047391
42.105,65.4165,0.047391
42.136,65.3853,0.047391
42.166,65.3553,0.047391
42.197,65.3243,0.047391
42.228,65.2940,0.047391
42.259,65.2616,0.047391
42.290,65.2316,0.059380
42.321,65.2001,0.059380
42.351,65.1702,0.059380
42.383,65.1383,0.059380
42.413,65.1082,0.059380
42.444,65.0758,0.059380
42.475,65.0469,0.059380
42.506,65.0152,0.059380
42.534,64.9877,0.062156
42.568,64.9537,0.062156
42.599,64.9223,0.062156
42.630,64.8915,0.062156
42.661,64.8600,0.062156
42.692,64.8289,0.062156
42.723,64.7989,0.062156
42.754,64.7674,0.061026
42.785,64.7360,0.061026
42.816,64.7058,0.061026
42.846,64.6755,0.061026
42.877,64.6445,0.061026
42.907,64.6142,0.061026
42.938,64.5831,0.061026
42.969,64.5521,0.061026
43.001,64.5203,0.061026
43.031,64.4901,0.058909
43.063,64.4585,0.058909
43.091,64.4299,0.058909
43.117,64.4044,0.058909
43.157,64.3646,0.058909
43.186,64.3349,0.058909
43.217,64.3038,0.058909
43.248,64.2732,0.058909
43.279,64.2422,0.057742
43.311,64.2097,0.057742
43.341,64.1803,0.057742
43.372,64.1494,0.057742
43.404,64.1178,0.057742
43.435,64.0861,0.057742
43.466,64.0553,0.057742
43.497,64.0238,0.057742
43.529,63.9919,0.058956
43.561,63.9609,0.058956
43.591,63.9302,0.058956
43.622,63.8994,0.058956
43.653,63.8674,0.058956
43.685,63.8366,0.058956
43.717,63.8046,0.058956
43.748,63.7735,0.058956
43.778,63.7432,0.058956
43.810,63.7121,0.061949
43.841,63.6801,0.061949
43.871,63.6502,0.061949
43.902,63.6192,0.061949
43.933,63.5874,0.061949
43.964,63.5573,0.061949
43.996,63.5252,0.061949
44.027,63.4949,0.061949
44.058,63.4630,0.066099
44.089,63.4315,0.066099
44.120,63.4008,0.066099
44.151,63.3706,0.066099
44.182,63.3391,0.066099
44.213,63.3090,0.066099
44.244,63.2766,0.066099
44.274,63.2477,0.066099
44.305,63.2161,0.072055
44.337,63.1842,0.072055
44.368,63.1531,0.072055
44.400,63.1206,0.072055
44.432,63.0900,0.072055
44.462,63.0593,0.072055
44.492,63.0295,0.072055
44.524,62.9978,0.072055
44.554,62.9673,0.078821
44.585,62.9368,0.078821
44.615,62.9064,0.078821
44.647,62.8741,0.078821
44.677,62.8444,0.078821
44.707,62.8144,0.078821
44.739,62.7818,0.078821
44.770,62.7511,0.078821
44.800,62.7213,0.082576
44.832,62.6896,0.082576
44.862,62.6590,0.082576
44.895,62.6263,0.082576
44.926,62.5956,0.082576
44.956,62.5646,0.082576
44.987,62.5342,0.082576
45.018,62.5026,0.082576
45.050,62.4718,0.055851
45.081,62.4407,0.055851
45.111,62.4101,0.055851
45.143,62.3783,0.055851
45.173,62.3484,0.055851
45.204,62.3173,0.055851
45.235,62.2864,0.055851
45.266,62.2559,0.055851
45.297,62.2245,0.023422
45.328,62.1932,0.023422
45.359,62.1630,0.023422
45.390,62.1315,0.023422
45.420,62.1014,0.023422
45.452,62.0696,0.023422
45.483,62.0395,0.023422
45.514,62.0087,0.023422
45.544,61.9803,0.017569
45.576,61.9514,0.017569
45.607,61.9240,0.017569
45.638,61.8966,0.017569
45.668,61.8713,0.017569
45.702,61.8428,0.017569
45.730,61.8207,0.017569
45.757,61.7995,0.017569
45.792,61.7730,0.016402
45.823,61.7504,0.016402
45.854,61.7284,0.016402
45.886,61.7071,0.016402
45.917,61.6863,0.016402
45.948,61.6666,0.016402
45.980,61.6471,0.016402
46.011,61.6286,0.016402
46.042,61.6110,0.015659
46.074,61.5938,0.015659
46.105,61.5781,0.015659
46.137,61.5625,0.015659
46.167,61.5480,0.015659
46.198,61.5344,0.015659
46.229,61.5213,0.015659
46.260,61.5087,0.015659
46.291,61.4968,0.015245
46.322,61.4861,0.015245
46.354,61.4758,0.015245
46.385,61.4661,0.015245
46.415,61.4576,0.015245
46.446,61.4496,0.015245
46.476,61.4425,0.015245
46.508,61.4359,0.015245
46.538,61.4299,0.014831
46.569,61.4250,0.014831
46.600,61.4206,0.014831
46.631,61.4168,0.014831
46.662,61.4139,0.014831
46.692,61.4116,0.014831
46.723,61.4101,0.014831
46.755,61.4093,0.014831
46.786,61.4092,0.014831
46.817,61.4092,0.014501
46.849,61.4092,0.014501
46.880,61.4092,0.014501
46.909,61.4092,0.014501
46.940,61.4092,0.014501
46.971,61.4092,0.014501
47.002,61.4092,0.014501
47.034,61.4092,0.014379
47.064,61.4092,0.014379
47.096,61.4092,0.014379
47.127,61.4092,0.014379
47.158,61.4092,0.014379
47.189,61.4092,0.014379
47.220,61.4092,0.014379
47.251,61.4092,0.014379
47.282,61.4092,0.014323
47.314,61.4092,0.014323
47.344,61.4092,0.014323
47.370,61.4092,0.014323
47.407,61.4096,0.014323
47.437,61.4108,0.014323
47.468,61.4126,0.014323
47.499,61.4152,0.014323
47.530,61.4185,0.014247
47.560,61.4224,0.014247
47.591,61.4272,0.014247
47.622,61.4327,0.014247
47.653,61.4387,0.014247
47.683,61.4456,0.014247
47.715,61.4532,0.014247
47.746,61.4617,0.014247
47.777,61.4706,0.014040
47.808,61.4805,0.014040
47.838,61.4908,0.014040
47.871,61.5030,0.014040
47.901,61.5145,0.014040
47.927,61.5252,0.014040
47.963,61.5408,0.014040
47.994,61.5549,0.014040
48.025,61.5701,0.013692
48.057,61.5864,0.013692
48.087,61.6018,0.013692
48.118,61.6187,0.013692
48.149,61.6369,0.013692
48.180,61.6550,0.013692
48.211,61.6749,0.013692
48.243,61.6948,0.013692
48.274,61.7159,0.013325
48.305,61.7378,0.013325
48.337,61.7603,0.013325
48.368,61.7836,0.013325
48.399,61.8071,0.013325
48.430,61.8313,0.013325
48.460,61.8557,0.013325
48.490,61.8811,0.013325
48.521,61.9074,0.012855
48.553,61.9353,0.012855
48.585,61.9640,0.012855
48.615,61.9925,0.012855
48.647,62.0233,0.012855
48.678,62.0534,0.012855
48.708,62.0829,0.012855
48.739,62.1142,0.012855
48.770,62.1450,0.012196
48.801,62.1759,0.012196
48.832,62.2074,0.012196
48.863,62.2374,0.012196
48.894,62.2697,0.012196
48.928,62.3043,0.012196
48.957,62.3317,0.012196
48.987,62.3616,0.012196
49.018,62.3933,0.012196
49.049,62.4241,0.011462
49.082,62.4571,0.011462
49.113,62.4875,0.011462
49.143,62.5184,0.011462
49.175,62.5499,0.011462
49.207,62.5819,0.011462
49.238,62.6139,0.011462
49.269,62.6444,0.010681
49.300,62.6747,0.010681
49.331,62.7054,0.010681
49.362,62.7374,0.010681
49.393,62.7686,0.010681
49.424,62.7989,0.010681
49.455,62.8305,0.010681
49.486,62.8607,0.010681
49.517,62.8923,0.010681
49.548,62.9232,0.009749
49.580,62.9547,0.009749
49.610,62.9853,0.009749
49.641,63.0169,0.009749
49.672,63.0473,0.009749
49.702,63.0773,0.009749
49.733,63.1083,0.009749
49.763,63.1383,0.008667
49.795,63.1697,0.008667
49.825,63.2001,0.008667
49.857,63.2315,0.008667
49.888,63.2630,0.008667
49.919,63.2937,0.008667
49.949,63.3241,0.008667
49.979,63.3544,0.008667
50.010,63.3852,0.008667
50.041,63.4167,0.008667
50.072,63.4478,0.007387
50.104,63.4790,0.007387
50.135,63.5100,0.007387
50.165,63.5399,0.007387
50.196,63.5707,0.007387
50.227,63.6024,0.007387
50.258,63.6332,0.007387
50.290,63.6652,0.007387
50.319,63.6938,0.005863
50.350,63.7249,0.005863
50.380,63.7549,0.005863
50.411,63.7867,0.005863
50.442,63.8174,0.005863
50.473,63.8488,0.005863
50.505,63.8793,0.005863
50.535,63.9105,0.003924
50.566,63.9409,0.003924
50.597,63.9720,0.003924
50.625,64.0002,0.003924
50.660,64.0359,0.003924
50.691,64.0663,0.003924
50.723,64.0979,0.003924
50.754,64.1294,0.003924
50.785,64.1603,0.001148
50.816,64.1911,0.001148
50.847,64.2219,0.001148
50.878,64.2527,0.001148
50.909,64.2843,0.001148
50.940,64.3147,0.001148
50.971,64.3465,0.001148
51.003,64.3775,0.001148
51.034,64.4091,0.001148
51.064,64.4390,-0.002917
51.095,64.4704,-0.002917
51.126,64.5020,-0.002917
51.158,64.5330,-0.002917
51.189,64.5631,-0.002917
51.220,64.5955,-0.002917
51.250,64.6253,-0.002917
51.282,64.6574,-0.008770
51.313,64.6874,-0.008770
51.343,64.7187,-0.008770
51.375,64.7494,-0.008770
51.405,64.7804,-0.008770
51.438,64.8129,-0.008770
51.468,64.8433,-0.008770
51.500,64.8748,-0.008770
51.531,64.9064,-0.017541
51.562,64.9372,-0.017541
51.594,64.9687,-0.017541
51.624,64.9987,-0.017541
51.655,65.0301,-0.017541
51.686,65.0617,-0.017541
51.717,65.0923,-0.017541
51.748,65.1232,-0.017541
51.778,65.1537,-0.030546
51.810,65.1846,-0.030546
51.842,65.2172,-0.030546
51.874,65.2486,-0.030546
51.904,65.2792,-0.030546
51.934,65.3089,-0.030546
51.965,65.3403,-0.030546
51.997,65.3718,-0.030546
52.029,65.4033,-0.049470
52.061,65.4356,-0.049470
52.091,65.4654,-0.049470
52.122,65.4974,-0.049470
52.154,65.5288,-0.049470
52.184,65.5590,-0.049470
52.216,65.5903,-0.049470
52.248,65.6228,-0.049470
52.277,65.6527,-0.076986
52.308,65.6832,-0.076986
52.338,65.7128,-0.076986
52.368,65.7431,-0.076986
52.399,65.7740,-0.076986
52.431,65.8047,-0.076986
52.463,65.8345,-0.076986
52.493,65.8625,-0.076986
52.524,65.8902,-0.076986
52.555,65.9177,-0.116011
52.587,65.9443,-0.116011
52.617,65.9703,-0.116011
52.648,65.9947,-0.116011
52.680,66.0195,-0.116011
52.710,66.0421,-0.116011
52.741,66.0652,-0.116011
52.772,66.0868,-0.170422
52.803,66.1088,-0.170422
52.835,66.1292,-0.170422
52.865,66.1490,-0.170422
52.897,66.1680,-0.170422
52.928,66.1868,-0.170422
52.958,66.2038,-0.170422
52.989,66.2207,-0.170422
53.019,66.2365,-0.269598
53.052,66.2527,-0.269598
53.083,66.2676,-0.269598
53.113,66.2812,-0.269598
53.144,66.2944,-0.269598
53.175,66.3069,-0.269598
53.206,66.3187,-0.269598
53.241,66.3313,-0.269598
53.269,66.3404,-0.269598
53.299,66.3499,-0.433527
53.331,66.3591,-0.433527
53.362,66.3674,-0.433527
53.393,66.3746,-0.433527
53.428,66.3823,-0.433527
53.455,66.3875,-0.433527
53.487,66.3928,-0.433527
53.518,66.3973,-0.629527
53.549,66.4010,-0.629527
53.580,66.4043,-0.629527
53.611,66.4065,-0.629527
53.643,66.4082,-0.629527
53.674,66.4091,-0.629527
53.705,66.4092,-0.629527
53.736,66.4092,-0.629527
53.767,66.4092,-0.711463
53.798,66.4092,-0.711463
53.829,66.4092,-0.711463
53.860,66.4092,-0.711463
53.891,66.4092,-0.711463
53.921,66.4092,-0.711463
53.952,66.4092,-0.711463
53.984,66.4092,-0.711463
54.015,66.4092,-0.565404
54.046,66.4092,-0.565404
54.077,66.4092,-0.565404
54.108,66.4092,-0.565404
54.139,66.4092,-0.565404
54.170,66.4092,-0.565404
54.200,66.4092,-0.565404
54.231,66.4092,-0.565404
54.262,66.4092,-0.394022
54.294,66.4092,-0.394022
54.326,66.4092,-0.394022
54.357,66.4092,-0.394022
54.388,66.4092,-0.394022
54.419,66.4092,-0.394022
54.450,66.4092,-0.394022
54.482,66.4092,-0.394022
54.512,66.4092,-0.394022
54.543,66.4092,-0.333109
54.574,66.4092,-0.333109
54.606,66.4092,-0.333109
54.637,66.4092,-0.333109
54.668,66.4092,-0.333109
54.699,66.4092,-0.333109
54.731,66.4092,-0.333109
54.763,66.4092,-0.333109
54.794,66.4092,-0.305518
54.825,66.4092,-0.305518
54.856,66.4092,-0.305518
54.887,66.4092,-0.305518
54.919,66.4092,-0.305518
54.950,66.4092,-0.305518
54.981,66.4092,-0.305518
55.011,66.4092,-0.305518
55.042,66.4092,-0.289642
55.073,66.4092,-0.289642
55.106,66.4092,-0.289642
55.136,66.4092,-0.289642
55.166,66.4092,-0.289642
55.196,66.4092,-0.289642
55.228,66.4092,-0.289642
55.259,66.4092,-0.289642
55.291,66.4092,-0.279140
55.320,66.4092,-0.279140
55.354,66.4092,-0.279140
55.382,66.4092,-0.279140
55.412,66.4092,-0.279140
55.444,66.4092,-0.279140
55.474,66.4092,-0.279140
55.505,66.4092,-0.279140
55.536,66.4092,-0.271537
55.567,66.4092,-0.271537
55.599,66.4092,-0.271537
55.628,66.4092,-0.271537
55.659,66.4092,-0.271537
55.689,66.4092,-0.271537
55.720,66.4092,-0.271537
55.752,66.4092,-0.271537
55.784,66.4092,-0.265599
55.815,66.4092,-0.265599
55.847,66.4092,-0.265599
55.878,66.4092,-0.265599
55.910,66.4092,-0.265599
55.941,66.4092,-0.265599
55.972,66.4092,-0.265599
56.002,66.4092,-0.265599
56.033,66.4092,-0.260809
56.064,66.4092,-0.260809
56.095,66.4092,-0.260809
56.127,66.4092,-0.260809
56.158,66.4092,-0.260809
56.189,66.4092,-0.260809
56.221,66.4092,-0.260809
56.251,66.4092,-0.260809
56.282,66.4092,-0.256791
56.313,66.4092,-0.256791
56.345,66.4092,-0.256791
56.376,66.4092,-0.256791
56.406,66.4092,-0.256791
56.438,66.4092,-0.256791
56.469,66.4092,-0.256791
56.501,66.4092,-0.256791
56.532,66.4092,-0.253375
56.562,66.4092,-0.253375
56.594,66.4092,-0.253375
56.625,66.4092,-0.253375
56.656,66.4092,-0.253375
56.687,66.4092,-0.253375
56.717,66.4092,-0.253375
56.748,66.4092,-0.253375
56.779,66.4092,-0.250429
56.810,66.4092,-0.250429
56.841,66.4092,-0.250429
56.872,66.4092,-0.250429
56.903,66.4092,-0.250429
56.934,66.4092,-0.250429
56.964,66.4092,-0.250429
56.996,66.4092,-0.250429
57.026,66.4092,-0.250429
57.057,66.4092,-0.247841
57.088,66.4092,-0.247841
57.119,66.4092,-0.247841
57.150,66.4092,-0.247841
57.181,66.4092,-0.247841
57.212,66.4092,-0.247841
57.244,66.4092,-0.247841
57.274,66.4092,-0.245536
57.305,66.4092,-0.245536
57.336,66.4092,-0.245536
57.371,66.4092,-0.245536
57.398,66.4092,-0.245536
57.429,66.4092,-0.245536
57.459,66.4092,-0.245536
57.490,66.4092,-0.245536
57.522,66.4092,-0.245536
57.553,66.4092,-0.243080
57.583,66.4092,-0.243080
57.613,66.4092,-0.243080
57.645,66.4092,-0.243080
57.675,66.4092,-0.243080
57.706,66.4092,-0.243080
57.740,66.4092,-0.243080
57.768,66.4092,-0.239833
57.799,66.4092,-0.239833
57.830,66.4092,-0.239833
57.861,66.4092,-0.239833
57.892,66.4092,-0.239833
57.923,66.4092,-0.239833
57.954,66.4092,-0.239833
57.985,66.4090,-0.239833
58.016,66.4080,-0.236229
58.047,66.4062,-0.236229
58.078,66.4039,-0.236229
58.111,66.4007,-0.236229
58.140,66.3969,-0.236229
58.171,66.3922,-0.236229
58.202,66.3870,-0.236229
58.234,66.3808,-0.236229
58.264,66.3741,-0.236229
58.297,66.3661,-0.150190
58.326,66.3584,-0.150190
58.357,66.3492,-0.150190
58.388,66.3396,-0.150190
58.419,66.3292,-0.150190
58.450,66.3183,-0.150190
58.481,66.3064,-0.150190
58.512,66.2936,-0.150190
58.544,66.2799,-0.031111
58.575,66.2655,-0.031111
58.607,66.2507,-0.031111
58.638,66.2352,-0.031111
58.669,66.2187,-0.031111
58.699,66.2022,-0.031111
58.730,66.1844,-0.031111
58.761,66.1661,-0.031111
58.793,66.1462,-0.016487
58.824,66.1259,-0.016487
58.855,66.1051,-0.016487
58.886,66.0840,-0.016487
58.917,66.0617,-0.016487
58.949,66.0386,-0.016487
58.980,66.0148,-0.016487
59.010,65.9918,-0.016487
59.041,65.9667,-0.020788
59.072,65.9407,-0.020788
59.103,65.9147,-0.020788
59.133,65.8877,-0.020788
59.164,65.8605,-0.020788
59.194,65.8315,-0.020788
59.225,65.8030,-0.020788
59.257,65.7717,-0.020788
59.288,65.7418,0.011895
59.319,65.7102,0.011895
59.350,65.6797,0.011895
59.380,65.6493,0.011895
59.411,65.6182,0.011895
59.443,65.5864,0.011895
59.474,65.5554,0.011895
59.506,65.5234,0.011895
59.537,65.4919,0.040069
59.569,65.4606,0.040069
59.600,65.4301,0.040069
59.631,65.3986,0.040069
59.661,65.3680,0.040069
59.692,65.3370,0.040069
59.723,65.3064,0.040069
59.754,65.2747,0.040069
59.785,65.2449,0.040069
59.816,65.2136,0.055559
59.846,65.1834,0.055559
59.877,65.1519,0.055559
59.908,65.1212,0.055559
59.940,65.0892,0.055559
59.970,65.0591,0.055559
60.002,65.0275,0.055559
60.033,64.9970,0.060189
60.064,64.9650,0.060189
60.095,64.9347,0.060189
60.126,64.9026,0.060189
60.158,64.8722,0.060189
60.188,64.8411,0.060189
60.219,64.8094,0.060189
60.250,64.7793,0.060189
60.282,64.7480,0.060057
60.313,64.7162,0.060057
60.345,64.6848,0.060057
60.376,64.6532,0.060057
60.407,64.6228,0.060057
60.438,64.5912,0.060057
60.469,64.5603,0.060057
60.500,64.5290,0.060057
60.530,64.4989,0.058344
60.561,64.4676,0.058344
60.592,64.4370,0.058344
60.624,64.4050,0.058344
60.654,64.3750,0.058344
60.685,64.3435,0.058344
60.716,64.3130,0.058344
60.747,64.2823,0.058344
60.778,64.2507,0.056933
60.809,64.2201,0.056933
60.840,64.1894,0.056933
60.871,64.1581,0.056933
60.903,64.1264,0.056933
60.934,64.0957,0.056933
60.966,64.0637,0.056933
60.996,64.0338,0.056933
61.028,64.0012,0.056933
61.057,63.9723,0.057563
61.088,63.9414,0.057563
61.120,63.9099,0.057563
61.151,63.8778,0.057563
61.182,63.8473,0.057563
61.213,63.8165,0.057563
61.244,63.7856,0.057563
61.275,63.7549,0.057563
61.306,63.7234,0.060095
61.337,63.6924,0.060095
61.368,63.6616,0.060095
61.398,63.6306,0.060095
61.430,63.6001,0.060095
61.461,63.5678,0.060095
61.492,63.5372,0.060095
61.524,63.5052,0.060095
61.555,63.4749,0.063906
61.586,63.4432,0.063906
61.617,63.4132,0.063906
61.649,63.3803,0.063906
61.680,63.3496,0.063906
61.712,63.3171,0.063906
61.742,63.2867,0.063906
61.773,63.2555,0.063906
61.805,63.2249,0.069665
61.836,63.1918,0.069665
61.867,63.1625,0.069665
61.899,63.1305,0.069665
61.928,63.1018,0.069665
61.959,63.0704,0.069665
61.990,63.0389,0.069665
62.021,63.0087,0.069665
62.051,62.9784,0.076789
62.082,62.9467,0.076789
62.112,62.9172,0.076789
62.143,62.8868,0.076789
62.174,62.8561,0.076789
62.205,62.8237,0.076789
62.236,62.7932,0.076789
62.268,62.7608,0.076789
62.299,62.7301,0.082012
62.330,62.6992,0.082012
62.361,62.6687,0.082012
62.392,62.6375,0.082012
62.423,62.6068,0.082012
62.454,62.5753,0.082012
62.486,62.5433,0.082012
62.516,62.5135,0.082012
62.546,62.4835,0.082012
62.577,62.4527,0.062043
62.608,62.4222,0.062043
62.639,62.3906,0.062043
62.670,62.3594,0.062043
62.700,62.3297,0.062043
62.731,62.2983,0.062043
62.763,62.2666,0.062043
62.794,62.2360,0.029709
62.825,62.2046,0.029709
62.856,62.1739,0.029709
62.886,62.1436,0.029709
62.917,62.1125,0.029709
62.949,62.0802,0.029709
62.979,62.0494,0.029709
63.010,62.0192,0.029709
63.042,61.9885,0.017974
63.072,61.9586,0.017974
63.104,61.9294,0.017974
63.135,61.9002,0.017974
63.166,61.8728,0.017974
63.196,61.8465,0.017974
63.227,61.8206,0.017974
63.258,61.7948,0.017974
63.289,61.7704,0.016525
63.320,61.7461,0.016525
63.350,61.7237,0.016525
63.382,61.7000,0.016525
63.412,61.6788,0.016525
63.443,61.6579,0.016525
63.474,61.6377,0.016525
63.505,61.6173,0.016525
63.535,61.5982,0.015791
63.566,61.5805,0.015791
63.597,61.5626,0.015791
63.628,61.5460,0.015791
63.660,61.5295,0.015791
63.692,61.5139,0.015791
63.722,61.4995,0.015791
63.754,61.4854,0.015791
63.784,61.4725,0.015330
63.815,61.4596,0.015330
63.846,61.4480,0.015330
63.878,61.4366,0.015330
63.909,61.4267,0.015330
63.939,61.4173,0.015330
63.971,61.4083,0.015330
64.002,61.4002,0.015330
64.033,61.3928,0.014963
64.065,61.3859,0.014963
64.095,61.3802,0.014963
64.126,61.3751,0.014963
64.158,61.3706,0.014963
64.189,61.3668,0.014963
64.220,61.3639,0.014963
64.251,61.3617,0.014963
64.281,61.3602,0.014624
64.318,61.3592,0.014624
64.358,61.3592,0.014624
64.390,61.3592,0.014624
64.421,61.3592,0.014624
64.452,61.3592,0.014624
64.482,61.3592,0.014624
64.513,61.3592,0.014426
64.544,61.3592,0.014426
64.575,61.3592,0.014426
64.605,61.3592,0.014426
64.636,61.3592,0.014426
64.668,61.3592,0.014426
64.699,61.3592,0.014426
64.730,61.3592,0.014426
64.761,61.3592,0.014426
64.792,61.3592,0.014370
64.823,61.3592,0.014370
64.855,61.3592,0.014370
64.886,61.3592,0.014370
64.917,61.3592,0.014370
64.948,61.3596,0.014370
64.978,61.3608,0.014370
65.009,61.3627,0.014370
65.041,61.3654,0.014323
65.072,61.3687,0.014323
65.104,61.3727,0.014323
65.134,61.3776,0.014323
65.165,61.3832,0.014323
65.196,61.3892,0.014323
65.227,61.3962,0.014323
65.258,61.4040,0.014323
65.289,61.4126,0.014116
65.320,61.4216,0.014116
65.351,61.4317,0.014116
65.382,61.4423,0.014116
65.414,61.4539,0.014116
65.445,61.4663,0.014116
65.476,61.4792,0.014116
65.508,61.4928,0.014116
65.539,61.5072,0.013767
65.570,61.5221,0.013767
65.601,61.5377,0.013767
65.631,61.5538,0.013767
65.661,61.5707,0.013767
65.692,61.5886,0.013767
65.724,61.6075,0.013767
65.755,61.6272,0.013767
65.786,61.6471,0.013767
65.817,61.6682,0.013438
65.848,61.6896,0.013438
65.880,61.7127,0.013438
65.911,61.7359,0.013438
65.942,61.7592,0.013438
65.973,61.7838,0.013438
66.004,61.8091,0.013438
66.035,61.8346,0.013033
66.066,61.8612,0.013033
66.097,61.8886,0.013033
66.128,61.9180,0.013033
66.159,61.9460,0.013033
66.191,61.9765,0.013033
66.221,62.0069,0.013033
66.253,62.0376,0.013033
66.285,62.0696,0.012393
66.315,62.1000,0.012393
66.346,62.1304,0.012393
66.378,62.1623,0.012393
66.409,62.1933,0.012393
66.440,62.2255,0.012393
66.471,62.2560,0.012393
66.503,62.2878,0.012393
66.533,62.3172,0.011622
66.564,62.3488,0.011622
66.595,62.3793,0.011622
66.627,62.4119,0.011622
66.658,62.4422,0.011622
66.690,62.4751,0.011622
66.721,62.5052,0.011622
66.752,62.5366,0.011622
66.782,62.5667,0.010831
66.813,62.5975,0.010831
66.845,62.6295,0.010831
66.876,62.6605,0.010831
66.908,62.6924,0.010831
66.938,62.7230,0.010831
66.968,62.7525,0.010831
66.998,62.7828,0.010831
67.030,62.8145,0.010831
67.061,62.8458,0.009919
67.094,62.8784,0.009919
67.123,62.9087,0.009919
67.154,62.9385,0.009919
67.185,62.9696,0.009919
67.217,63.0013,0.009919
67.247,63.0318,0.009919
67.279,63.0633,0.008855
67.310,63.0949,0.008855
67.341,63.1257,0.008855
67.371,63.1561,0.008855
67.402,63.1870,0.008855
67.434,63.2183,0.008855
67.465,63.2501,0.008855
67.496,63.2809,0.008855
67.529,63.3135,0.008855
67.560,63.3444,0.007660
67.591,63.3765,0.007660
67.623,63.4081,0.007660
67.655,63.4400,0.007660
67.686,63.4704,0.007660
67.717,63.5017,0.007660
67.748,63.5322,0.007660
67.778,63.5635,0.007660
67.810,63.5943,0.006192
67.844,63.6292,0.006192
67.872,63.6569,0.006192
67.904,63.6889,0.006192
67.934,63.7187,0.006192
67.966,63.7507,0.006192
67.996,63.7808,0.006192
68.028,63.8134,0.004244
68.060,63.8448,0.004244
68.091,63.8763,0.004244
68.121,63.9057,0.004244
68.152,63.9366,0.004244
68.183,63.9681,0.004244
68.214,63.9985,0.004244
68.245,64.0300,0.004244
68.276,64.0610,0.001656
68.306,64.0916,0.001656
68.338,64.1225,0.001656
68.368,64.1537,0.001656
68.399,64.1840,0.001656
68.430,64.2156,0.001656
68.462,64.2464,0.001656
68.493,64.2782,0.001656
68.526,64.3104,-0.002061
68.556,64.3405,-0.002061
68.586,64.3703,-0.002061
68.618,64.4028,-0.002061
68.649,64.4332,-0.002061
68.679,64.4637,-0.002061
68.710,64.4940,-0.002061
68.741,64.5252,-0.002061
68.771,64.5564,-0.007604
68.802,64.5864,-0.007604
68.833,64.6178,-0.007604
68.863,64.6486,-0.007604
68.895,64.6801,-0.007604
68.926,64.7106,-0.007604
68.956,64.7417,-0.007604
68.988,64.7725,-0.007604
69.019,64.8041,-0.015913
69.050,64.8347,-0.015913
69.080,64.8648,-0.015913
69.112,64.8960,-0.015913
69.143,64.9273,-0.015913
69.173,64.9584,-0.015913
69.204,64.9880,-0.015913
69.235,65.0200,-0.015913
69.266,65.0508,-0.028212
69.297,65.0818,-0.028212
69.328,65.1128,-0.028212
69.359,65.1444,-0.028212
69.390,65.1749,-0.028212
69.423,65.2074,-0.028212
69.454,65.2382,-0.028212
69.486,65.2707,-0.028212
69.516,65.3002,-0.028212
69.546,65.3311,-0.046120
69.577,65.3622,-0.046120
69.608,65.3933,-0.046120
69.639,65.4246,-0.046120
69.671,65.4561,-0.046120
69.704,65.4890,-0.046120
69.734,65.5196,-0.046120
69.765,65.5510,-0.072168
69.797,65.5812,-0.072168
69.828,65.6129,-0.072168
69.859,65.6440,-0.072168
69.890,65.6748,-0.072168
69.920,65.7046,-0.072168
69.950,65.7348,-0.072168
69.981,65.7643,-0.072168
70.012,65.7929,-0.072168
70.044,65.8223,-0.072168
70.076,65.8502,-0.109264
70.106,65.8767,-0.109264
70.137,65.9025,-0.109264
70.168,65.9288,-0.109264
70.200,65.9536,-0.109264
70.230,65.9770,-0.109264
70.261,66.0001,-0.109264
70.291,66.0219,-0.160297
70.321,66.0432,-0.160297
70.352,66.0641,-0.160297
70.383,66.0849,-0.160297
70.414,66.1041,-0.160297
70.445,66.1228,-0.160297
70.477,66.1415,-0.160297
70.509,66.1597,-0.160297
70.539,66.1759,-0.249639
70.571,66.1922,-0.249639
70.602,66.2072,-0.249639
70.633,66.2219,-0.249639
70.663,66.2351,-0.249639
70.694,66.2484,-0.249639
70.725,66.2605,-0.249639
70.755,66.2720,-0.249639
70.786,66.2830,-0.403611
70.816,66.2930,-0.403611
70.847,66.3023,-0.403611
70.877,66.3107,-0.403611
70.909,66.3188,-0.403611
70.940,66.3265,-0.403611
70.971,66.3328,-0.403611
71.002,66.3388,-0.403611
71.033,66.3437,-0.602086
71.064,66.3482,-0.602086
71.094,66.3517,-0.602086
71.125,66.3546,-0.602086
71.156,66.3569,-0.602086
71.187,66.3584,-0.602086
71.218,66.3591,-0.602086
71.250,66.3592,-0.602086
71.280,66.3592,-0.719593
71.312,66.3592,-0.719593
71.342,66.3592,-0.719593
71.373,66.3592,-0.719593
71.403,66.3592,-0.719593
71.434,66.3592,-0.719593
71.464,66.3592,-0.719593
71.495,66.3592,-0.719593
71.526,66.3592,-0.597804
71.557,66.3592,-0.597804
71.588,66.3592,-0.597804
71.618,66.3592,-0.597804
71.649,66.3592,-0.597804
71.680,66.3592,-0.597804
71.711,66.3592,-0.597804
71.743,66.3592,-0.597804
71.774,66.3592,-0.412081
71.805,66.3592,-0.412081
71.836,66.3592,-0.412081
71.867,66.3592,-0.412081
71.898,66.3592,-0.412081
71.929,66.3592,-0.412081
71.960,66.3592,-0.412081
71.991,66.3592,-0.412081
72.021,66.3592,-0.340967
72.053,66.3592,-0.340967
72.082,66.3592,-0.340967
72.114,66.3592,-0.340967
72.144,66.3592,-0.340967
72.175,66.3592,-0.340967
72.206,66.3592,-0.340967
72.237,66.3592,-0.340967
72.269,66.3592,-0.340967
72.300,66.3592,-0.310195
72.331,66.3592,-0.310195
72.363,66.3592,-0.310195
72.394,66.3592,-0.310195
72.425,66.3592,-0.310195
72.456,66.3592,-0.310195
72.487,66.3592,-0.310195
72.518,66.3592,-0.293002
72.549,66.3592,-0.293002
72.580,66.3592,-0.293002
72.611,66.3592,-0.293002
72.641,66.3592,-0.293002
72.673,66.3592,-0.293002
72.704,66.3592,-0.293002
72.734,66.3592,-0.293002
72.765,66.3592,-0.281850
72.795,66.3592,-0.281850
72.826,66.3592,-0.281850
72.857,66.3592,-0.281850
72.888,66.3592,-0.281850
72.919,66.3592,-0.281850
72.949,66.3592,-0.281850
72.980,66.3592,-0.281850
73.011,66.3592,-0.281850
73.041,66.3592,-0.273823
73.072,66.3592,-0.273823
73.103,66.3592,-0.273823
73.134,66.3592,-0.273823
73.171,66.3592,-0.273823
73.211,66.3592,-0.273823
73.242,66.3592,-0.273823
73.274,66.3592,-0.267613
73.305,66.3592,-0.267613
73.335,66.3592,-0.267613
73.366,66.3592,-0.267613
73.397,66.3592,-0.267613
73.428,66.3592,-0.267613
73.459,66.3592,-0.267613
73.491,66.3592,-0.267613
73.522,66.3592,-0.262644
73.553,66.3592,-0.262644
73.585,66.3592,-0.262644
73.615,66.3592,-0.262644
73.646,66.3592,-0.262644
73.677,66.3592,-0.262644
73.708,66.3592,-0.262644
73.739,66.3592,-0.262644
73.770,66.3592,-0.258466
73.804,66.3592,-0.258466
73.832,66.3592,-0.258466
73.863,66.3592,-0.258466
73.894,66.3592,-0.258466
73.930,66.3592,-0.258466
73.956,66.3592,-0.258466
73.988,66.3592,-0.258466
74.020,66.3592,-0.254890
74.051,66.3592,-0.254890
74.081,66.3592,-0.254890
74.113,66.3592,-0.254890
74.144,66.3592,-0.254890
74.176,66.3592,-0.254890
74.206,66.3592,-0.254890
74.238,66.3592,-0.254890
74.269,66.3592,-0.251850
74.304,66.3592,-0.251850
74.331,66.3592,-0.251850
74.363,66.3592,-0.251850
74.394,66.3592,-0.251850
74.426,66.3592,-0.251850
74.457,66.3592,-0.251850
74.488,66.3592,-0.251850
74.519,66.3592,-0.249178
74.550,66.3592,-0.249178
74.581,66.3592,-0.249178
74.611,66.3592,-0.249178
74.642,66.3592,-0.249178
74.674,66.3592,-0.249178
74.705,66.3592,-0.249178
74.736,66.3592,-0.249178
74.767,66.3592,-0.249178
74.799,66.3592,-0.246844
74.830,66.3592,-0.246844
74.861,66.3592,-0.246844
74.893,66.3592,-0.246844
74.925,66.3592,-0.246844
74.955,66.3592,-0.246844
74.987,66.3592,-0.246844
75.018,66.3592,-0.246844
75.049,66.3592,-0.244416
75.079,66.3592,-0.244416
75.110,66.3592,-0.244416
75.142,66.3592,-0.244416
75.173,66.3592,-0.244416
75.204,66.3592,-0.244416
75.235,66.3592,-0.244416
75.266,66.3592,-0.244416
75.298,66.3592,-0.241254
75.329,66.3592,-0.241254
75.360,66.3592,-0.241254
75.391,66.3592,-0.241254
75.422,66.3592,-0.241254
75.454,66.3592,-0.241254
75.485,66.3592,-0.241254
75.517,66.3591,-0.241254
75.546,66.3585,-0.237603
75.578,66.3570,-0.237603
75.608,66.3549,-0.237603
75.639,66.3522,-0.237603
75.670,66.3484,-0.237603
75.701,66.3442,-0.237603
75.732,66.3391,-0.237603
75.762,66.3336,-0.237603
75.793,66.3270,-0.209296
75.824,66.3198,-0.209296
75.856,66.3119,-0.209296
75.887,66.3031,-0.209296
75.918,66.2935,-0.209296
75.949,66.2833,-0.209296
75.979,66.2729,-0.209296
76.012,66.2608,-0.209296
76.041,66.2491,-0.209296
76.075,66.2348,-0.016129
76.103,66.2226,-0.016129
76.134,66.2078,-0.016129
76.165,66.1930,-0.016129
76.195,66.1774,-0.016129
76.226,66.1606,-0.016129
76.257,66.1433,-0.016129
76.288,66.1253,0.055107
76.318,66.1071,0.055107
76.349,66.0871,0.055107
76.380,66.0672,0.055107
76.411,66.0461,0.055107
76.441,66.0251,0.055107
76.474,66.0014,0.055107
76.503,65.9795,0.055107
76.535,65.9544,-0.025719
76.568,65.9288,-0.025719
76.599,65.9036,-0.025719
76.630,65.8779,-0.025719
76.660,65.8510,-0.025719
76.691,65.8236,-0.025719
76.723,65.7944,-0.025719
76.754,65.7660,-0.025719
76.785,65.7361,0.006248
76.816,65.7055,0.006248
76.847,65.6736,0.006248
76.879,65.6424,0.006248
76.910,65.6113,0.006248
76.940,65.5817,0.006248
76.970,65.5507,0.006248
77.001,65.5206,0.006248
77.033,65.4880,0.006248
77.064,65.4580,0.036098
77.096,65.4251,0.036098
77.127,65.3947,0.036098
77.158,65.3635,0.036098
77.189,65.3321,0.036098
77.220,65.3018,0.036098
77.251,65.2706,0.036098
77.283,65.2383,0.036098
77.314,65.2078,0.053790
77.345,65.1758,0.053790
77.377,65.1448,0.053790
77.407,65.1143,0.053790
77.438,65.0838,0.053790
77.470,65.0517,0.053790
77.500,65.0218,0.053790
77.531,64.9909,0.053790
77.563,64.9589,0.059878
77.594,64.9273,0.059878
77.625,64.8969,0.059878
77.655,64.8655,0.059878
77.687,64.8346,0.059878
77.719,64.8026,0.059878
77.749,64.7721,0.059878
77.780,64.7417,0.060208
77.810,64.7106,0.060208
77.841,64.6806,0.060208
77.872,64.6490,0.060208
77.903,64.6191,0.060208
77.935,64.5864,0.060208
77.965,64.5558,0.060208
77.997,64.5242,0.060208
78.026,64.4952,0.058542
78.057,64.4644,0.058542
78.087,64.4344,0.058542
78.117,64.4043,0.058542
78.148,64.3730,0.058542
78.179,64.3420,0.058542
78.211,64.3099,0.058542
78.243,64.2785,0.058542
78.274,64.2470,0.056876
78.305,64.2169,0.056876
78.337,64.1850,0.056876
78.367,64.1546,0.056876
78.399,64.1220,0.056876
78.430,64.0921,0.056876
78.460,64.0610,0.056876
78.491,64.0302,0.056876
78.523,63.9982,0.056876
78.555,63.9671,0.057093
78.585,63.9358,0.057093
78.616,63.9058,0.057093
78.647,63.8750,0.057093
78.678,63.8432,0.057093
78.710,63.8114,0.057093
78.741,63.7800,0.057093
78.772,63.7493,0.057093
78.804,63.7182,0.059483
78.835,63.6859,0.059483
78.866,63.6555,0.059483
78.897,63.6243,0.059483
78.928,63.5930,0.059483
78.961,63.5602,0.059483
78.990,63.5310,0.059483
79.021,63.5001,0.059483
79.055,63.4660,0.063228
79.083,63.4384,0.063228
79.114,63.4076,0.063228
79.145,63.3761,0.063228
79.176,63.3455,0.063228
79.208,63.3130,0.063228
79.239,63.2830,0.063228
79.271,63.2508,0.068696
79.301,63.2208,0.068696
79.331,63.1909,0.068696
79.362,63.1594,0.068696
79.393,63.1287,0.068696
79.424,63.0970,0.068696
79.455,63.0669,0.068696
79.486,63.0350,0.068696
79.517,63.0047,0.075763
79.549,62.9728,0.075763
79.579,62.9428,0.075763
79.611,62.9106,0.075763
79.642,62.8801,0.075763
79.672,62.8492,0.075763
79.703,62.8191,0.075763
79.734,62.7876,0.075763
79.765,62.7561,0.081842
79.796,62.7253,0.081842
79.828,62.6940,0.081842
79.859,62.6623,0.081842
79.890,62.6313,0.081842
79.921,62.5995,0.081842
79.952,62.5695,0.081842
79.984,62.5375,0.081842
80.014,62.5073,0.071152
80.046,62.4753,0.071152
80.076,62.4452,0.071152
80.107,62.4137,0.071152
80.139,62.3829,0.071152
80.169,62.3523,0.071152
80.201,62.3208,0.071152
80.236,62.2852,0.071152
80.262,62.2593,0.039081
80.293,62.2283,0.039081
80.324,62.1975,0.039081
80.360,62.1615,0.039081
80.386,62.1346,0.039081
80.417,62.1039,0.039081
80.448,62.0736,0.039081
80.479,62.0430,0.039081
80.510,62.0115,0.039081
80.542,61.9792,0.018698
80.573,61.9492,0.018698
80.604,61.9191,0.018698
80.635,61.8894,0.018698
80.665,61.8608,0.018698
80.697,61.8331,0.018698
80.728,61.8057,0.018698
80.758,61.7794,0.016892
80.789,61.7539,0.016892
80.820,61.7287,0.016892
80.851,61.7041,0.016892
80.882,61.6807,0.016892
80.913,61.6581,0.016892
80.944,61.6353,0.016892
80.975,61.6145,0.016892
81.006,61.5934,0.016892
81.037,61.5735,0.016892
81.071,61.5526,0.015998
81.099,61.5357,0.015998
81.131,61.5174,0.015998
81.162,61.5005,0.015998
81.194,61.4835,0.015998
81.225,61.4682,0.015998
81.257,61.4526,0.015998
81.288,61.4384,0.015461
81.320,61.4247,0.015461
81.350,61.4124,0.015461
81.381,61.4009,0.015461
81.412,61.3895,0.015461
81.444,61.3787,0.015461
81.474,61.3693,0.015461
81.506,61.3602,0.015461
81.536,61.3524,0.015028
81.566,61.3448,0.015028
81.598,61.3378,0.015028
81.629,61.3318,0.015028
81.660,61.3264,0.015028
81.690,61.3218,0.015028
81.721,61.3178,0.015028
81.753,61.3146,0.015028
81.784,61.3122,0.014643
81.815,61.3105,0.014643
81.846,61.3095,0.014643
81.876,61.3092,0.014643
81.908,61.3092,0.014643
81.938,61.3092,0.014643
81.968,61.3092,0.014643
82.000,61.3092,0.014643
82.031,61.3092,0.014454
82.061,61.3092,0.014454
82.093,61.3092,0.014454
82.123,61.3092,0.014454
82.154,61.3092,0.014454
82.188,61.3092,0.014454
82.217,61.3092,0.014454
82.250,61.3092,0.014454
82.280,61.3092,0.014332
82.311,61.3092,0.014332
82.343,61.3092,0.014332
82.374,61.3092,0.014332
82.405,61.3092,0.014332
82.435,61.3092,0.014332
82.466,61.3092,0.014332
82.497,61.3092,0.014332
82.528,61.3092,0.014294
82.559,61.3092,0.014294
82.589,61.3092,0.014294
82.620,61.3096,0.014294
82.651,61.3109,0.014294
82.681,61.3127,0.014294
82.712,61.3153,0.014294
82.745,61.3188,0.014294
82.774,61.3225,0.014294
82.805,61.3275,0.014294
82.836,61.3329,0.014294
82.867,61.3391,0.014294
82.898,61.3460,0.014294
82.929,61.3538,0.014294
82.960,61.3621,0.014294
82.991,61.3713,0.014294
83.021,61.3812,0.014087
83.053,61.3917,0.014087
83.084,61.4033,0.014087
83.111,61.4136,0.014087
83.145,61.4279,0.014087
83.176,61.4410,0.014087
83.207,61.4552,0.014087
83.238,61.4702,0.014087
83.269,61.4857,0.013730
83.300,61.5021,0.013730
83.331,61.5191,0.013730
83.362,61.5370,0.013730
83.393,61.5553,0.013730
83.423,61.5750,0.013730
83.455,61.5948,0.013730
83.486,61.6155,0.013730
83.517,61.6372,0.013335
83.548,61.6592,0.013335
83.580,61.6834,0.013335
83.611,61.7072,0.013335
83.643,61.7322,0.013335
83.673,61.7564,0.013335
83.704,61.7829,0.013335
83.735,61.8092,0.013335
83.766,61.8360,0.012789
83.797,61.8640,0.012789
83.828,61.8932,0.012789
83.863,61.9274,0.012789
83.890,61.9529,0.012789
83.921,61.9839,0.012789
83.952,62.0149,0.012789
83.984,62.0463,0.012789
84.015,62.0775,0.012130
84.046,62.1088,0.012130
84.079,62.1412,0.012130
84.109,62.1721,0.012130
84.140,62.2025,0.012130
84.170,62.2327,0.012130
84.202,62.2649,0.012130
84.233,62.2949,0.012130
84.263,62.3261,0.012130
84.294,62.3566,0.012130
84.325,62.3870,0.011443
84.356,62.4184,0.011443
84.387,62.4498,0.011443
84.417,62.4798,0.011443
84.448,62.5109,0.011443
84.480,62.5433,0.011443
84.511,62.5739,0.011443
84.543,62.6054,0.010643
84.574,62.6363,0.010643
84.605,62.6683,0.010643
84.637,62.6994,0.010643
84.669,62.7316,0.010643
84.699,62.7618,0.010643
84.731,62.7934,0.010643
84.762,62.8254,0.010643
84.794,62.8564,0.010643
84.822,62.8856,0.009664
84.856,62.9190,0.009664
84.887,62.9491,0.009664
84.919,62.9817,0.009664
84.949,63.0121,0.009664
84.980,63.0428,0.009664
85.010,63.0721,0.009664
85.040,63.1030,0.008526
85.071,63.1345,0.008526
85.103,63.1659,0.008526
85.134,63.1975,0.008526
85.165,63.2274,0.008526
85.196,63.2589,0.008526
85.227,63.2894,0.008526
85.259,63.3220,0.008526
85.289,63.3522,0.007161
85.320,63.3830,0.007161
85.352,63.4142,0.007161
85.383,63.4452,0.007161
85.415,63.4773,0.007161
85.445,63.5076,0.007161
85.476,63.5389,0.007161
85.507,63.5691,0.007161
85.538,63.6008,0.005552
85.569,63.6318,0.005552
85.600,63.6622,0.005552
85.631,63.6941,0.005552
85.662,63.7241,0.005552
85.693,63.7560,0.005552
85.723,63.7865,0.005552
85.754,63.8174,0.005552
85.786,63.8480,0.003444
85.817,63.8806,0.003444
85.850,63.9119,0.003444
85.881,63.9439,0.003444
85.918,63.9800,0.003444
85.958,64.0210,0.003444
85.988,64.0505,0.003444
86.020,64.0832,0.003444
86.052,64.1140,0.000471
86.082,64.1452,0.000471
86.112,64.1748,0.000471
86.144,64.2080,0.000471
86.175,64.2372,0.000471
86.206,64.2686,0.000471
86.237,64.3000,0.000471
86.269,64.3319,0.000471
86.300,64.3630,-0.003830
86.331,64.3931,-0.003830
86.362,64.4239,-0.003830
86.392,64.4549,-0.003830
86.423,64.4849,-0.003830
86.453,64.5161,-0.003830
86.484,64.5463,-0.003830
86.516,64.5781,-0.003830
86.546,64.6086,-0.010239
86.577,64.6401,-0.010239
86.609,64.6710,-0.010239
86.640,64.7027,-0.010239
86.671,64.7333,-0.010239
86.702,64.7645,-0.010239
86.733,64.7955,-0.010239
86.764,64.8269,-0.010239
86.795,64.8569,-0.019705
86.827,64.8893,-0.019705
86.857,64.9193,-0.019705
86.888,64.9498,-0.019705
86.919,64.9825,-0.019705
86.949,65.0116,-0.019705
86.980,65.0422,-0.019705
87.011,65.0735,-0.019705
87.042,65.1046,-0.033604
87.073,65.1352,-0.033604
87.105,65.1672,-0.033604
87.136,65.1990,-0.033604
87.167,65.2298,-0.033604
87.198,65.2614,-0.033604
87.229,65.2915,-0.033604
87.260,65.3226,-0.033604
87.291,65.3534,-0.054025
87.323,65.3854,-0.054025
87.353,65.4159,-0.054025
87.385,65.4474,-0.054025
87.417,65.4797,-0.054025
87.447,65.5094,-0.054025
87.480,65.5432,-0.054025
87.509,65.5713,-0.054025
87.540,65.6021,-0.083310
87.571,65.6328,-0.083310
87.602,65.6647,-0.083310
87.633,65.6950,-0.083310
87.663,65.7237,-0.083310
87.695,65.7530,-0.083310
87.726,65.7805,-0.083310
87.756,65.8073,-0.083310
87.787,65.8346,-0.124292
87.817,65.8598,-0.124292
87.848,65.8846,-0.124292
87.879,65.9089,-0.124292
87.911,65.9333,-0.124292
87.942,65.9562,-0.124292
87.972,65.9789,-0.124292
88.003,65.9997,-0.183201
88.034,66.0200,-0.183201
88.064,66.0400,-0.183201
88.096,66.0597,-0.183201
88.126,66.0777,-0.183201
88.157,66.0961,-0.183201
88.188,66.1133,-0.183201
88.220,66.1304,-0.183201
88.250,66.1459,-0.183201
88.281,66.1608,-0.183201
88.312,66.1754,-0.292541
88.343,66.1886,-0.292541
88.373,66.2012,-0.292541
88.405,66.2136,-0.292541
88.435,66.2247,-0.292541
88.466,66.2358,-0.292541
88.498,66.2456,-0.292541
88.530,66.2552,-0.292541
88.560,66.2635,-0.465221
88.592,66.2716,-0.465221
88.623,66.2785,-0.465221
88.654,66.2849,-0.465221
88.685,66.2904,-0.465221
88.718,66.2956,-0.465221
88.746,66.2993,-0.465221
88.778,66.3028,-0.465221
88.809,66.3054,-0.660873
88.841,66.3075,-0.660873
88.871,66.3086,-0.660873
88.902,66.3091,-0.660873
88.933,66.3091,-0.660873
88.965,66.3091,-0.660873
88.995,66.3091,-0.660873
89.026,66.3091,-0.660873
89.057,66.3091,-0.703163
89.087,66.3091,-0.703163
89.118,66.3091,-0.703163
89.150,66.3091,-0.703163
89.180,66.3091,-0.703163
89.211,66.3091,-0.703163
89.242,66.3091,-0.703163
89.272,66.3091,-0.703163
89.303,66.3091,-0.531960
89.336,66.3091,-0.531960
89.366,66.3091,-0.531960
89.398,66.3091,-0.531960
89.427,66.3091,-0.531960
89.458,66.3091,-0.531960
89.490,66.3091,-0.531960
89.521,66.3091,-0.531960
89.552,66.3091,-0.376199
89.588,66.3091,-0.376199
89.615,66.3091,-0.376199
89.646,66.3091,-0.376199
89.676,66.3091,-0.376199
89.708,66.3091,-0.376199
89.739,66.3091,-0.376199
89.769,66.3091,-0.376199
89.800,66.3091,-0.320217
89.832,66.3091,-0.320217
89.863,66.3091,-0.320217
89.894,66.3091,-0.320217
89.925,66.3091,-0.320217
89.960,66.3091,-0.320217
89.988,66.3091,-0.320217
90.018,66.3091,-0.320217
90.049,66.3091,-0.295543
90.080,66.3091,-0.295543
90.111,66.3091,-0.295543
90.142,66.3091,-0.295543
90.173,66.3091,-0.295543
90.204,66.3091,-0.295543
90.234,66.3091,-0.295543
90.266,66.3091,-0.295543
90.297,66.3091,-0.282641
90.328,66.3091,-0.282641
90.359,66.3091,-0.282641
90.391,66.3091,-0.282641
90.422,66.3091,-0.282641
90.453,66.3091,-0.282641
90.484,66.3091,-0.282641
90.515,66.3091,-0.274049
90.546,66.3091,-0.274049
90.578,66.3091,-0.274049
90.609,66.3091,-0.274049
90.639,66.3091,-0.274049
90.671,66.3091,-0.274049
90.702,66.3091,-0.274049
90.734,66.3091,-0.274049
90.764,66.3091,-0.267189
90.797,66.3091,-0.267189
90.827,66.3091,-0.267189
90.854,66.3091,-0.267189
90.891,66.3091,-0.267189
90.923,66.3091,-0.267189
90.954,66.3091,-0.267189
90.985,66.3091,-0.267189
91.016,66.3091,-0.261684
91.047,66.3091,-0.261684
91.078,66.3091,-0.261684
91.109,66.3091,-0.261684
91.141,66.3091,-0.261684
91.172,66.3091,-0.261684
91.204,66.3091,-0.261684
91.234,66.3091,-0.261684
91.265,66.3091,-0.257139
91.296,66.3091,-0.257139
91.326,66.3091,-0.257139
91.357,66.3091,-0.257139
91.388,66.3091,-0.257139
91.418,66.3091,-0.257139
91.449,66.3091,-0.257139
91.480,66.3091,-0.257139
91.511,66.3091,-0.257139
91.542,66.3091,-0.253262
91.573,66.3091,-0.253262
91.604,66.3091,-0.253262
91.635,66.3091,-0.253262
91.667,66.3091,-0.253262
91.697,66.3091,-0.253262
91.729,66.3091,-0.253262
91.760,66.3091,-0.253262
91.791,66.3091,-0.249959
91.821,66.3091,-0.249959
91.852,66.3091,-0.249959
91.883,66.3091,-0.249959
91.914,66.3091,-0.249959
91.945,66.3091,-0.249959
91.975,66.3091,-0.249959
92.007,66.3091,-0.249959
92.037,66.3091,-0.247051
92.068,66.3091,-0.247051
92.100,66.3091,-0.247051
92.131,66.3091,-0.247051
92.162,66.3091,-0.247051
92.193,66.3091,-0.247051
92.225,66.3091,-0.247051
92.255,66.3091,-0.247051
92.286,66.3091,-0.244491
92.317,66.3091,-0.244491
92.349,66.3091,-0.244491
92.381,66.3091,-0.244491
92.411,66.3091,-0.244491
92.442,66.3091,-0.244491
92.473,66.3091,-0.244491
92.504,66.3091,-0.244491
92.535,66.3091,-0.242233
92.566,66.3091,-0.242233
92.597,66.3091,-0.242233
92.627,66.3091,-0.242233
92.658,66.3091,-0.242233
92.689,66.3091,-0.242233
92.722,66.3091,-0.242233
92.751,66.3091,-0.242233
92.782,66.3091,-0.242233
92.812,66.3091,-0.240068
92.843,66.3091,-0.240068
92.873,66.3091,-0.240068
92.910,66.3091,-0.240068
92.936,66.3091,-0.240068
92.966,66.3091,-0.240068
92.996,66.3091,-0.240068
93.026,66.3091,-0.240068
93.057,66.3091,-0.240068
93.089,66.3091,-0.238149
93.120,66.3091,-0.238149
93.151,66.3091,-0.238149
93.181,66.3091,-0.238149
93.212,66.3091,-0.238149
93.243,66.3091,-0.238149
93.274,66.3091,-0.238149
93.304,66.3091,-0.236492
93.337,66.3091,-0.236492
93.366,66.3091,-0.236492
93.398,66.3091,-0.236492
93.429,66.3091,-0.236492
93.460,66.3091,-0.236492
93.492,66.3091,-0.236492
93.524,66.3091,-0.236492
93.556,66.3091,-0.234563
93.587,66.3091,-0.234563
93.617,66.3091,-0.234563
93.648,66.3091,-0.234563
93.679,66.3091,-0.234563
93.709,66.3091,-0.234563
93.741,66.3091,-0.234563
93.772,66.3091,-0.234563
93.803,66.3091,-0.231787
93.835,66.3091,-0.231787
93.866,66.3091,-0.231787
93.897,66.3091,-0.231787
93.927,66.3091,-0.231787
93.959,66.3091,-0.231787
93.990,66.3091,-0.231787
94.020,66.3089,-0.228437
94.054,66.3079,-0.228437
94.083,66.3064,-0.228437
94.114,66.3040,-0.228437
94.144,66.3012,-0.228437
94.174,66.2975,-0.228437
94.205,66.2930,-0.228437
94.237,66.2877,-0.228437
94.268,66.2817,-0.138493
94.299,66.2751,-0.138493
94.330,66.2676,-0.138493
94.361,66.2594,-0.138493
94.396,66.2492,-0.138493
94.422,66.2409,-0.138493
94.453,66.2307,-0.138493
94.485,66.2197,-0.138493
94.515,66.2083,-0.009646
94.545,66.1959,-0.009646
94.576,66.1829,-0.009646
94.606,66.1692,-0.009646
94.638,66.1543,-0.009646
94.668,66.1391,-0.009646
94.699,66.1231,-0.009646
94.731,66.1065,-0.009646
94.762,66.0887,-0.003642
94.792,66.0706,-0.003642
94.825,66.0505,-0.003642
94.857,66.0297,-0.003642
94.888,66.0096,-0.003642
94.919,65.9885,-0.003642
94.949,65.9674,-0.003642
94.981,65.9441,-0.003642
95.012,65.9208,-0.023272
95.043,65.8959,-0.023272
95.074,65.8716,-0.023272
95.105,65.8462,-0.023272
95.136,65.8197,-0.023272
95.167,65.7924,-0.023272
95.199,65.7639,-0.023272
95.229,65.7356,-0.023272
95.261,65.7065,-0.023272
95.292,65.6756,0.008648
95.323,65.6449,0.008648
95.353,65.6152,0.008648
95.385,65.5833,0.008648
95.416,65.5525,0.008648
95.447,65.5215,0.008648
95.479,65.4890,0.008648
95.509,65.4581,0.008648
95.541,65.4272,0.037604
95.572,65.3968,0.037604
95.603,65.3656,0.037604
95.634,65.3346,0.037604
95.665,65.3034,0.037604
95.695,65.2727,0.037604
95.727,65.2417,0.037604
95.757,65.2118,0.037604
95.788,65.1801,0.054383
95.819,65.1498,0.054383
95.850,65.1180,0.054383
95.881,65.0879,0.054383
95.911,65.0570,0.054383
95.941,65.0270,0.054383
95.973,64.9951,0.054383
96.004,64.9645,0.054383
96.036,64.9319,0.060085
96.067,64.9007,0.060085
96.098,64.8702,0.060085
96.129,64.8395,0.060085
96.160,64.8081,0.060085
96.191,64.7771,0.060085
96.222,64.7461,0.060085
96.253,64.7158,0.060085
96.284,64.6842,0.060085
96.315,64.6530,0.060546
96.346,64.6212,0.060546
96.378,64.5903,0.060546
96.408,64.5608,0.060546
96.438,64.5303,0.060546
96.469,64.4990,0.060546
96.499,64.4699,0.060546
96.530,64.4389,0.060546
96.560,64.4076,0.059050
96.591,64.3765,0.059050
96.622,64.3468,0.059050
96.654,64.3150,0.059050
96.682,64.2862,0.059050
96.713,64.2558,0.059050
96.743,64.2252,0.059050
96.775,64.1932,0.059050
96.806,64.1624,0.057497
96.837,64.1309,0.057497
96.868,64.1009,0.057497
96.898,64.0700,0.057497
96.929,64.0385,0.057497
96.960,64.0084,0.057497
96.991,63.9772,0.057497
97.022,63.9462,0.057497
97.053,63.9156,0.057657
97.085,63.8832,0.057657
97.116,63.8528,0.057657
97.147,63.8217,0.057657
97.178,63.7908,0.057657
97.208,63.7602,0.057657
97.239,63.7294,0.057657
97.270,63.6978,0.057657
97.301,63.6671,0.059878
97.332,63.6361,0.059878
97.363,63.6059,0.059878
97.394,63.5748,0.059878
97.424,63.5446,0.059878
97.456,63.5125,0.059878
97.486,63.4815,0.059878
97.517,63.4511,0.059878
97.549,63.4190,0.063558
97.580,63.3871,0.063558
97.611,63.3570,0.063558
97.642,63.3256,0.063558
97.673,63.2960,0.063558
97.704,63.2641,0.063558
97.735,63.2337,0.063558
97.765,63.2022,0.063558
97.796,63.1725,0.069119
97.828,63.1406,0.069119
97.858,63.1103,0.069119
97.889,63.0784,0.069119
97.920,63.0487,0.069119
97.951,63.0174,0.069119
97.983,62.9849,0.069119
98.014,62.9542,0.069119
98.045,62.9230,0.069119
98.075,62.8929,0.076139
98.106,62.8626,0.076139
98.137,62.8313,0.076139
98.168,62.8001,0.076139
98.199,62.7696,0.076139
98.230,62.7382,0.076139
98.261,62.7074,0.076139
98.292,62.6762,0.081823
98.323,62.6449,0.081823
98.355,62.6131,0.081823
98.387,62.5816,0.081823
98.417,62.5508,0.081823
98.448,62.5197,0.081823
98.478,62.4898,0.081823
98.507,62.4612,0.081823
98.541,62.4276,0.069477
98.571,62.3968,0.069477
98.603,62.3653,0.069477
98.637,62.3315,0.069477
98.664,62.3042,0.069477
98.698,62.2699,0.069477
98.727,62.2413,0.069477
98.759,62.2097,0.069477
98.788,62.1805,0.069477
98.819,62.1491,0.037670
98.849,62.1194,0.037670
98.880,62.0872,0.037670
98.911,62.0572,0.037670
98.943,62.0250,0.037670
98.974,61.9945,0.037670
99.004,61.9635,0.037670
99.036,61.9325,0.037670
99.064,61.9051,0.018943
99.099,61.8702,0.018943
99.129,61.8417,0.018943
99.161,61.8117,0.018943
99.192,61.7841,0.018943
99.225,61.7544,0.018943
99.255,61.7298,0.018943
99.286,61.7038,0.017052
99.316,61.6791,0.017052
99.348,61.6548,0.017052
99.378,61.6306,0.017052
99.409,61.6083,0.017052
99.441,61.5853,0.017052
99.472,61.5641,0.017052
99.503,61.5430,0.017052
99.534,61.5232,0.017052
99.565,61.5035,0.016101
99.604,61.4808,0.016101
99.643,61.4589,0.016101
99.674,61.4418,0.016101
99.705,61.4261,0.016101
99.737,61.4106,0.016101
99.768,61.3962,0.016101
99.799,61.3827,0.015537
99.831,61.3690,0.015537
99.861,61.3571,0.015537
99.892,61.3457,0.015537
99.922,61.3349,0.015537
99.954,61.3248,0.015537
99.985,61.3150,0.015537
100.015,61.3068,0.015537
100.046,61.2987,0.015113
100.078,61.2914,0.015113
100.108,61.2849,0.015113
100.139,61.2792,0.015113
100.170,61.2743,0.015113
100.201,61.2699,0.015113
100.233,61.2662,0.015113
100.264,61.2635,0.015113
100.295,61.2613,0.014784
100.327,61.2599,0.014784
100.357,61.2591,0.014784
100.389,61.2591,0.014784
100.420,61.2591,0.014784
100.455,61.2591,0.014784
100.482,61.2591,0.014784
100.513,61.2591,0.014784
100.544,61.2598,0.014567
100.575,61.2611,0.014567
100.606,61.2632,0.014567
100.638,61.2661,0.014567
100.668,61.2694,0.014567
100.699,61.2738,0.014567
100.730,61.2786,0.014567
100.761,61.2843,0.014567
100.792,61.2906,0.014341
100.822,61.2978,0.014341
100.853,61.3058,0.014341
100.886,61.3148,0.014341
100.915,61.3235,0.014341
100.947,61.3339,0.014341
100.977,61.3443,0.014341
101.009,61.3559,0.014341
101.040,61.3685,0.014069
101.072,61.3819,0.014069
101.103,61.3956,0.014069
101.139,61.4123,0.014069
101.165,61.4248,0.014069
101.195,61.4408,0.014069
101.226,61.4570,0.014069
101.256,61.4741,0.014069
101.289,61.4935,0.013767
101.317,61.5103,0.013767
101.348,61.5301,0.013767
101.381,61.5515,0.013767
101.410,61.5713,0.013767
101.442,61.5935,0.013767
101.474,61.6170,0.013767
101.506,61.6400,0.013767
101.538,61.6653,0.013316
101.569,61.6896,0.013316
101.600,61.7153,0.013316
101.631,61.7413,0.013316
101.665,61.7716,0.013316
101.693,61.7957,0.013316
101.725,61.8246,0.013316
101.756,61.8538,0.013316
101.786,61.8824,0.012695
101.819,61.9149,0.012695
101.850,61.9455,0.012695
101.881,61.9771,0.012695
101.912,62.0082,0.012695
101.943,62.0390,0.012695
101.975,62.0711,0.012695
102.006,62.1019,0.012026
102.038,62.1346,0.012026
102.068,62.1633,0.012026
102.098,62.1945,0.012026
102.129,62.2253,0.012026
102.160,62.2563,0.012026
102.191,62.2874,0.012026
102.222,62.3178,0.012026
102.253,62.3492,0.012026
102.284,62.3797,0.011274
102.314,62.4110,0.011274
102.342,62.4375,0.011274
102.377,62.4737,0.011274
102.407,62.5031,0.011274
102.438,62.5342,0.011274
102.473,62.5692,0.011274
102.500,62.5969,0.011274
102.531,62.6271,0.010370
102.563,62.6581,0.010370
102.594,62.6899,0.010370
102.624,62.7210,0.010370
102.656,62.7519,0.010370
102.687,62.7833,0.010370
102.718,62.8148,0.010370
102.748,62.8440,0.010370
102.779,62.8748,0.010370
102.810,62.9062,0.009363
102.841,62.9372,0.009363
102.872,62.9683,0.009363
102.903,62.9988,0.009363
102.934,63.0301,0.009363
102.966,63.0616,0.009363
102.997,63.0922,0.009363
103.026,63.1230,0.009363
103.058,63.1535,0.008206
103.090,63.1854,0.008206
103.120,63.2159,0.008206
103.151,63.2466,0.008206
103.182,63.2777,0.008206
103.213,63.3091,0.008206
103.244,63.3399,0.008206
103.275,63.3715,0.008206
103.306,63.4014,0.006738
103.336,63.4318,0.006738
103.368,63.4638,0.006738
103.398,63.4937,0.006738
103.429,63.5249,0.006738
103.460,63.5556,0.006738
103.490,63.5866,0.006738
103.520,63.6161,0.006738
103.551,63.6463,0.004940
103.582,63.6783,0.004940
103.613,63.7090,0.004940
103.644,63.7402,0.004940
103.675,63.7709,0.004940
103.706,63.8016,0.004940
103.737,63.8323,0.004940
103.767,63.8633,0.004940
103.798,63.8943,0.002597
103.830,63.9254,0.002597
103.860,63.9562,0.002597
103.892,63.9882,0.002597
103.923,64.0182,0.002597
103.953,64.0488,0.002597
103.985,64.0812,0.002597
104.016,64.1119,-0.000621
104.047,64.1434,-0.000621
104.078,64.1739,-0.000621
104.109,64.2049,-0.000621
104.140,64.2358,-0.000621
104.171,64.2671,-0.000621
104.201,64.2972,-0.000621
104.232,64.3291,-0.000621
104.263,64.3586,-0.000621
104.294,64.3899,-0.005317
104.326,64.4222,-0.005317
104.357,64.4523,-0.005317
104.388,64.4845,-0.005317
104.420,64.5153,-0.005317
104.451,64.5461,-0.005317
104.479,64.5747,-0.005317
104.512,64.6081,-0.012365
104.543,64.6397,-0.012365
104.574,64.6694,-0.012365
104.604,64.7001,-0.012365
104.636,64.7316,-0.012365
104.666,64.7622,-0.012365
104.697,64.7937,-0.012365
104.728,64.8243,-0.012365
104.760,64.8555,-0.012365
104.789,64.8852,-0.022867
104.821,64.9170,-0.022867
104.851,64.9474,-0.022867
104.883,64.9791,-0.022867
104.914,65.0096,-0.022867
104.946,65.0422,-0.022867
104.977,65.0726,-0.022867
105.007,65.1034,-0.022867
105.036,65.1320,-0.038432
105.069,65.1653,-0.038432
105.100,65.1968,-0.038432
105.132,65.2274,-0.038432
105.163,65.2588,-0.038432
105.194,65.2898,-0.038432
105.225,65.3204,-0.038432
105.256,65.3524,-0.061196
105.287,65.3827,-0.061196
105.317,65.4128,-0.061196
105.350,65.4457,-0.061196
105.380,65.4756,-0.061196
105.410,65.5058,-0.061196
105.441,65.5372,-0.061196
105.472,65.5682,-0.061196
105.503,65.5993,-0.061196
105.535,65.6307,-0.093944
105.566,65.6597,-0.093944
105.593,65.6863,-0.093944
105.628,65.7177,-0.093944
105.659,65.7453,-0.093944
105.690,65.7721,-0.093944
105.721,65.7989,-0.093944
105.752,65.8246,-0.093944
105.782,65.8488,-0.139057
105.814,65.8734,-0.139057
105.845,65.8964,-0.139057
105.876,65.9187,-0.139057
105.906,65.9405,-0.139057
105.938,65.9620,-0.139057
105.969,65.9822,-0.139057
106.000,66.0022,-0.139057
106.030,66.0207,-0.209842
106.060,66.0381,-0.209842
106.091,66.0561,-0.209842
106.122,66.0731,-0.209842
106.153,66.0890,-0.209842
106.184,66.1040,-0.209842
106.215,66.1194,-0.209842
106.246,66.1326,-0.209842
106.276,66.1457,-0.340261
106.307,66.1578,-0.340261
106.338,66.1697,-0.340261
106.368,66.1808,-0.340261
106.399,66.1908,-0.340261
106.430,66.2002,-0.340261
106.461,66.2092,-0.340261
106.492,66.2174,-0.340261
106.524,66.2253,-0.526803
106.554,66.2315,-0.526803
106.585,66.2376,-0.526803
106.615,66.2427,-0.526803
106.646,66.2471,-0.526803
106.677,66.2510,-0.526803
106.707,66.2541,-0.526803
106.738,66.2563,-0.526803
106.770,66.2580,-0.697827
106.799,66.2589,-0.697827
106.830,66.2591,-0.697827
106.861,66.2591,-0.697827
106.891,66.2591,-0.697827
106.922,66.2591,-0.697827
106.953,66.2591,-0.697827
106.984,66.2591,-0.697827
107.015,66.2591,-0.697827
107.046,66.2591,-0.651312
107.078,66.2591,-0.651312
107.109,66.2591,-0.651312
107.140,66.2591,-0.651312
107.172,66.2591,-0.651312
107.199,66.2591,-0.651312
107.232,66.2591,-0.651312
107.263,66.2591,-0.651312
107.294,66.2591,-0.456884
107.326,66.2591,-0.456884
107.357,66.2591,-0.456884
107.388,66.2591,-0.456884
107.419,66.2591,-0.456884
107.451,66.2591,-0.456884
107.481,66.2591,-0.456884
107.512,66.2591,-0.456884
107.544,66.2591,-0.456884
107.575,66.2591,-0.351092
107.605,66.2591,-0.351092
107.636,66.2591,-0.351092
107.667,66.2591,-0.351092
107.698,66.2591,-0.351092
107.729,66.2591,-0.351092
107.759,66.2591,-0.351092
107.791,66.2591,-0.310430
107.822,66.2591,-0.310430
107.854,66.2591,-0.310430
107.884,66.2591,-0.310430
107.915,66.2591,-0.310430
107.946,66.2591,-0.310430
