Elapsed Time (s),Position (mm),Force (N)
-0.011,79.8092,-0.028636
0.019,79.8092,-0.028636
0.051,79.8092,-0.028636
0.082,79.8092,-0.028636
0.114,79.8092,-0.028636
0.144,79.8092,-0.028636
0.175,79.8092,-0.027695
0.206,79.8092,-0.027695
0.237,79.8092,-0.027695
0.268,79.8092,-0.027695
0.300,79.8092,-0.027695
0.330,79.8092,-0.027695
0.361,79.8092,-0.027695
0.392,79.8092,-0.027695
0.425,79.8092,-0.027695
0.454,79.8092,-0.027695
0.486,79.8092,-0.025559
0.516,79.8092,-0.025559
0.547,79.8092,-0.025559
0.578,79.8092,-0.025559
0.609,79.8092,-0.025559
0.636,79.8092,-0.025559
0.672,79.8092,-0.023902
0.703,79.8092,-0.023902
0.735,79.8092,-0.023902
0.766,79.8092,-0.023902
0.798,79.8092,-0.023902
0.829,79.8092,-0.023902
0.860,79.8092,-0.023902
0.891,79.8092,-0.023902
0.922,79.8092,-0.023902
0.954,79.8092,-0.023902
0.985,79.8092,-0.022613
1.014,79.8092,-0.022613
1.046,79.8092,-0.022613
1.076,79.8092,-0.022613
1.108,79.8092,-0.022613
1.138,79.8092,-0.022613
1.169,79.8092,-0.022613
1.200,79.8092,-0.021691
1.233,79.8092,-0.021691
1.263,79.8092,-0.021691
1.294,79.8092,-0.021691
1.326,79.8092,-0.021691
1.356,79.8092,-0.021691
1.387,79.8092,-0.021691
1.419,79.8092,-0.021691
1.450,79.8092,-0.020966
1.481,79.8092,-0.020966
1.512,79.8092,-0.020966
1.543,79.8092,-0.020966
1.574,79.8092,-0.020966
1.605,79.8092,-0.020966
1.637,79.8092,-0.020966
1.669,79.8092,-0.020966
1.699,79.8092,-0.020966
1.731,79.8092,-0.020279
1.761,79.8092,-0.020279
1.792,79.8092,-0.020279
1.823,79.8092,-0.020279
1.854,79.8092,-0.020279
1.885,79.8092,-0.020279
1.916,79.8092,-0.020279
1.947,79.8092,-0.019696
1.980,79.8092,-0.019696
2.011,79.8092,-0.019696
2.042,79.8092,-0.019696
2.073,79.8092,-0.019696
2.103,79.8092,-0.019696
2.135,79.8092,-0.019696
2.165,79.8092,-0.019696
2.195,79.8092,-0.019216
2.226,79.8092,-0.019216
2.257,79.8092,-0.019216
2.288,79.8092,-0.019216
2.319,79.8092,-0.019216
2.350,79.8092,-0.019216
2.382,79.8092,-0.019216
2.413,79.8092,-0.019216
2.444,79.8092,-0.018802
2.474,79.8092,-0.018802
2.505,79.8092,-0.018802
2.536,79.8092,-0.018802
2.567,79.8092,-0.018802
2.599,79.8092,-0.018802
2.631,79.8092,-0.018802
2.662,79.8092,-0.018802
2.693,79.8092,-0.018369
2.724,79.8092,-0.018369
2.755,79.8092,-0.018369
2.785,79.8092,-0.018369
2.816,79.8092,-0.018369
2.846,79.8092,-0.018369
2.877,79.8092,-0.018369
2.908,79.8092,-0.018369
2.939,79.8092,-0.017936
2.971,79.8092,-0.017936
3.002,79.8092,-0.017936
3.033,79.8092,-0.017936
3.064,79.8092,-0.017936
3.095,79.8092,-0.017936
3.126,79.8092,-0.017936
3.158,79.8092,-0.017936
3.188,79.8092,-0.017597
3.219,79.8092,-0.017597
3.251,79.8092,-0.017597
3.283,79.8092,-0.017597
3.313,79.8092,-0.017597
3.344,79.8092,-0.017597
3.375,79.8092,-0.017597
3.406,79.8092,-0.017597
3.438,79.8092,-0.017334
3.469,79.8092,-0.017334
3.500,79.8092,-0.017334
3.531,79.8092,-0.017334
3.562,79.8092,-0.017334
3.592,79.8092,-0.017334
3.624,79.8092,-0.017334
3.655,79.8092,-0.017334
3.686,79.8092,-0.017080
3.716,79.8092,-0.017080
3.747,79.8092,-0.017080
3.778,79.8092,-0.017080
3.810,79.8092,-0.017080
3.840,79.8092,-0.017080
3.871,79.8092,-0.017080
3.902,79.8092,-0.017080
3.933,79.8092,-0.016798
3.964,79.8092,-0.016798
3.994,79.8092,-0.016798
4.025,79.8092,-0.016798
4.056,79.8092,-0.016798
4.086,79.8088,-0.016798
4.117,79.8078,-0.016798
4.148,79.8061,-0.016798
4.179,79.8036,-0.016496
4.209,79.8004,-0.016496
4.240,79.7966,-0.016496
4.271,79.7917,-0.016496
4.303,79.7864,-0.016496
4.333,79.7803,-0.016496
4.365,79.7732,-0.016496
4.395,79.7657,-0.016496
4.426,79.7575,-0.014925
4.457,79.7486,-0.014925
4.488,79.7388,-0.014925
4.519,79.7283,-0.014925
4.551,79.7171,-0.014925
4.582,79.7048,-0.014925
4.612,79.6925,-0.014925
4.643,79.6789,-0.014925
4.674,79.6651,-0.009260
4.706,79.6495,-0.009260
4.737,79.6343,-0.009260
4.768,79.6178,-0.009260
4.800,79.6005,-0.009260
4.830,79.5830,-0.009260
4.861,79.5650,-0.009260
4.891,79.5455,-0.009260
4.923,79.5254,-0.000047
4.954,79.5046,-0.000047
4.985,79.4834,-0.000047
5.015,79.4613,-0.000047
5.046,79.4392,-0.000047
5.077,79.4158,-0.000047
5.108,79.3912,-0.000047
5.139,79.3664,-0.000047
5.169,79.3408,0.009232
5.200,79.3150,0.009232
5.231,79.2874,0.009232
5.262,79.2595,0.009232
5.293,79.2313,0.009232
5.324,79.2014,0.009232
5.357,79.1694,0.009232
5.386,79.1402,0.009232
5.417,79.1095,0.009232
5.449,79.0773,0.016007
5.480,79.0468,0.016007
5.511,79.0157,0.016007
5.542,78.9838,0.016007
5.573,78.9536,0.016007
5.604,78.9218,0.016007
5.635,78.8922,0.016007
5.667,78.8599,0.016007
5.696,78.8307,0.020214
5.729,78.7969,0.020214
5.758,78.7686,0.020214
5.789,78.7378,0.020214
5.821,78.7065,0.020214
5.853,78.6736,0.020214
5.884,78.6426,0.020214
5.915,78.6114,0.020214
5.946,78.5801,0.024382
5.978,78.5481,0.024382
6.010,78.5165,0.024382
6.041,78.4862,0.024382
6.073,78.4539,0.024382
6.102,78.4244,0.024382
6.132,78.3948,0.024382
6.164,78.3626,0.029295
6.195,78.3318,0.029295
6.226,78.3001,0.029295
6.257,78.2700,0.029295
6.288,78.2380,0.029295
6.322,78.2045,0.029295
6.350,78.1771,0.029295
6.380,78.1459,0.029295
6.412,78.1142,0.029295
6.443,78.0830,0.033294
6.473,78.0537,0.033294
6.504,78.0222,0.033294
6.536,77.9913,0.033294
6.567,77.9593,0.033294
6.599,77.9279,0.033294
6.630,77.8963,0.033294
6.662,77.8650,0.033294
6.690,77.8364,0.034753
6.723,77.8039,0.034753
6.753,77.7739,0.034753
6.785,77.7417,0.034753
6.819,77.7075,0.034753
6.848,77.6785,0.034753
6.880,77.6471,0.034753
6.911,77.6156,0.025060
6.941,77.5847,0.025060
6.973,77.5543,0.025060
7.004,77.5226,0.025060
7.034,77.4927,0.025060
7.065,77.4611,0.025060
7.097,77.4301,0.025060
7.128,77.3983,0.025060
7.159,77.3674,0.025060
7.191,77.3356,0.012346
7.222,77.3044,0.012346
7.253,77.2739,0.012346
7.284,77.2432,0.012346
7.315,77.2118,0.012346
7.346,77.1814,0.012346
7.377,77.1503,0.012346
7.407,77.1196,0.012346
7.438,77.0884,0.008987
7.470,77.0566,0.008987
7.501,77.0261,0.008987
7.532,76.9954,0.008987
7.563,76.9644,0.008987
7.594,76.9331,0.008987
7.625,76.9014,0.008987
7.655,76.8716,0.008987
7.687,76.8396,0.008507
7.718,76.8087,0.008507
7.750,76.7767,0.008507
7.781,76.7461,0.008507
7.811,76.7152,0.008507
7.842,76.6851,0.008507
7.873,76.6533,0.008507
7.904,76.6224,0.008507
7.935,76.5905,0.008168
7.967,76.5599,0.008168
7.999,76.5279,0.008168
8.030,76.4974,0.008168
8.063,76.4634,0.008168
8.092,76.4348,0.008168
8.123,76.4029,0.008168
8.154,76.3726,0.008168
8.185,76.3416,0.008168
8.215,76.3111,0.007933
8.246,76.2812,0.007933
8.277,76.2506,0.007933
8.307,76.2192,0.007933
8.338,76.1893,0.007933
8.368,76.1586,0.007933
8.400,76.1273,0.007933
8.430,76.0969,0.007933
8.461,76.0663,0.007801
8.496,76.0300,0.007801
8.524,76.0034,0.007801
8.554,75.9724,0.007801
8.586,75.9409,0.007801
8.617,75.9102,0.007801
8.647,75.8801,0.007801
8.678,75.8483,0.007801
8.709,75.8186,0.007688
8.739,75.7885,0.007688
8.769,75.7579,0.007688
8.800,75.7272,0.007688
8.830,75.6965,0.007688
8.861,75.6648,0.007688
8.892,75.6354,0.007688
8.924,75.6033,0.007688
8.953,75.5736,0.007557
8.985,75.5421,0.007557
9.016,75.5112,0.007557
9.046,75.4805,0.007557
9.078,75.4493,0.007557
9.109,75.4180,0.007557
9.139,75.3875,0.007557
9.170,75.3580,0.007557
9.200,75.3307,0.007444
9.230,75.3022,0.007444
9.262,75.2742,0.007444
9.292,75.2471,0.007444
9.323,75.2216,0.007444
9.354,75.1957,0.007444
9.385,75.1717,0.007444
9.416,75.1468,0.007444
9.447,75.1241,0.007255
9.478,75.1008,0.007255
9.508,75.0797,0.007255
9.539,75.0584,0.007255
9.570,75.0383,0.007255
9.601,75.0181,0.007255
9.632,74.9995,0.007255
9.662,74.9818,0.007255
9.692,74.9647,0.007039
9.723,74.9477,0.007039
9.753,74.9315,0.007039
9.787,74.9145,0.007039
9.815,74.9016,0.007039
9.845,74.8878,0.007039
9.876,74.8747,0.007039
9.907,74.8622,0.007039
9.938,74.8501,0.007039
9.969,74.8388,0.006964
9.999,74.8288,0.006964
10.030,74.8191,0.006964
10.061,74.8101,0.006964
10.092,74.8020,0.006964
10.122,74.7947,0.006964
10.154,74.7876,0.006964
10.185,74.7817,0.006888
10.216,74.7762,0.006888
10.247,74.7716,0.006888
10.279,74.7678,0.006888
10.310,74.7646,0.006888
10.340,74.7622,0.006888
10.371,74.7605,0.006888
10.402,74.7595,0.006888
10.433,74.7592,0.006785
10.464,74.7592,0.006785
10.494,74.7592,0.006785
10.524,74.7592,0.006785
10.555,74.7592,0.006785
10.587,74.7592,0.006785
10.618,74.7592,0.006785
10.648,74.7596,0.006785
10.679,74.7607,0.006766
10.713,74.7629,0.006766
10.741,74.7652,0.006766
10.771,74.7685,0.006766
10.802,74.7724,0.006766
10.833,74.7772,0.006766
10.864,74.7825,0.006766
10.898,74.7896,0.006766
10.924,74.7956,0.006616
10.955,74.8030,0.006616
10.986,74.8114,0.006616
11.017,74.8204,0.006616
11.047,74.8305,0.006616
11.079,74.8407,0.006616
11.109,74.8515,0.006616
11.141,74.8639,0.006616
11.172,74.8765,0.006484
11.202,74.8898,0.006484
11.234,74.9038,0.006484
11.265,74.9195,0.006484
11.295,74.9342,0.006484
11.326,74.9508,0.006484
11.357,74.9675,0.006484
11.388,74.9856,0.006484
11.420,75.0043,0.006456
11.451,75.0235,0.006456
11.482,75.0442,0.006456
11.513,75.0647,0.006456
11.544,75.0859,0.006456
11.575,75.1078,0.006456
11.607,75.1312,0.006456
11.636,75.1542,0.006456
11.667,75.1780,0.006456
11.698,75.2030,0.006333
11.729,75.2290,0.006333
11.760,75.2551,0.006333
11.790,75.2820,0.006333
11.820,75.3096,0.006333
11.851,75.3372,0.006333
11.882,75.3671,0.006333
11.919,75.4029,0.006333
11.960,75.4437,0.006230
11.990,75.4740,0.006230
12.025,75.5086,0.006230
12.052,75.5350,0.006230
12.084,75.5672,0.006230
12.114,75.5975,0.006230
12.146,75.6292,0.006230
12.177,75.6607,0.006173
12.208,75.6915,0.006173
12.240,75.7234,0.006173
12.271,75.7546,0.006173
12.302,75.7858,0.006173
12.334,75.8181,0.006173
12.365,75.8493,0.006173
12.396,75.8794,0.006173
12.428,75.9113,0.006117
12.459,75.9425,0.006117
12.490,75.9734,0.006117
12.521,76.0052,0.006117
12.552,76.0353,0.006117
12.583,76.0663,0.006117
12.614,76.0976,0.006117
12.647,76.1302,0.006117
12.676,76.1592,0.006117
12.706,76.1898,0.006051
12.737,76.2208,0.006051
12.768,76.2520,0.006051
12.800,76.2832,0.006051
12.832,76.3156,0.006051
12.863,76.3465,0.006051
12.894,76.3775,0.006051
12.924,76.4089,0.005938
12.956,76.4399,0.005938
12.987,76.4702,0.005938
13.018,76.5019,0.005938
13.049,76.5319,0.005938
13.080,76.5638,0.005938
13.110,76.5938,0.005938
13.140,76.6247,0.005938
13.171,76.6547,0.005778
13.203,76.6862,0.005778
13.233,76.7169,0.005778
13.263,76.7476,0.005778
13.295,76.7794,0.005778
13.325,76.8090,0.005778
13.355,76.8386,0.005778
13.386,76.8702,0.005778
13.418,76.9015,0.005684
13.448,76.9314,0.005684
13.479,76.9624,0.005684
13.510,76.9940,0.005684
13.541,77.0250,0.005684
13.576,77.0602,0.005684
13.603,77.0871,0.005684
13.634,77.1173,0.005684
13.664,77.1479,0.005684
13.695,77.1788,0.005618
13.726,77.2093,0.005618
13.759,77.2437,0.005618
13.788,77.2714,0.005618
13.822,77.3050,0.005618
13.850,77.3335,0.005618
13.881,77.3645,0.005618
13.912,77.3958,0.005430
13.944,77.4283,0.005430
13.974,77.4572,0.005430
14.008,77.4933,0.005430
14.037,77.5207,0.005430
14.069,77.5527,0.005430
14.099,77.5837,0.005430
14.131,77.6142,0.005430
14.161,77.6457,0.005223
14.192,77.6758,0.005223
14.223,77.7076,0.005223
14.256,77.7395,0.005223
14.285,77.7686,0.005223
14.315,77.7989,0.005223
14.347,77.8309,0.005223
14.378,77.8614,0.005223
14.408,77.8914,0.005223
14.439,77.9227,0.005223
14.470,77.9533,0.005129
14.501,77.9848,0.005129
14.532,78.0158,0.005129
14.565,78.0486,0.005129
14.595,78.0783,0.005129
14.627,78.1103,0.005129
14.659,78.1422,0.005129
14.690,78.1736,0.004988
14.721,78.2042,0.004988
14.753,78.2363,0.004988
14.783,78.2664,0.004988
14.814,78.2976,0.004988
14.844,78.3275,0.004988
14.876,78.3595,0.004988
14.907,78.3907,0.004988
14.938,78.4210,0.004658
14.969,78.4529,0.004658
14.999,78.4827,0.004658
15.030,78.5140,0.004658
15.061,78.5452,0.004658
15.092,78.5762,0.004658
15.122,78.6049,0.004658
15.153,78.6373,0.004658
15.183,78.6668,0.004075
15.215,78.6985,0.004075
15.246,78.7287,0.004075
15.277,78.7607,0.004075
15.308,78.7917,0.004075
15.339,78.8222,0.004075
15.370,78.8535,0.004075
15.401,78.8852,0.004075
15.432,78.9152,0.004075
15.463,78.9466,0.004075
15.494,78.9771,0.003049
15.525,79.0079,0.003049
15.556,79.0394,0.003049
15.586,79.0698,0.003049
15.617,79.1013,0.003049
15.648,79.1313,0.003049
15.681,79.1625,0.003049
15.710,79.1907,0.000800
15.742,79.2200,0.000800
15.774,79.2481,0.000800
15.805,79.2744,0.000800
15.835,79.3005,0.000800
15.868,79.3273,0.000800
15.898,79.3514,0.000800
15.928,79.3751,0.000800
15.960,79.3981,-0.003764
15.991,79.4213,-0.003764
16.022,79.4426,-0.003764
16.053,79.4644,-0.003764
16.087,79.4870,-0.003764
16.115,79.5044,-0.003764
16.149,79.5252,-0.003764
16.178,79.5416,-0.003764
16.209,79.5591,-0.010662
16.240,79.5758,-0.010662
16.271,79.5919,-0.010662
16.302,79.6069,-0.010662
16.339,79.6249,-0.010662
16.379,79.6417,-0.010662
16.412,79.6550,-0.010662
16.440,79.6661,-0.018595
16.471,79.6772,-0.018595
16.502,79.6878,-0.018595
16.533,79.6976,-0.018595
16.564,79.7068,-0.018595
16.595,79.7152,-0.018595
16.626,79.7228,-0.018595
16.656,79.7295,-0.018595
16.687,79.7357,-0.025399
16.718,79.7411,-0.025399
16.749,79.7461,-0.025399
16.780,79.7499,-0.025399
16.811,79.7533,-0.025399
16.842,79.7559,-0.025399
16.873,79.7577,-0.025399
16.904,79.7589,-0.025399
16.935,79.7592,-0.028843
16.966,79.7592,-0.028843
16.998,79.7592,-0.028843
17.029,79.7592,-0.028843
17.060,79.7592,-0.028843
17.091,79.7592,-0.028843
17.122,79.7592,-0.028843
17.154,79.7592,-0.028843
17.185,79.7592,-0.028382
17.216,79.7592,-0.028382
17.247,79.7592,-0.028382
17.278,79.7592,-0.028382
17.308,79.7592,-0.028382
17.341,79.7592,-0.028382
17.371,79.7592,-0.028382
17.402,79.7592,-0.028382
17.433,79.7592,-0.026246
17.464,79.7592,-0.026246
17.495,79.7592,-0.026246
17.526,79.7592,-0.026246
17.557,79.7592,-0.026246
17.588,79.7592,-0.026246
17.618,79.7592,-0.026246
17.649,79.7592,-0.026246
17.680,79.7592,-0.024467
17.712,79.7592,-0.024467
17.743,79.7592,-0.024467
17.774,79.7592,-0.024467
17.805,79.7592,-0.024467
17.836,79.7592,-0.024467
17.867,79.7592,-0.024467
17.898,79.7592,-0.024467
17.928,79.7592,-0.023150
17.959,79.7592,-0.023150
17.990,79.7592,-0.023150
18.021,79.7592,-0.023150
18.051,79.7592,-0.023150
18.081,79.7592,-0.023150
18.113,79.7592,-0.023150
18.144,79.7592,-0.023150
18.176,79.7592,-0.023150
18.207,79.7592,-0.022133
18.238,79.7592,-0.022133
18.269,79.7592,-0.022133
18.301,79.7592,-0.022133
18.331,79.7592,-0.022133
18.362,79.7592,-0.022133
18.393,79.7592,-0.022133
18.424,79.7592,-0.021352
18.455,79.7592,-0.021352
18.486,79.7592,-0.021352
18.517,79.7592,-0.021352
18.548,79.7592,-0.021352
18.580,79.7592,-0.021352
18.611,79.7592,-0.021352
18.641,79.7592,-0.021352
18.672,79.7592,-0.020665
18.707,79.7592,-0.020665
18.734,79.7592,-0.020665
18.766,79.7592,-0.020665
18.797,79.7592,-0.020665
18.827,79.7592,-0.020665
18.858,79.7592,-0.020665
18.892,79.7592,-0.020665
18.919,79.7592,-0.019997
18.950,79.7592,-0.019997
18.982,79.7592,-0.019997
19.013,79.7592,-0.019997
19.044,79.7592,-0.019997
19.075,79.7592,-0.019997
19.106,79.7592,-0.019997
19.137,79.7592,-0.019997
19.168,79.7592,-0.019997
19.198,79.7592,-0.019442
19.229,79.7592,-0.019442
19.260,79.7592,-0.019442
19.291,79.7592,-0.019442
19.322,79.7592,-0.019442
19.353,79.7592,-0.019442
19.384,79.7592,-0.019442
19.414,79.7592,-0.019442
19.446,79.7592,-0.019009
19.477,79.7592,-0.019009
19.508,79.7592,-0.019009
19.539,79.7592,-0.019009
19.570,79.7592,-0.019009
19.601,79.7592,-0.019009
19.631,79.7592,-0.019009
19.663,79.7592,-0.019009
19.694,79.7592,-0.019009
19.725,79.7592,-0.018604
19.756,79.7592,-0.018604
19.787,79.7592,-0.018604
19.817,79.7592,-0.018604
19.850,79.7592,-0.018604
19.880,79.7592,-0.018604
19.910,79.7592,-0.018604
19.942,79.7592,-0.018200
19.974,79.7592,-0.018200
20.005,79.7592,-0.018200
20.036,79.7592,-0.018200
20.067,79.7592,-0.018200
20.098,79.7592,-0.018200
20.128,79.7592,-0.018200
20.160,79.7592,-0.018200
20.190,79.7592,-0.018200
20.221,79.7592,-0.017927
20.251,79.7592,-0.017927
20.283,79.7592,-0.017927
20.314,79.7592,-0.017927
20.344,79.7592,-0.017927
20.377,79.7592,-0.017927
20.406,79.7592,-0.017927
20.437,79.7592,-0.017927
20.468,79.7592,-0.017663
20.499,79.7592,-0.017663
20.530,79.7592,-0.017663
20.560,79.7592,-0.017663
20.592,79.7592,-0.017663
20.623,79.7592,-0.017663
20.653,79.7592,-0.017663
20.685,79.7592,-0.017663
20.716,79.7592,-0.017334
20.747,79.7592,-0.017334
20.779,79.7592,-0.017334
20.809,79.7592,-0.017334
20.840,79.7592,-0.017334
20.871,79.7592,-0.017334
20.903,79.7592,-0.017334
20.933,79.7592,-0.017334
20.964,79.7592,-0.017014
20.994,79.7592,-0.017014
21.026,79.7592,-0.017014
21.056,79.7592,-0.017014
21.087,79.7592,-0.017014
21.119,79.7592,-0.017014
21.150,79.7592,-0.017014
21.180,79.7592,-0.016713
21.212,79.7591,-0.016713
21.242,79.7585,-0.016713
21.274,79.7571,-0.016713
21.304,79.7550,-0.016713
21.336,79.7520,-0.016713
21.368,79.7484,-0.016713
21.397,79.7441,-0.016713
21.428,79.7393,-0.016713
21.460,79.7333,-0.016383
21.491,79.7270,-0.016383
21.521,79.7198,-0.016383
21.552,79.7117,-0.016383
21.584,79.7029,-0.016383
21.615,79.6935,-0.016383
21.645,79.6836,-0.016383
21.676,79.6728,-0.013203
21.707,79.6611,-0.013203
21.739,79.6488,-0.013203
21.770,79.6353,-0.013203
21.801,79.6217,-0.013203
21.833,79.6064,-0.013203
21.864,79.5915,-0.013203
21.895,79.5753,-0.013203
21.925,79.5593,-0.013203
21.956,79.5416,-0.005590
21.987,79.5237,-0.005590
22.019,79.5042,-0.005590
22.050,79.4848,-0.005590
22.081,79.4638,-0.005590
22.113,79.4430,-0.005590
22.144,79.4209,-0.005590
22.175,79.3983,0.003999
22.206,79.3746,0.003999
22.236,79.3511,0.003999
22.267,79.3265,0.003999
22.298,79.3017,0.003999
22.328,79.2763,0.003999
22.359,79.2492,0.003999
22.390,79.2215,0.003999
22.422,79.1932,0.003999
22.453,79.1640,0.012478
22.484,79.1338,0.012478
22.513,79.1048,0.012478
22.546,79.0726,0.012478
22.575,79.0430,0.012478
22.607,79.0114,0.012478
22.637,78.9804,0.012478
22.668,78.9498,0.017861
22.700,78.9185,0.017861
22.732,78.8868,0.017861
22.763,78.8553,0.017861
22.794,78.8235,0.017861
22.826,78.7925,0.017861
22.856,78.7615,0.017861
22.888,78.7305,0.017861
22.917,78.7009,0.017861
22.948,78.6698,0.021550
22.979,78.6390,0.021550
23.010,78.6074,0.021550
23.042,78.5768,0.021550
23.073,78.5457,0.021550
23.103,78.5148,0.021550
23.135,78.4835,0.021550
23.166,78.4521,0.025897
23.197,78.4208,0.025897
23.229,78.3899,0.025897
23.259,78.3586,0.025897
23.290,78.3276,0.025897
23.321,78.2969,0.025897
23.353,78.2652,0.025897
23.384,78.2346,0.025897
23.414,78.2040,0.030518
23.445,78.1728,0.030518
23.476,78.1413,0.030518
23.507,78.1108,0.030518
23.538,78.0795,0.030518
23.570,78.0481,0.030518
23.600,78.0172,0.030518
23.631,77.9873,0.030518
23.662,77.9562,0.030518
23.693,77.9253,0.033520
23.724,77.8938,0.033520
23.755,77.8633,0.033520
23.787,77.8315,0.033520
23.818,77.7998,0.033520
23.848,77.7699,0.033520
23.880,77.7388,0.033520
23.912,77.7051,0.033520
23.942,77.6765,0.033520
23.973,77.6450,0.033172
24.004,77.6140,0.033172
24.035,77.5835,0.033172
24.066,77.5519,0.033172
24.097,77.5206,0.033172
24.128,77.4901,0.033172
24.159,77.4591,0.033172
24.190,77.4287,0.020995
24.223,77.3948,0.020995
24.252,77.3662,0.020995
24.284,77.3342,0.020995
24.314,77.3041,0.020995
24.345,77.2732,0.020995
24.377,77.2413,0.020995
24.408,77.2104,0.020995
24.440,77.1778,0.009448
24.470,77.1479,0.009448
24.502,77.1165,0.009448
24.532,77.0860,0.009448
24.563,77.0554,0.009448
24.594,77.0241,0.009448
24.626,76.9929,0.009448
24.656,76.9616,0.009448
24.687,76.9311,0.008676
24.719,76.8991,0.008676
24.750,76.8690,0.008676
24.780,76.8382,0.008676
24.811,76.8073,0.008676
24.842,76.7760,0.008676
24.872,76.7463,0.008676
24.904,76.7144,0.008676
24.935,76.6841,0.008281
24.965,76.6536,0.008281
24.996,76.6224,0.008281
25.027,76.5919,0.008281
25.058,76.5604,0.008281
25.090,76.5282,0.008281
25.120,76.4984,0.008281
25.152,76.4665,0.008281
25.181,76.4366,0.007971
25.213,76.4054,0.007971
25.243,76.3749,0.007971
25.274,76.3440,0.007971
25.306,76.3127,0.007971
25.335,76.2827,0.007971
25.367,76.2517,0.007971
25.397,76.2210,0.007971
25.429,76.1891,0.007792
25.460,76.1575,0.007792
25.490,76.1284,0.007792
25.522,76.0961,0.007792
25.553,76.0654,0.007792
25.584,76.0338,0.007792
25.615,76.0031,0.007792
25.646,75.9714,0.007792
25.678,75.9409,0.007792
25.709,75.9092,0.007651
25.739,75.8794,0.007651
25.771,75.8476,0.007651
25.801,75.8178,0.007651
25.832,75.7863,0.007651
25.863,75.7561,0.007651
25.894,75.7235,0.007651
25.926,75.6925,0.007528
25.957,75.6604,0.007528
25.988,75.6305,0.007528
26.022,75.5959,0.007528
26.049,75.5696,0.007528
26.081,75.5373,0.007528
26.111,75.5075,0.007528
26.148,75.4707,0.007528
26.175,75.4438,0.007481
26.204,75.4136,0.007481
26.235,75.3826,0.007481
26.266,75.3517,0.007481
26.297,75.3225,0.007481
26.328,75.2923,0.007481
26.359,75.2644,0.007481
26.390,75.2357,0.007481
26.421,75.2092,0.007321
26.451,75.1823,0.007321
26.483,75.1567,0.007321
26.513,75.1314,0.007321
26.545,75.1067,0.007321
26.577,75.0822,0.007321
26.607,75.0597,0.007321
26.639,75.0369,0.007321
26.670,75.0157,0.007321
26.701,74.9951,0.007114
26.731,74.9748,0.007114
26.762,74.9562,0.007114
26.792,74.9379,0.007114
26.823,74.9200,0.007114
26.854,74.9033,0.007114
26.885,74.8866,0.007114
26.916,74.8712,0.007114
26.947,74.8562,0.007011
26.977,74.8421,0.007011
27.009,74.8284,0.007011
27.042,74.8147,0.007011
27.071,74.8035,0.007011
27.102,74.7922,0.007011
27.133,74.7815,0.007011
27.163,74.7717,0.007011
27.195,74.7624,0.006907
27.226,74.7540,0.006907
27.256,74.7462,0.006907
27.288,74.7391,0.006907
27.319,74.7331,0.006907
27.350,74.7275,0.006907
27.380,74.7229,0.006907
27.411,74.7188,0.006907
27.443,74.7153,0.006860
27.474,74.7127,0.006860
27.504,74.7109,0.006860
27.535,74.7097,0.006860
27.566,74.7092,0.006860
27.597,74.7092,0.006860
27.628,74.7092,0.006860
27.660,74.7092,0.006860
27.692,74.7092,0.006851
27.723,74.7092,0.006851
27.754,74.7097,0.006851
27.785,74.7110,0.006851
27.815,74.7130,0.006851
27.846,74.7154,0.006851
27.877,74.7188,0.006851
27.908,74.7229,0.006851
27.939,74.7278,0.006785
27.971,74.7335,0.006785
28.003,74.7400,0.006785
28.034,74.7471,0.006785
28.065,74.7550,0.006785
28.096,74.7634,0.006785
28.126,74.7726,0.006785
28.158,74.7825,0.006785
28.188,74.7931,0.006785
28.218,74.8042,0.006606
28.249,74.8164,0.006606
28.280,74.8293,0.006606
28.316,74.8453,0.006606
28.343,74.8573,0.006606
28.373,74.8720,0.006606
28.404,74.8877,0.006606
28.435,74.9043,0.006606
28.466,74.9209,0.006606
28.496,74.9392,0.006465
28.528,74.9577,0.006465
28.559,74.9779,0.006465
28.591,74.9978,0.006465
28.622,75.0192,0.006465
28.653,75.0404,0.006465
28.688,75.0663,0.006465
28.715,75.0860,0.006465
28.747,75.1112,0.006427
28.778,75.1354,0.006427
28.809,75.1608,0.006427
28.841,75.1870,0.006427
28.873,75.2149,0.006427
28.904,75.2418,0.006427
28.935,75.2698,0.006427
28.965,75.2982,0.006343
28.996,75.3276,0.006343
29.027,75.3581,0.006343
29.058,75.3893,0.006343
29.091,75.4229,0.006343
29.120,75.4509,0.006343
29.151,75.4828,0.006343
29.182,75.5139,0.006343
29.213,75.5453,0.006267
29.244,75.5753,0.006267
29.275,75.6068,0.006267
29.306,75.6379,0.006267
29.338,75.6696,0.006267
29.370,75.7007,0.006267
29.400,75.7318,0.006267
29.431,75.7621,0.006267
29.462,75.7931,0.006220
29.493,75.8248,0.006220
29.524,75.8552,0.006220
29.553,75.8841,0.006220
29.586,75.9174,0.006220
29.617,75.9479,0.006220
29.647,75.9779,0.006220
29.677,76.0091,0.006145
29.708,76.0395,0.006145
29.738,76.0698,0.006145
29.769,76.1009,0.006145
29.799,76.1307,0.006145
29.830,76.1618,0.006145
29.861,76.1928,0.006145
29.892,76.2238,0.006145
29.923,76.2548,0.006023
29.954,76.2863,0.006023
29.985,76.3161,0.006023
30.015,76.3461,0.006023
30.046,76.3775,0.006023
30.078,76.4094,0.006023
30.108,76.4395,0.006023
30.139,76.4699,0.006023
30.170,76.5016,0.005891
30.203,76.5352,0.005891
30.231,76.5626,0.005891
30.263,76.5951,0.005891
30.294,76.6255,0.005891
30.325,76.6568,0.005891
30.356,76.6878,0.005891
30.387,76.7189,0.005891
30.418,76.7497,0.005891
30.448,76.7804,0.005797
30.481,76.8122,0.005797
30.512,76.8439,0.005797
30.543,76.8746,0.005797
30.575,76.9069,0.005797
30.606,76.9371,0.005797
30.637,76.9680,0.005797
30.668,76.9992,0.005656
30.698,77.0298,0.005656
30.729,77.0611,0.005656
30.761,77.0921,0.005656
30.792,77.1229,0.005656
30.822,77.1534,0.005656
30.854,77.1854,0.005656
30.885,77.2161,0.005656
30.917,77.2481,0.005656
30.948,77.2789,0.005505
30.980,77.3108,0.005505
31.010,77.3410,0.005505
31.042,77.3729,0.005505
31.073,77.4040,0.005505
31.104,77.4358,0.005505
31.135,77.4663,0.005505
31.167,77.4977,0.005505
31.197,77.5285,0.005373
31.229,77.5602,0.005373
31.260,77.5913,0.005373
31.293,77.6240,0.005373
31.322,77.6528,0.005373
31.353,77.6844,0.005373
31.383,77.7145,0.005373
31.415,77.7467,0.005185
31.446,77.7768,0.005185
31.477,77.8085,0.005185
31.508,77.8397,0.005185
31.539,77.8703,0.005185
31.569,77.8996,0.005185
31.600,77.9312,0.005185
31.630,77.9615,0.005185
31.661,77.9920,0.004978
31.692,78.0230,0.004978
31.723,78.0549,0.004978
31.754,78.0854,0.004978
31.784,78.1159,0.004978
31.816,78.1478,0.004978
31.847,78.1788,0.004978
31.879,78.2109,0.004978
31.910,78.2415,0.004743
31.941,78.2719,0.004743
31.972,78.3032,0.004743
32.004,78.3354,0.004743
32.034,78.3653,0.004743
32.064,78.3956,0.004743
32.095,78.4266,0.004743
32.127,78.4578,0.004743
32.157,78.4879,0.004743
32.188,78.5189,0.004301
32.220,78.5511,0.004301
32.250,78.5816,0.004301
32.282,78.6134,0.004301
32.312,78.6440,0.004301
32.344,78.6746,0.004301
32.375,78.7060,0.004301
32.406,78.7374,0.004301
32.437,78.7680,0.003548
32.469,78.7999,0.003548
32.499,78.8295,0.003548
32.530,78.8612,0.003548
32.561,78.8928,0.003548
32.590,78.9219,0.003548
32.621,78.9523,0.003548
32.652,78.9837,0.003548
32.682,79.0133,0.001986
32.713,79.0461,0.001986
32.744,79.0747,0.001986
32.775,79.1052,0.001986
32.806,79.1341,0.001986
32.837,79.1625,0.001986
32.868,79.1907,0.001986
32.899,79.2176,0.001986
32.931,79.2458,0.001986
32.962,79.2708,0.001986
32.994,79.2967,-0.001553
33.025,79.3203,-0.001553
33.055,79.3437,-0.001553
33.087,79.3663,-0.001553
33.118,79.3888,-0.001553
33.150,79.4101,-0.001553
33.181,79.4309,-0.007613
33.212,79.4505,-0.007613
33.242,79.4696,-0.007613
33.274,79.4879,-0.007613
33.305,79.5057,-0.007613
33.336,79.5222,-0.007613
33.367,79.5387,-0.007613
33.399,79.5545,-0.007613
33.430,79.5688,-0.015358
33.461,79.5830,-0.015358
33.493,79.5968,-0.015358
33.524,79.6093,-0.015358
33.558,79.6217,-0.015358
33.585,79.6314,-0.015358
33.616,79.6417,-0.015358
33.647,79.6512,-0.015358
33.678,79.6603,-0.015358
33.710,79.6683,-0.022858
33.740,79.6755,-0.022858
33.771,79.6822,-0.022858
33.802,79.6882,-0.022858
33.833,79.6932,-0.022858
33.863,79.6976,-0.022858
33.894,79.7014,-0.022858
33.925,79.7044,-0.022858
33.956,79.7066,-0.027892
33.987,79.7083,-0.027892
34.019,79.7091,-0.027892
34.050,79.7092,-0.027892
34.081,79.7092,-0.027892
34.112,79.7092,-0.027892
34.143,79.7092,-0.027892
34.173,79.7092,-0.027892
34.205,79.7092,-0.028909
34.235,79.7092,-0.028909
34.266,79.7092,-0.028909
34.297,79.7092,-0.028909
34.328,79.7092,-0.028909
34.359,79.7092,-0.028909
34.390,79.7092,-0.028909
34.421,79.7092,-0.027111
34.452,79.7092,-0.027111
34.483,79.7092,-0.027111
34.514,79.7092,-0.027111
34.545,79.7092,-0.027111
34.576,79.7092,-0.027111
34.606,79.7092,-0.027111
34.638,79.7092,-0.027111
34.669,79.7092,-0.025079
34.700,79.7092,-0.025079
34.730,79.7092,-0.025079
34.761,79.7092,-0.025079
34.792,79.7092,-0.025079
34.824,79.7092,-0.025079
34.855,79.7092,-0.025079
34.886,79.7092,-0.025079
34.917,79.7092,-0.023582
34.948,79.7092,-0.023582
34.980,79.7092,-0.023582
35.012,79.7092,-0.023582
35.044,79.7092,-0.023582
35.075,79.7092,-0.023582
35.106,79.7092,-0.023582
35.138,79.7092,-0.023582
35.169,79.7092,-0.022425
35.202,79.7092,-0.022425
35.231,79.7092,-0.022425
35.262,79.7092,-0.022425
35.292,79.7092,-0.022425
35.323,79.7092,-0.022425
35.354,79.7092,-0.022425
35.385,79.7092,-0.022425
35.416,79.7092,-0.022425
35.447,79.7092,-0.021531
35.479,79.7092,-0.021531
35.510,79.7092,-0.021531
35.540,79.7092,-0.021531
35.572,79.7092,-0.021531
35.604,79.7092,-0.021531
35.634,79.7092,-0.021531
35.665,79.7092,-0.021531
35.696,79.7092,-0.020806
35.727,79.7092,-0.020806
35.756,79.7092,-0.020806
35.788,79.7092,-0.020806
35.819,79.7092,-0.020806
35.849,79.7092,-0.020806
35.879,79.7092,-0.020806
35.910,79.7092,-0.020806
35.941,79.7092,-0.020157
35.972,79.7092,-0.020157
36.003,79.7092,-0.020157
36.033,79.7092,-0.020157
36.064,79.7092,-0.020157
36.095,79.7092,-0.020157
36.127,79.7092,-0.020157
36.158,79.7092,-0.020157
36.189,79.7092,-0.019639
36.220,79.7092,-0.019639
36.250,79.7092,-0.019639
36.281,79.7092,-0.019639
36.312,79.7092,-0.019639
36.343,79.7092,-0.019639
36.375,79.7092,-0.019639
36.405,79.7092,-0.019639
36.436,79.7092,-0.019639
36.468,79.7092,-0.019169
36.498,79.7092,-0.019169
36.530,79.7092,-0.019169
36.565,79.7092,-0.019169
36.592,79.7092,-0.019169
36.624,79.7092,-0.019169
36.655,79.7092,-0.019169
36.686,79.7092,-0.018727
36.717,79.7092,-0.018727
36.749,79.7092,-0.018727
36.780,79.7092,-0.018727
36.811,79.7092,-0.018727
36.843,79.7092,-0.018727
36.872,79.7092,-0.018727
36.904,79.7092,-0.018727
36.935,79.7092,-0.018313
36.965,79.7092,-0.018313
36.996,79.7092,-0.018313
37.027,79.7092,-0.018313
37.059,79.7092,-0.018313
37.090,79.7092,-0.018313
37.122,79.7092,-0.018313
37.153,79.7092,-0.018313
37.184,79.7092,-0.018313
37.215,79.7092,-0.017927
37.245,79.7092,-0.017927
37.276,79.7092,-0.017927
37.308,79.7092,-0.017927
37.340,79.7092,-0.017927
37.371,79.7092,-0.017927
37.402,79.7092,-0.017927
37.434,79.7092,-0.017597
37.465,79.7092,-0.017597
37.496,79.7092,-0.017597
37.527,79.7092,-0.017597
37.558,79.7092,-0.017597
37.589,79.7092,-0.017597
37.619,79.7092,-0.017597
37.651,79.7092,-0.017597
37.682,79.7092,-0.017597
37.713,79.7092,-0.017287
37.744,79.7092,-0.017287
37.775,79.7092,-0.017287
37.806,79.7092,-0.017287
37.837,79.7092,-0.017287
37.869,79.7092,-0.017287
37.900,79.7092,-0.017287
37.931,79.7092,-0.017005
37.965,79.7092,-0.017005
37.993,79.7092,-0.017005
38.024,79.7092,-0.017005
38.055,79.7092,-0.017005
38.087,79.7092,-0.017005
38.117,79.7092,-0.017005
38.148,79.7092,-0.017005
38.179,79.7092,-0.016835
38.210,79.7092,-0.016835
38.240,79.7092,-0.016835
38.272,79.7092,-0.016835
38.303,79.7092,-0.016835
38.334,79.7092,-0.016835
38.365,79.7092,-0.016835
38.397,79.7092,-0.016835
38.428,79.7092,-0.016835
38.460,79.7092,-0.016553
38.490,79.7092,-0.016553
38.521,79.7092,-0.016553
38.551,79.7092,-0.016553
38.582,79.7092,-0.016553
38.613,79.7092,-0.016553
38.644,79.7092,-0.016553
38.675,79.7092,-0.016252
38.706,79.7091,-0.016252
38.738,79.7084,-0.016252
38.769,79.7069,-0.016252
38.800,79.7047,-0.016252
38.832,79.7016,-0.016252
38.862,79.6980,-0.016252
38.894,79.6934,-0.016252
38.924,79.6884,-0.015838
38.956,79.6822,-0.015838
38.986,79.6759,-0.015838
39.017,79.6686,-0.015838
39.048,79.6605,-0.015838
39.078,79.6521,-0.015838
39.110,79.6424,-0.015838
39.140,79.6322,-0.015838
39.171,79.6212,-0.012469
39.203,79.6094,-0.012469
39.234,79.5971,-0.012469
39.265,79.5837,-0.012469
39.296,79.5701,-0.012469
39.327,79.5551,-0.012469
39.358,79.5400,-0.012469
39.389,79.5236,-0.012469
39.421,79.5067,-0.004799
39.453,79.4884,-0.004799
39.483,79.4709,-0.004799
39.513,79.4523,-0.004799
39.545,79.4322,-0.004799
39.575,79.4121,-0.004799
39.607,79.3905,-0.004799
39.637,79.3687,-0.004799
39.668,79.3467,-0.004799
39.698,79.3242,0.004705
39.728,79.3002,0.004705
39.759,79.2758,0.004705
39.790,79.2501,0.004705
39.821,79.2244,0.004705
39.852,79.1978,0.004705
39.882,79.1711,0.004705
39.913,79.1422,0.004705
39.944,79.1137,0.013090
39.975,79.0832,0.013090
40.006,79.0532,0.013090
40.037,79.0218,0.013090
40.068,78.9913,0.013090
40.103,78.9553,0.013090
40.129,78.9293,0.013090
40.161,78.8984,0.013090
40.192,78.8674,0.018454
40.227,78.8314,0.018454
40.254,78.8049,0.018454
40.286,78.7731,0.018454
40.317,78.7421,0.018454
40.347,78.7116,0.018454
40.384,78.6748,0.018454
40.410,78.6495,0.018454
40.440,78.6188,0.022331
40.471,78.5876,0.022331
40.506,78.5530,0.022331
40.534,78.5254,0.022331
40.566,78.4931,0.022331
40.598,78.4606,0.022331
40.628,78.4311,0.022331
40.662,78.3955,0.022331
40.691,78.3684,0.022331
40.722,78.3369,0.026961
40.753,78.3055,0.026961
40.784,78.2749,0.026961
40.815,78.2437,0.026961
40.846,78.2129,0.026961
40.877,78.1819,0.026961
40.908,78.1509,0.026961
40.939,78.1201,0.031591
40.970,78.0894,0.031591
41.001,78.0580,0.031591
41.032,78.0276,0.031591
41.063,77.9966,0.031591
41.094,77.9652,0.031591
41.125,77.9338,0.031591
41.157,77.9022,0.031591
41.187,77.8721,0.034386
41.219,77.8401,0.034386
41.250,77.8096,0.034386
41.281,77.7780,0.034386
41.312,77.7476,0.034386
41.344,77.7152,0.034386
41.375,77.6838,0.034386
41.406,77.6531,0.034386
41.437,77.6222,0.034188
41.467,77.5927,0.034188
41.497,77.5621,0.034188
41.528,77.5308,0.034188
41.559,77.5001,0.034188
41.591,77.4684,0.034188
41.621,77.4381,0.034188
41.653,77.4065,0.034188
41.684,77.3751,0.021700
41.715,77.3447,0.021700
41.746,77.3129,0.021700
41.778,77.2805,0.021700
41.810,77.2486,0.021700
41.841,77.2189,0.021700
41.877,77.1815,0.021700
41.919,77.1402,0.021700
41.950,77.1095,0.021700
41.981,77.0780,0.009486
42.012,77.0463,0.009486
42.044,77.0152,0.009486
42.075,76.9838,0.009486
42.106,76.9526,0.009486
42.137,76.9212,0.009486
42.169,76.8898,0.009486
42.200,76.8587,0.008601
42.232,76.8267,0.008601
42.262,76.7967,0.008601
42.293,76.7659,0.008601
42.325,76.7337,0.008601
42.355,76.7040,0.008601
42.387,76.6719,0.008601
42.416,76.6434,0.008234
42.450,76.6092,0.008234
42.478,76.5811,0.008234
42.509,76.5507,0.008234
42.540,76.5187,0.008234
42.570,76.4896,0.008234
42.601,76.4582,0.008234
42.632,76.4275,0.008234
42.663,76.3962,0.008234
42.693,76.3659,0.008008
42.724,76.3351,0.008008
42.754,76.3048,0.008008
42.784,76.2748,0.008008
42.816,76.2428,0.008008
42.846,76.2130,0.008008
42.878,76.1809,0.008008
42.908,76.1510,0.007829
42.939,76.1207,0.007829
42.970,76.0892,0.007829
43.001,76.0576,0.007829
43.032,76.0269,0.007829
43.062,75.9972,0.007829
43.093,75.9658,0.007829
43.124,75.9351,0.007829
43.155,75.9046,0.007829
43.186,75.8736,0.007660
43.218,75.8410,0.007660
43.250,75.8096,0.007660
43.282,75.7775,0.007660
43.312,75.7474,0.007660
43.343,75.7167,0.007660
43.374,75.6851,0.007660
43.404,75.6555,0.007660
43.435,75.6244,0.007519
43.467,75.5928,0.007519
43.497,75.5626,0.007519
43.527,75.5318,0.007519
43.558,75.5009,0.007519
43.590,75.4699,0.007519
43.620,75.4394,0.007519
43.650,75.4086,0.007519
43.682,75.3775,0.007453
43.714,75.3450,0.007453
43.745,75.3146,0.007453
43.776,75.2835,0.007453
43.807,75.2537,0.007453
43.838,75.2246,0.007453
43.870,75.1953,0.007453
43.900,75.1687,0.007453
43.932,75.1406,0.007293
43.962,75.1157,0.007293
43.994,75.0899,0.007293
44.025,75.0652,0.007293
44.056,75.0414,0.007293
44.087,75.0181,0.007293
44.117,74.9959,0.007293
44.148,74.9744,0.007293
44.179,74.9532,0.007293
44.210,74.9330,0.007133
44.242,74.9126,0.007133
44.273,74.8937,0.007133
44.303,74.8760,0.007133
44.335,74.8586,0.007133
44.367,74.8412,0.007133
44.398,74.8256,0.007133
44.428,74.8103,0.007133
44.460,74.7958,0.007001
44.491,74.7819,0.007001
44.522,74.7691,0.007001
44.553,74.7569,0.007001
44.584,74.7453,0.007001
44.614,74.7347,0.007001
44.644,74.7247,0.007001
44.675,74.7156,0.007001
44.706,74.7068,0.006898
44.737,74.6987,0.006898
44.768,74.6916,0.006898
44.799,74.6849,0.006898
44.830,74.6793,0.006898
44.864,74.6739,0.006898
44.892,74.6699,0.006898
44.923,74.6663,0.006898
44.954,74.6633,0.006860
44.989,74.6610,0.006860
45.017,74.6599,0.006860
45.047,74.6593,0.006860
45.078,74.6591,0.006860
45.112,74.6591,0.006860
45.140,74.6591,0.006860
45.170,74.6591,0.006860
45.202,74.6591,0.006794
45.233,74.6596,0.006794
45.263,74.6609,0.006794
45.295,74.6629,0.006794
45.326,74.6656,0.006794
45.357,74.6691,0.006794
45.389,74.6733,0.006794
45.420,74.6782,0.006794
45.451,74.6838,0.006794
45.482,74.6904,0.006738
45.514,74.6976,0.006738
45.546,74.7056,0.006738
45.576,74.7141,0.006738
45.608,74.7234,0.006738
45.638,74.7332,0.006738
45.674,74.7463,0.006738
45.701,74.7556,0.006738
45.731,74.7678,0.006616
45.763,74.7809,0.006616
45.794,74.7947,0.006616
45.824,74.8092,0.006616
45.856,74.8243,0.006616
45.887,74.8398,0.006616
45.917,74.8565,0.006616
45.948,74.8734,0.006474
45.980,74.8918,0.006474
46.010,74.9104,0.006474
46.041,74.9300,0.006474
46.072,74.9501,0.006474
46.102,74.9707,0.006474
46.133,74.9918,0.006474
46.164,75.0141,0.006474
46.195,75.0372,0.006371
46.226,75.0615,0.006371
46.257,75.0854,0.006371
46.288,75.1112,0.006371
46.318,75.1366,0.006371
46.350,75.1638,0.006371
46.381,75.1908,0.006371
46.413,75.2210,0.006371
46.442,75.2475,0.006239
46.474,75.2783,0.006239
46.504,75.3074,0.006239
46.536,75.3399,0.006239
46.567,75.3698,0.006239
46.601,75.4060,0.006239
46.628,75.4316,0.006239
46.659,75.4621,0.006239
46.691,75.4937,0.006220
46.722,75.5256,0.006220
46.753,75.5568,0.006220
46.785,75.5874,0.006220
46.814,75.6173,0.006220
46.846,75.6486,0.006220
46.877,75.6802,0.006220
46.907,75.7101,0.006220
46.937,75.7405,0.006192
46.969,75.7725,0.006192
47.000,75.8031,0.006192
47.031,75.8339,0.006192
47.062,75.8648,0.006192
47.096,75.8991,0.006192
47.124,75.9268,0.006192
47.155,75.9579,0.006192
47.187,75.9894,0.006051
47.217,76.0208,0.006051
47.248,76.0508,0.006051
47.284,76.0880,0.006051
47.310,76.1127,0.006051
47.341,76.1439,0.006051
47.372,76.1748,0.006051
47.403,76.2060,0.006051
47.434,76.2367,0.005910
47.464,76.2672,0.005910
47.495,76.2985,0.005910
47.526,76.3295,0.005910
47.557,76.3605,0.005910
47.588,76.3909,0.005910
47.619,76.4215,0.005910
47.650,76.4533,0.005910
47.681,76.4848,0.005825
47.712,76.5144,0.005825
47.743,76.5458,0.005825
47.774,76.5773,0.005825
47.810,76.6130,0.005825
47.836,76.6397,0.005825
47.867,76.6698,0.005825
47.898,76.7017,0.005825
47.929,76.7316,0.005740
47.960,76.7626,0.005740
47.991,76.7938,0.005740
48.022,76.8255,0.005740
48.054,76.8570,0.005740
48.085,76.8880,0.005740
48.116,76.9195,0.005740
48.148,76.9510,0.005740
48.178,76.9815,0.005618
48.210,77.0126,0.005618
48.241,77.0445,0.005618
48.272,77.0747,0.005618
48.303,77.1064,0.005618
48.333,77.1366,0.005618
48.365,77.1676,0.005618
48.397,77.1998,0.005618
48.428,77.2306,0.005618
48.458,77.2606,0.005618
48.488,77.2913,0.005411
48.520,77.3227,0.005411
48.551,77.3537,0.005411
48.582,77.3845,0.005411
48.613,77.4167,0.005411
48.644,77.4468,0.005411
48.675,77.4787,0.005411
48.705,77.5086,0.005251
48.737,77.5396,0.005251
48.768,77.5710,0.005251
48.799,77.6020,0.005251
48.830,77.6328,0.005251
48.861,77.6646,0.005251
48.892,77.6947,0.005251
48.922,77.7249,0.005251
48.954,77.7566,0.005157
48.985,77.7877,0.005157
49.015,77.8181,0.005157
49.046,77.8494,0.005157
49.078,77.8806,0.005157
49.109,77.9118,0.005157
49.141,77.9440,0.005157
49.172,77.9744,0.005157
49.202,78.0055,0.004959
49.236,78.0393,0.004959
49.264,78.0672,0.004959
49.295,78.0984,0.004959
49.326,78.1291,0.004959
49.357,78.1603,0.004959
49.389,78.1913,0.004959
49.420,78.2232,0.004959
49.450,78.2533,0.004658
49.482,78.2851,0.004658
49.513,78.3162,0.004658
49.545,78.3482,0.004658
49.576,78.3787,0.004658
49.607,78.4098,0.004658
49.637,78.4409,0.004658
49.668,78.4707,0.004658
49.700,78.5034,0.004319
49.726,78.5295,0.004319
49.762,78.5650,0.004319
49.793,78.5961,0.004319
49.824,78.6275,0.004319
49.856,78.6586,0.004319
49.886,78.6899,0.004319
49.918,78.7213,0.004319
49.948,78.7518,0.003548
49.979,78.7819,0.003548
50.010,78.8127,0.003548
50.040,78.8436,0.003548
50.071,78.8738,0.003548
50.102,78.9056,0.003548
50.132,78.9356,0.003548
50.164,78.9666,0.003548
50.195,78.9976,0.001741
50.226,79.0291,0.001741
50.258,79.0592,0.001741
50.289,79.0890,0.001741
50.320,79.1168,0.001741
50.350,79.1442,0.001741
50.381,79.1707,0.001741
50.412,79.1972,0.001741
50.442,79.2229,-0.001995
50.473,79.2469,-0.001995
50.504,79.2712,-0.001995
50.536,79.2953,-0.001995
50.567,79.3175,-0.001995
50.599,79.3406,-0.001995
50.630,79.3612,-0.001995
50.661,79.3817,-0.008215
50.692,79.4015,-0.008215
50.723,79.4208,-0.008215
50.753,79.4387,-0.008215
50.787,79.4578,-0.008215
50.815,79.4727,-0.008215
50.846,79.4889,-0.008215
50.878,79.5046,-0.008215
50.907,79.5189,-0.008215
50.938,79.5325,-0.016007
50.970,79.5460,-0.016007
51.002,79.5591,-0.016007
51.034,79.5708,-0.016007
51.065,79.5819,-0.016007
51.096,79.5919,-0.016007
51.129,79.6021,-0.016007
51.158,79.6105,-0.016007
51.188,79.6182,-0.023432
51.218,79.6254,-0.023432
51.252,79.6327,-0.023432
51.279,79.6377,-0.023432
51.312,79.6433,-0.023432
51.343,79.6476,-0.023432
51.374,79.6514,-0.023432
51.405,79.6544,-0.023432
51.436,79.6567,-0.028194
51.468,79.6583,-0.028194
51.501,79.6590,-0.028194
51.529,79.6591,-0.028194
51.560,79.6591,-0.028194
51.590,79.6591,-0.028194
51.622,79.6591,-0.028194
51.653,79.6591,-0.028194
51.684,79.6591,-0.028843
51.715,79.6591,-0.028843
51.746,79.6591,-0.028843
51.777,79.6591,-0.028843
51.810,79.6591,-0.028843
51.840,79.6591,-0.028843
51.872,79.6591,-0.028843
51.902,79.6591,-0.028843
51.938,79.6591,-0.028843
51.979,79.6591,-0.026885
52.011,79.6591,-0.026885
52.041,79.6591,-0.026885
52.073,79.6591,-0.026885
52.106,79.6591,-0.026885
52.135,79.6591,-0.026885
52.167,79.6591,-0.026885
52.197,79.6591,-0.024938
52.230,79.6591,-0.024938
52.261,79.6591,-0.024938
52.292,79.6591,-0.024938
52.323,79.6591,-0.024938
52.354,79.6591,-0.024938
52.385,79.6591,-0.024938
52.414,79.6591,-0.024938
52.445,79.6591,-0.023451
52.479,79.6591,-0.023451
52.508,79.6591,-0.023451
52.540,79.6591,-0.023451
52.572,79.6591,-0.023451
52.603,79.6591,-0.023451
52.635,79.6591,-0.023451
52.666,79.6591,-0.023451
52.697,79.6591,-0.022321
52.727,79.6591,-0.022321
52.758,79.6591,-0.022321
52.789,79.6591,-0.022321
52.820,79.6591,-0.022321
52.846,79.6591,-0.022321
52.882,79.6591,-0.022321
52.914,79.6591,-0.022321
52.945,79.6591,-0.021465
52.977,79.6591,-0.021465
53.007,79.6591,-0.021465
53.041,79.6591,-0.021465
53.070,79.6591,-0.021465
53.102,79.6591,-0.021465
53.131,79.6591,-0.021465
53.164,79.6591,-0.021465
53.194,79.6591,-0.020750
53.227,79.6591,-0.020750
53.256,79.6591,-0.020750
53.287,79.6591,-0.020750
53.319,79.6591,-0.020750
53.348,79.6591,-0.020750
53.379,79.6591,-0.020750
53.410,79.6591,-0.020750
53.441,79.6591,-0.020110
53.471,79.6591,-0.020110
53.503,79.6591,-0.020110
53.533,79.6591,-0.020110
53.565,79.6591,-0.020110
53.597,79.6591,-0.020110
53.628,79.6591,-0.020110
53.660,79.6591,-0.020110
53.691,79.6591,-0.019545
53.721,79.6591,-0.019545
53.752,79.6591,-0.019545
53.783,79.6591,-0.019545
53.814,79.6591,-0.019545
53.845,79.6591,-0.019545
53.877,79.6591,-0.019545
53.909,79.6591,-0.019047
53.940,79.6591,-0.019047
53.971,79.6591,-0.019047
54.002,79.6591,-0.019047
54.033,79.6591,-0.019047
54.063,79.6591,-0.019047
54.095,79.6591,-0.019047
54.125,79.6591,-0.019047
54.156,79.6591,-0.019047
54.190,79.6591,-0.018614
54.217,79.6591,-0.018614
54.248,79.6591,-0.018614
54.279,79.6591,-0.018614
54.311,79.6591,-0.018614
54.341,79.6591,-0.018614
54.372,79.6591,-0.018614
54.402,79.6591,-0.018614
54.433,79.6591,-0.018247
54.464,79.6591,-0.018247
54.495,79.6591,-0.018247
54.526,79.6591,-0.018247
54.556,79.6591,-0.018247
54.586,79.6591,-0.018247
54.619,79.6591,-0.018247
54.649,79.6591,-0.018247
54.680,79.6591,-0.018247
54.711,79.6591,-0.017852
54.742,79.6591,-0.017852
54.772,79.6591,-0.017852
54.809,79.6591,-0.017852
54.835,79.6591,-0.017852
54.866,79.6591,-0.017852
54.897,79.6591,-0.017852
54.932,79.6591,-0.017852
54.958,79.6591,-0.017852
54.991,79.6591,-0.017541
55.021,79.6591,-0.017541
55.052,79.6591,-0.017541
55.083,79.6591,-0.017541
55.114,79.6591,-0.017541
55.146,79.6591,-0.017541
55.177,79.6591,-0.017541
55.208,79.6591,-0.017268
55.239,79.6591,-0.017268
55.270,79.6591,-0.017268
55.301,79.6591,-0.017268
55.332,79.6591,-0.017268
55.362,79.6591,-0.017268
55.394,79.6591,-0.017268
55.424,79.6591,-0.017268
55.455,79.6591,-0.016967
55.486,79.6591,-0.016967
55.518,79.6591,-0.016967
55.549,79.6591,-0.016967
55.580,79.6591,-0.016967
55.611,79.6591,-0.016967
55.642,79.6591,-0.016967
55.673,79.6591,-0.016967
55.704,79.6591,-0.016694
55.735,79.6591,-0.016694
55.766,79.6591,-0.016694
55.797,79.6591,-0.016694
55.829,79.6591,-0.016694
55.859,79.6591,-0.016694
55.890,79.6591,-0.016694
55.921,79.6589,-0.016694
55.953,79.6578,-0.016440
55.984,79.6560,-0.016440
56.015,79.6536,-0.016440
56.045,79.6505,-0.016440
56.076,79.6466,-0.016440
56.107,79.6419,-0.016440
56.138,79.6366,-0.016440
56.169,79.6304,-0.016440
56.200,79.6237,-0.015828
56.232,79.6157,-0.015828
56.262,79.6078,-0.015828
56.293,79.5987,-0.015828
56.324,79.5889,-0.015828
56.356,79.5783,-0.015828
56.387,79.5671,-0.015828
56.417,79.5553,-0.015828
56.448,79.5426,-0.011763
56.478,79.5300,-0.011763
56.510,79.5156,-0.011763
56.540,79.5005,-0.011763
56.572,79.4851,-0.011763
56.603,79.4685,-0.011763
56.634,79.4519,-0.011763
56.665,79.4338,-0.011763
56.695,79.4159,-0.003294
56.726,79.3965,-0.003294
56.757,79.3771,-0.003294
56.788,79.3560,-0.003294
56.819,79.3353,-0.003294
56.850,79.3126,-0.003294
56.881,79.2903,-0.003294
56.912,79.2657,-0.003294
56.943,79.2427,0.006371
56.973,79.2181,0.006371
57.007,79.1902,0.006371
57.035,79.1658,0.006371
57.067,79.1377,0.006371
57.097,79.1107,0.006371
57.129,79.0816,0.006371
57.159,79.0524,0.006371
57.190,79.0235,0.014266
57.221,78.9921,0.014266
57.253,78.9600,0.014266
57.284,78.9296,0.014266
57.315,78.8986,0.014266
57.346,78.8672,0.014266
57.377,78.8366,0.014266
57.408,78.8049,0.014266
57.439,78.7744,0.014266
57.469,78.7433,0.019056
57.500,78.7132,0.019056
57.532,78.6815,0.019056
57.563,78.6506,0.019056
57.594,78.6192,0.019056
57.626,78.5871,0.019056
57.657,78.5556,0.019056
57.688,78.5251,0.019056
57.721,78.4923,0.022905
57.750,78.4636,0.022905
57.780,78.4335,0.022905
57.811,78.4025,0.022905
57.841,78.3715,0.022905
57.873,78.3405,0.022905
57.903,78.3100,0.022905
57.934,78.2789,0.027657
57.966,78.2476,0.027657
57.997,78.2162,0.027657
58.028,78.1856,0.027657
58.058,78.1545,0.027657
58.089,78.1236,0.027657
58.126,78.0873,0.027657
58.167,78.0458,0.027657
58.198,78.0146,0.032146
58.229,77.9849,0.032146
58.259,77.9537,0.032146
58.291,77.9223,0.032146
58.322,77.8907,0.032146
58.353,77.8605,0.032146
58.384,77.8294,0.032146
58.415,77.7987,0.032146
58.447,77.7663,0.034574
58.477,77.7360,0.034574
58.509,77.7042,0.034574
58.540,77.6738,0.034574
58.571,77.6414,0.034574
58.603,77.6103,0.034574
58.635,77.5785,0.034574
58.665,77.5478,0.034574
58.696,77.5179,0.032089
58.727,77.4856,0.032089
58.758,77.4551,0.032089
58.790,77.4241,0.032089
58.821,77.3926,0.032089
58.852,77.3612,0.032089
58.882,77.3311,0.032089
58.914,77.2988,0.032089
58.944,77.2688,0.032089
58.976,77.2371,0.019385
59.006,77.2078,0.019385
59.037,77.1761,0.019385
59.068,77.1451,0.019385
59.099,77.1141,0.019385
59.131,77.0824,0.019385
59.162,77.0514,0.019385
59.193,77.0207,0.009213
59.225,76.9882,0.009213
59.255,76.9579,0.009213
59.286,76.9268,0.009213
59.313,76.9001,0.009213
59.349,76.8640,0.009213
59.380,76.8333,0.009213
59.412,76.8009,0.009213
59.442,76.7709,0.008545
59.474,76.7396,0.008545
59.505,76.7082,0.008545
59.536,76.6777,0.008545
59.567,76.6455,0.008545
59.599,76.6149,0.008545
59.629,76.5842,0.008545
59.660,76.5533,0.008545
59.691,76.5227,0.008545
59.722,76.4910,0.008140
59.753,76.4603,0.008140
59.784,76.4294,0.008140
59.815,76.3986,0.008140
59.847,76.3663,0.008140
59.878,76.3353,0.008140
59.909,76.3044,0.008140
59.940,76.2735,0.007876
59.971,76.2417,0.007876
60.003,76.2105,0.007876
60.034,76.1792,0.007876
60.065,76.1488,0.007876
60.096,76.1172,0.007876
60.127,76.0864,0.007876
60.158,76.0556,0.007876
60.189,76.0240,0.007745
60.219,75.9945,0.007745
60.250,75.9631,0.007745
60.281,75.9327,0.007745
60.312,75.9012,0.007745
60.342,75.8710,0.007745
60.373,75.8396,0.007745
60.404,75.8097,0.007745
60.435,75.7786,0.007622
60.466,75.7468,0.007622
60.497,75.7162,0.007622
60.529,75.6841,0.007622
60.560,75.6534,0.007622
60.591,75.6227,0.007622
60.622,75.5917,0.007622
60.654,75.5597,0.007622
60.684,75.5298,0.007453
60.715,75.4979,0.007453
60.747,75.4669,0.007453
60.777,75.4361,0.007453
60.808,75.4051,0.007453
60.840,75.3729,0.007453
60.871,75.3424,0.007453
60.902,75.3110,0.007453
60.933,75.2804,0.007453
60.964,75.2494,0.007378
60.996,75.2185,0.007378
61.027,75.1895,0.007378
61.058,75.1603,0.007378
61.090,75.1310,0.007378
61.120,75.1056,0.007378
61.152,75.0780,0.007378
61.183,75.0522,0.007255
61.215,75.0265,0.007255
61.245,75.0028,0.007255
61.276,74.9795,0.007255
61.306,74.9570,0.007255
61.336,74.9357,0.007255
61.366,74.9150,0.007255
61.396,74.8944,0.007255
61.427,74.8742,0.007095
61.458,74.8556,0.007095
61.489,74.8371,0.007095
61.520,74.8192,0.007095
61.551,74.8021,0.007095
61.581,74.7858,0.007095
61.612,74.7705,0.007095
61.642,74.7555,0.007095
61.673,74.7417,0.007039
61.704,74.7282,0.007039
61.735,74.7156,0.007039
61.767,74.7032,0.007039
61.797,74.6921,0.007039
61.828,74.6811,0.007039
61.859,74.6715,0.007039
61.891,74.6620,0.007039
61.922,74.6534,0.006935
61.954,74.6456,0.006935
61.985,74.6388,0.006935
62.015,74.6327,0.006935
62.045,74.6274,0.006935
62.076,74.6225,0.006935
62.107,74.6186,0.006935
62.139,74.6151,0.006935
62.170,74.6126,0.006813
62.201,74.6106,0.006813
62.235,74.6095,0.006813
62.263,74.6092,0.006813
62.294,74.6092,0.006813
62.324,74.6092,0.006813
62.357,74.6092,0.006813
62.385,74.6092,0.006813
62.416,74.6092,0.006813
62.447,74.6092,0.006794
62.478,74.6092,0.006794
62.509,74.6092,0.006794
62.540,74.6092,0.006794
62.571,74.6092,0.006794
62.602,74.6092,0.006794
62.633,74.6092,0.006794
62.664,74.6092,0.006794
62.696,74.6092,0.006766
62.726,74.6092,0.006766
62.757,74.6092,0.006766
62.788,74.6092,0.006766
62.819,74.6092,0.006766
62.850,74.6092,0.006766
62.880,74.6092,0.006766
62.911,74.6094,0.006766
62.942,74.6104,0.006757
62.973,74.6121,0.006757
63.004,74.6146,0.006757
63.035,74.6178,0.006757
63.065,74.6217,0.006757
63.097,74.6265,0.006757
63.127,74.6316,0.006757
63.158,74.6378,0.006757
63.189,74.6444,0.006625
63.220,74.6521,0.006625
63.250,74.6600,0.006625
63.286,74.6707,0.006625
63.313,74.6790,0.006625
63.345,74.6898,0.006625
63.376,74.7009,0.006625
63.406,74.7125,0.006625
63.436,74.7245,0.006465
63.467,74.7381,0.006465
63.499,74.7525,0.006465
63.529,74.7673,0.006465
63.561,74.7832,0.006465
63.592,74.7992,0.006465
63.621,74.8153,0.006465
63.652,74.8333,0.006465
63.683,74.8512,0.006465
63.714,74.8705,0.006446
63.745,74.8898,0.006446
63.776,74.9109,0.006446
63.808,74.9324,0.006446
63.838,74.9546,0.006446
63.870,74.9773,0.006446
63.901,75.0011,0.006446
63.932,75.0250,0.006324
63.963,75.0506,0.006324
63.994,75.0759,0.006324
64.025,75.1028,0.006324
64.055,75.1287,0.006324
64.086,75.1563,0.006324
64.117,75.1851,0.006324
64.147,75.2138,0.006324
64.178,75.2439,0.006211
64.209,75.2749,0.006211
64.240,75.3052,0.006211
64.271,75.3363,0.006211
64.301,75.3664,0.006211
64.332,75.3973,0.006211
64.364,75.4287,0.006211
64.399,75.4648,0.006211
64.425,75.4903,0.006211
64.456,75.5212,0.006164
64.488,75.5527,0.006164
64.521,75.5865,0.006164
64.549,75.6142,0.006164
64.580,75.6451,0.006164
64.611,75.6756,0.006164
64.642,75.7076,0.006164
64.674,75.7389,0.006117
64.706,75.7714,0.006117
64.737,75.8016,0.006117
64.769,75.8335,0.006117
64.799,75.8638,0.006117
64.831,75.8958,0.006117
64.862,75.9271,0.006117
64.893,75.9584,0.006117
64.923,75.9887,0.006060
64.954,76.0197,0.006060
64.985,76.0498,0.006060
65.015,76.0804,0.006060
65.046,76.1112,0.006060
65.077,76.1421,0.006060
65.108,76.1732,0.006060
65.139,76.2047,0.006060
65.171,76.2357,0.005966
65.201,76.2671,0.005966
65.233,76.2979,0.005966
65.264,76.3291,0.005966
65.295,76.3605,0.005966
65.327,76.3920,0.005966
65.357,76.4226,0.005966
65.388,76.4529,0.005966
65.420,76.4849,0.005966
65.451,76.5163,0.005853
65.482,76.5474,0.005853
65.514,76.5796,0.005853
65.547,76.6121,0.005853
65.577,76.6421,0.005853
65.607,76.6725,0.005853
65.639,76.7038,0.005853
65.670,76.7352,0.005853
65.703,76.7682,0.005853
65.731,76.7957,0.005703
65.761,76.8268,0.005703
65.792,76.8567,0.005703
65.822,76.8880,0.005703
65.854,76.9193,0.005703
65.885,76.9500,0.005703
65.914,76.9802,0.005703
65.946,77.0110,0.005703
65.977,77.0424,0.005543
66.009,77.0745,0.005543
66.040,77.1049,0.005543
66.071,77.1365,0.005543
66.102,77.1669,0.005543
66.133,77.1981,0.005543
66.164,77.2296,0.005543
66.195,77.2598,0.005543
66.225,77.2912,0.005477
66.256,77.3212,0.005477
66.287,77.3529,0.005477
66.318,77.3836,0.005477
66.348,77.4143,0.005477
66.379,77.4447,0.005477
66.410,77.4751,0.005477
66.441,77.5058,0.005477
66.472,77.5372,0.005326
66.503,77.5692,0.005326
66.535,77.5999,0.005326
66.567,77.6317,0.005326
66.600,77.6653,0.005326
66.629,77.6939,0.005326
66.660,77.7254,0.005326
66.691,77.7562,0.005119
66.722,77.7868,0.005119
66.753,77.8178,0.005119
66.784,77.8486,0.005119
66.815,77.8800,0.005119
66.850,77.9155,0.005119
66.877,77.9422,0.005119
66.907,77.9728,0.005119
66.939,78.0040,0.005119
66.968,78.0339,0.004931
67.001,78.0662,0.004931
67.031,78.0964,0.004931
67.063,78.1277,0.004931
67.094,78.1597,0.004931
67.124,78.1900,0.004931
67.155,78.2205,0.004931
67.186,78.2520,0.004592
67.217,78.2820,0.004592
67.249,78.3137,0.004592
67.279,78.3437,0.004592
67.310,78.3752,0.004592
67.342,78.4065,0.004592
67.373,78.4389,0.004592
67.405,78.4696,0.004592
67.436,78.5011,0.004075
67.466,78.5315,0.004075
67.493,78.5587,0.004075
67.530,78.5945,0.004075
67.560,78.6248,0.004075
67.590,78.6557,0.004075
67.622,78.6869,0.004075
67.653,78.7184,0.004075
67.684,78.7491,0.003124
67.714,78.7797,0.003124
67.745,78.8098,0.003124
67.775,78.8403,0.003124
67.807,78.8722,0.003124
67.838,78.9031,0.003124
67.870,78.9355,0.003124
67.901,78.9656,0.003124
67.931,78.9962,0.003124
67.963,79.0253,0.000941
67.994,79.0550,0.000941
68.025,79.0828,0.000941
68.057,79.1112,0.000941
68.090,79.1391,0.000941
68.119,79.1639,0.000941
68.151,79.1888,0.000941
68.182,79.2130,-0.003454
68.212,79.2363,-0.003454
68.243,79.2590,-0.003454
68.273,79.2810,-0.003454
68.304,79.3018,-0.003454
68.335,79.3228,-0.003454
68.366,79.3428,-0.003454
68.397,79.3622,-0.003454
68.428,79.3810,-0.010210
68.461,79.4001,-0.010210
68.490,79.4159,-0.010210
68.521,79.4325,-0.010210
68.552,79.4478,-0.010210
68.582,79.4626,-0.010210
68.614,79.4771,-0.010210
68.647,79.4918,-0.010210
68.674,79.5026,-0.010210
68.705,79.5148,-0.018237
68.736,79.5262,-0.018237
68.768,79.5370,-0.018237
68.799,79.5470,-0.018237
68.830,79.5560,-0.018237
68.861,79.5645,-0.018237
68.891,79.5719,-0.018237
68.923,79.5790,-0.025286
68.954,79.5853,-0.025286
68.985,79.5909,-0.025286
69.016,79.5956,-0.025286
69.047,79.5997,-0.025286
69.078,79.6032,-0.025286
69.110,79.6057,-0.025286
69.140,79.6077,-0.025286
69.171,79.6087,-0.029088
69.202,79.6092,-0.029088
69.233,79.6092,-0.029088
69.265,79.6092,-0.029088
69.296,79.6092,-0.029088
69.326,79.6092,-0.029088
69.356,79.6092,-0.029088
69.386,79.6092,-0.029088
69.417,79.6092,-0.028862
69.448,79.6092,-0.028862
69.479,79.6092,-0.028862
69.510,79.6092,-0.028862
69.541,79.6092,-0.028862
69.572,79.6092,-0.028862
69.603,79.6092,-0.028862
69.634,79.6092,-0.028862
69.664,79.6092,-0.028862
69.696,79.6092,-0.026650
69.726,79.6092,-0.026650
69.756,79.6092,-0.026650
69.787,79.6092,-0.026650
69.818,79.6092,-0.026650
69.848,79.6092,-0.026650
69.879,79.6092,-0.026650
69.911,79.6092,-0.026650
69.941,79.6092,-0.024806
69.972,79.6092,-0.024806
70.002,79.6092,-0.024806
70.033,79.6092,-0.024806
70.064,79.6092,-0.024806
70.094,79.6092,-0.024806
70.125,79.6092,-0.024806
70.155,79.6092,-0.024806
70.191,79.6092,-0.024806
70.216,79.6092,-0.024806
70.247,79.6092,-0.023451
70.277,79.6092,-0.023451
70.309,79.6092,-0.023451
70.339,79.6092,-0.023451
70.371,79.6092,-0.023451
70.402,79.6092,-0.023451
70.433,79.6092,-0.022359
70.465,79.6092,-0.022359
70.495,79.6092,-0.022359
70.526,79.6092,-0.022359
70.557,79.6092,-0.022359
70.588,79.6092,-0.022359
70.619,79.6092,-0.022359
70.648,79.6092,-0.022359
70.683,79.6092,-0.021484
70.710,79.6092,-0.021484
70.743,79.6092,-0.021484
70.771,79.6092,-0.021484
70.801,79.6092,-0.021484
70.832,79.6092,-0.021484
70.863,79.6092,-0.021484
70.900,79.6092,-0.021484
70.941,79.6092,-0.020769
70.972,79.6092,-0.020769
71.003,79.6092,-0.020769
71.033,79.6092,-0.020769
71.063,79.6092,-0.020769
71.095,79.6092,-0.020769
71.126,79.6092,-0.020769
71.158,79.6092,-0.020769
71.189,79.6092,-0.020129
71.219,79.6092,-0.020129
71.250,79.6092,-0.020129
71.282,79.6092,-0.020129
71.313,79.6092,-0.020129
71.344,79.6092,-0.020129
71.375,79.6092,-0.020129
71.406,79.6092,-0.020129
71.436,79.6092,-0.020129
71.468,79.6092,-0.019564
71.499,79.6092,-0.019564
71.531,79.6092,-0.019564
71.562,79.6092,-0.019564
71.594,79.6092,-0.019564
71.625,79.6092,-0.019564
71.655,79.6092,-0.019564
71.686,79.6092,-0.019564
71.716,79.6092,-0.019084
71.748,79.6092,-0.019084
71.778,79.6092,-0.019084
71.809,79.6092,-0.019084
71.841,79.6092,-0.019084
71.872,79.6092,-0.019084
71.903,79.6092,-0.019084
71.934,79.6092,-0.018623
71.964,79.6092,-0.018623
71.995,79.6092,-0.018623
72.026,79.6092,-0.018623
72.057,79.6092,-0.018623
72.087,79.6092,-0.018623
72.117,79.6092,-0.018623
72.147,79.6092,-0.018623
72.178,79.6092,-0.018623
72.210,79.6092,-0.018219
72.245,79.6092,-0.018219
72.272,79.6092,-0.018219
72.303,79.6092,-0.018219
72.334,79.6092,-0.018219
72.365,79.6092,-0.018219
72.396,79.6092,-0.018219
72.426,79.6092,-0.018219
72.458,79.6092,-0.017908
72.489,79.6092,-0.017908
72.520,79.6092,-0.017908
72.550,79.6092,-0.017908
72.582,79.6092,-0.017908
72.614,79.6092,-0.017908
72.645,79.6092,-0.017908
72.676,79.6092,-0.017607
72.707,79.6092,-0.017607
72.738,79.6092,-0.017607
72.769,79.6092,-0.017607
72.800,79.6092,-0.017607
72.831,79.6092,-0.017607
72.863,79.6092,-0.017607
72.895,79.6092,-0.017607
72.925,79.6092,-0.017607
72.956,79.6092,-0.017277
72.986,79.6092,-0.017277
73.018,79.6092,-0.017277
73.050,79.6092,-0.017277
73.080,79.6092,-0.017277
73.111,79.6092,-0.017277
73.142,79.6092,-0.017277
73.174,79.6092,-0.016958
73.204,79.6092,-0.016958
73.236,79.6092,-0.016958
73.268,79.6092,-0.016958
73.299,79.6092,-0.016958
73.330,79.6092,-0.016958
73.362,79.6092,-0.016958
73.392,79.6090,-0.016958
73.423,79.6084,-0.016958
73.454,79.6069,-0.016703
73.484,79.6048,-0.016703
73.516,79.6018,-0.016703
73.548,79.5981,-0.016703
73.578,79.5938,-0.016703
73.608,79.5891,-0.016703
73.640,79.5831,-0.016703
73.671,79.5764,-0.016703
73.702,79.5692,-0.015866
73.732,79.5613,-0.015866
73.767,79.5517,-0.015866
73.795,79.5428,-0.015866
73.826,79.5328,-0.015866
73.857,79.5221,-0.015866
73.888,79.5102,-0.015866
73.918,79.4984,-0.015866
73.949,79.4854,-0.011462
73.979,79.4720,-0.011462
74.010,79.4574,-0.011462
74.041,79.4427,-0.011462
74.073,79.4262,-0.011462
74.103,79.4097,-0.011462
74.136,79.3914,-0.011462
74.165,79.3744,-0.002804
74.197,79.3550,-0.002804
74.227,79.3358,-0.002804
74.258,79.3152,-0.002804
74.290,79.2936,-0.002804
74.321,79.2719,-0.002804
74.354,79.2471,-0.002804
74.383,79.2264,-0.002804
74.416,79.2004,-0.002804
74.445,79.1774,-0.002804
74.476,79.1527,-0.002804
74.506,79.1265,0.006775
74.537,79.1002,0.006775
74.569,79.0718,0.006775
74.599,79.0437,0.006775
74.631,79.0136,0.006775
74.662,78.9845,0.006775
74.695,78.9522,0.014436
74.725,78.9219,0.014436
74.756,78.8908,0.014436
74.787,78.8602,0.014436
74.817,78.8302,0.014436
74.848,78.7987,0.014436
74.881,78.7664,0.014436
74.911,78.7349,0.014436
74.947,78.7002,0.019141
74.973,78.6740,0.019141
75.005,78.6424,0.019141
75.035,78.6119,0.019141
75.066,78.5809,0.019141
75.097,78.5504,0.019141
75.128,78.5195,0.019141
75.158,78.4889,0.019141
75.190,78.4569,0.019141
75.221,78.4255,0.023018
75.253,78.3936,0.023018
75.284,78.3635,0.023018
75.316,78.3312,0.023018
75.345,78.3013,0.023018
75.377,78.2702,0.023018
75.408,78.2387,0.023018
75.438,78.2088,0.023018
75.470,78.1776,0.027742
75.500,78.1467,0.027742
75.531,78.1154,0.027742
75.562,78.0854,0.027742
75.593,78.0544,0.027742
75.624,78.0230,0.027742
75.655,77.9919,0.027742
75.687,77.9604,0.027742
75.718,77.9290,0.032127
75.748,77.8986,0.032127
75.780,77.8670,0.032127
75.811,77.8362,0.032127
75.842,77.8056,0.032127
75.872,77.7751,0.032127
75.904,77.7432,0.032127
75.935,77.7122,0.032127
75.966,77.6810,0.034442
75.997,77.6503,0.034442
76.028,77.6187,0.034442
76.059,77.5872,0.034442
76.091,77.5561,0.034442
76.123,77.5247,0.034442
76.155,77.4921,0.034442
76.186,77.4608,0.034442
76.218,77.4283,0.030414
76.249,77.3983,0.030414
76.280,77.3674,0.030414
76.311,77.3366,0.030414
76.342,77.3049,0.030414
76.373,77.2734,0.030414
76.404,77.2425,0.030414
76.435,77.2114,0.030414
76.466,77.1809,0.017720
76.498,77.1490,0.017720
76.529,77.1185,0.017720
76.559,77.0879,0.017720
76.590,77.0571,0.017720
76.621,77.0255,0.017720
76.652,76.9952,0.017720
76.683,76.9641,0.017720
76.714,76.9332,0.009043
76.745,76.9027,0.009043
76.777,76.8700,0.009043
76.808,76.8393,0.009043
76.839,76.8078,0.009043
76.870,76.7773,0.009043
76.901,76.7462,0.009043
76.931,76.7154,0.008403
76.964,76.6829,0.008403
76.995,76.6519,0.008403
77.025,76.6219,0.008403
77.057,76.5901,0.008403
77.088,76.5589,0.008403
77.118,76.5295,0.008403
77.149,76.4978,0.008403
77.181,76.4658,0.008403
77.212,76.4351,0.008074
77.243,76.4043,0.008074
77.275,76.3725,0.008074
77.306,76.3413,0.008074
77.337,76.3093,0.008074
77.368,76.2790,0.008074
77.400,76.2475,0.008074
77.430,76.2167,0.008074
77.461,76.1866,0.007895
77.492,76.1549,0.007895
77.523,76.1246,0.007895
77.554,76.0927,0.007895
77.585,76.0625,0.007895
77.616,76.0302,0.007895
77.646,76.0003,0.007895
77.678,75.9689,0.007895
77.709,75.9379,0.007895
77.740,75.9077,0.007717
77.771,75.8759,0.007717
77.802,75.8450,0.007717
77.833,75.8142,0.007717
77.865,75.7822,0.007717
77.895,75.7520,0.007717
77.925,75.7219,0.007717
77.956,75.6904,0.007575
77.987,75.6600,0.007575
78.019,75.6284,0.007575
78.049,75.5984,0.007575
78.081,75.5667,0.007575
78.117,75.5308,0.007575
78.142,75.5051,0.007575
78.173,75.4737,0.007575
78.204,75.4436,0.007491
78.235,75.4113,0.007491
78.266,75.3806,0.007491
78.297,75.3496,0.007491
78.329,75.3183,0.007491
78.362,75.2851,0.007491
78.390,75.2567,0.007491
78.423,75.2238,0.007491
78.453,75.1948,0.007359
78.488,75.1589,0.007359
78.515,75.1348,0.007359
78.547,75.1056,0.007359
78.577,75.0788,0.007359
78.608,75.0510,0.007359
78.639,75.0248,0.007359
78.669,74.9998,0.007359
78.700,74.9746,0.007359
78.732,74.9505,0.007190
78.762,74.9269,0.007190
78.794,74.9041,0.007190
78.825,74.8815,0.007190
78.856,74.8608,0.007190
78.887,74.8398,0.007190
78.918,74.8201,0.007190
78.949,74.8009,0.007058
78.980,74.7828,0.007058
79.011,74.7649,0.007058
79.042,74.7481,0.007058
79.073,74.7321,0.007058
79.104,74.7161,0.007058
79.135,74.7015,0.007058
79.167,74.6872,0.007058
79.197,74.6743,0.007058
79.228,74.6619,0.006964
79.259,74.6498,0.006964
79.290,74.6387,0.006964
79.321,74.6283,0.006964
79.352,74.6186,0.006964
79.384,74.6093,0.006964
79.416,74.6012,0.006964
79.446,74.5939,0.006935
79.476,74.5872,0.006935
79.507,74.5812,0.006935
79.537,74.5760,0.006935
79.568,74.5714,0.006935
79.603,74.5672,0.006935
79.630,74.5645,0.006935
79.661,74.5620,0.006935
79.692,74.5604,0.006870
79.722,74.5594,0.006870
79.754,74.5592,0.006870
79.785,74.5592,0.006870
79.816,74.5592,0.006870
79.847,74.5592,0.006870
79.878,74.5592,0.006870
79.911,74.5592,0.006870
79.941,74.5592,0.006804
79.971,74.5592,0.006804
80.002,74.5592,0.006804
80.033,74.5592,0.006804
80.063,74.5592,0.006804
80.095,74.5592,0.006804
80.125,74.5592,0.006804
80.156,74.5592,0.006804
80.187,74.5592,0.006775
80.218,74.5592,0.006775
80.250,74.5592,0.006775
80.280,74.5592,0.006775
80.311,74.5592,0.006775
80.342,74.5592,0.006775
80.373,74.5592,0.006775
80.404,74.5597,0.006775
80.435,74.5608,0.006775
80.465,74.5626,0.006728
80.497,74.5652,0.006728
80.528,74.5686,0.006728
80.558,74.5726,0.006728
80.589,74.5775,0.006728
80.620,74.5829,0.006728
80.652,74.5893,0.006728
80.682,74.5960,0.006597
80.714,74.6041,0.006597
80.744,74.6123,0.006597
80.776,74.6218,0.006597
80.806,74.6312,0.006597
80.838,74.6423,0.006597
80.870,74.6540,0.006597
80.902,74.6666,0.006597
80.933,74.6792,0.006493
80.964,74.6929,0.006493
80.994,74.7065,0.006493
81.026,74.7221,0.006493
81.056,74.7375,0.006493
81.088,74.7545,0.006493
81.119,74.7715,0.006493
81.149,74.7891,0.006493
81.181,74.8080,0.006456
81.211,74.8272,0.006456
81.243,74.8478,0.006456
81.274,74.8686,0.006456
81.305,74.8901,0.006456
81.340,74.9157,0.006456
81.367,74.9361,0.006456
81.397,74.9589,0.006456
81.428,74.9826,0.006343
81.458,75.0079,0.006343
81.490,75.0347,0.006343
81.522,75.0613,0.006343
81.552,75.0884,0.006343
81.583,75.1168,0.006343
81.614,75.1452,0.006343
81.645,75.1754,0.006343
81.676,75.2055,0.006220
81.707,75.2362,0.006220
81.737,75.2662,0.006220
81.768,75.2974,0.006220
81.800,75.3286,0.006220
81.831,75.3597,0.006220
81.862,75.3909,0.006220
81.893,75.4222,0.006220
81.925,75.4535,0.006192
81.955,75.4841,0.006192
81.986,75.5146,0.006192
82.017,75.5460,0.006192
82.048,75.5774,0.006192
82.080,75.6088,0.006192
82.110,75.6390,0.006192
82.141,75.6697,0.006192
82.172,75.7006,0.006154
82.203,75.7318,0.006154
82.234,75.7628,0.006154
82.265,75.7942,0.006154
82.296,75.8248,0.006154
82.327,75.8563,0.006154
82.358,75.8873,0.006154
82.390,75.9188,0.006154
82.421,75.9496,0.006041
82.452,75.9812,0.006041
82.483,76.0116,0.006041
82.514,76.0426,0.006041
82.545,76.0744,0.006041
82.576,76.1056,0.006041
82.607,76.1355,0.006041
82.638,76.1670,0.006041
82.669,76.1975,0.006041
82.700,76.2285,0.005853
82.731,76.2605,0.005853
82.762,76.2908,0.005853
82.793,76.3227,0.005853
82.824,76.3528,0.005853
82.856,76.3853,0.005853
82.887,76.4164,0.005853
82.918,76.4482,0.005853
82.949,76.4776,0.005853
82.980,76.5094,0.005750
83.011,76.5406,0.005750
83.042,76.5706,0.005750
83.072,76.6012,0.005750
83.103,76.6325,0.005750
83.134,76.6631,0.005750
83.164,76.6935,0.005750
83.196,76.7245,0.005750
83.230,76.7596,0.005656
83.258,76.7874,0.005656
83.289,76.8185,0.005656
83.320,76.8490,0.005656
83.351,76.8806,0.005656
83.385,76.9141,0.005656
83.414,76.9429,0.005656
83.444,76.9729,0.005656
83.476,77.0053,0.005571
83.506,77.0352,0.005571
83.537,77.0662,0.005571
83.568,77.0971,0.005571
83.598,77.1272,0.005571
83.628,77.1571,0.005571
83.660,77.1890,0.005571
83.690,77.2200,0.005571
83.721,77.2502,0.005486
83.752,77.2811,0.005486
83.783,77.3122,0.005486
83.814,77.3429,0.005486
83.846,77.3757,0.005486
83.876,77.4049,0.005486
83.907,77.4361,0.005486
83.938,77.4670,0.005260
83.970,77.4990,0.005260
84.004,77.5329,0.005260
84.031,77.5605,0.005260
84.062,77.5915,0.005260
84.093,77.6227,0.005260
84.126,77.6549,0.005260
84.155,77.6847,0.005260
84.187,77.7157,0.005072
84.217,77.7461,0.005072
84.248,77.7773,0.005072
84.279,77.8078,0.005072
84.310,77.8393,0.005072
84.341,77.8697,0.005072
84.372,77.9015,0.005072
84.404,77.9325,0.005072
84.434,77.9630,0.005072
84.465,77.9934,0.004856
84.496,78.0251,0.004856
84.527,78.0563,0.004856
84.557,78.0868,0.004856
84.588,78.1168,0.004856
84.620,78.1501,0.004856
84.649,78.1788,0.004856
84.680,78.2096,0.004856
84.712,78.2412,0.004545
84.742,78.2714,0.004545
84.773,78.3027,0.004545
84.804,78.3333,0.004545
84.835,78.3646,0.004545
84.866,78.3955,0.004545
84.897,78.4256,0.004545
84.928,78.4566,0.004545
84.959,78.4875,0.004075
84.990,78.5186,0.004075
85.021,78.5495,0.004075
85.053,78.5822,0.004075
85.083,78.6114,0.004075
85.114,78.6425,0.004075
85.145,78.6739,0.004075
85.176,78.7056,0.004075
85.208,78.7368,0.003030
85.242,78.7727,0.003030
85.270,78.7985,0.003030
85.300,78.8292,0.003030
85.332,78.8604,0.003030
85.363,78.8916,0.003030
85.389,78.9187,0.003030
85.425,78.9526,0.003030
85.456,78.9825,0.003030
85.487,79.0105,0.000734
85.518,79.0390,0.000734
85.548,79.0653,0.000734
85.580,79.0924,0.000734
85.611,79.1179,0.000734
85.643,79.1443,0.000734
85.674,79.1679,0.000734
85.709,79.1947,0.000734
85.737,79.2146,-0.003849
85.768,79.2370,-0.003849
85.798,79.2573,-0.003849
85.829,79.2776,-0.003849
85.863,79.2996,-0.003849
85.890,79.3162,-0.003849
85.921,79.3348,-0.003849
85.953,79.3532,-0.003849
85.984,79.3700,-0.010878
86.014,79.3858,-0.010878
86.045,79.4012,-0.010878
86.075,79.4158,-0.010878
86.106,79.4296,-0.010878
86.137,79.4431,-0.010878
86.168,79.4560,-0.010878
86.199,79.4676,-0.018971
86.230,79.4787,-0.018971
86.262,79.4895,-0.018971
86.295,79.4999,-0.018971
86.324,79.5081,-0.018971
86.358,79.5174,-0.018971
86.387,79.5242,-0.018971
86.417,79.5308,-0.018971
86.448,79.5369,-0.025841
86.479,79.5422,-0.025841
86.510,79.5469,-0.025841
86.541,79.5506,-0.025841
86.571,79.5537,-0.025841
86.602,79.5562,-0.025841
86.633,79.5579,-0.025841
86.665,79.5589,-0.029417
86.696,79.5592,-0.029417
86.726,79.5592,-0.029417
86.757,79.5592,-0.029417
86.790,79.5592,-0.029417
86.820,79.5592,-0.029417
86.851,79.5592,-0.029417
86.881,79.5592,-0.029417
86.914,79.5592,-0.029417
86.943,79.5592,-0.029417
86.975,79.5592,-0.029417
87.006,79.5592,-0.029012
87.038,79.5592,-0.029012
87.069,79.5592,-0.029012
87.099,79.5592,-0.029012
87.130,79.5592,-0.029012
87.161,79.5592,-0.029012
87.192,79.5592,-0.026801
87.223,79.5592,-0.026801
87.254,79.5592,-0.026801
87.285,79.5592,-0.026801
87.315,79.5592,-0.026801
87.347,79.5592,-0.026801
87.377,79.5592,-0.026801
87.409,79.5592,-0.025032
87.440,79.5592,-0.025032
87.471,79.5592,-0.025032
87.502,79.5592,-0.025032
87.534,79.5592,-0.025032
87.565,79.5592,-0.025032
87.597,79.5592,-0.025032
87.626,79.5592,-0.025032
87.657,79.5592,-0.025032
87.688,79.5592,-0.025032
87.719,79.5592,-0.023686
87.750,79.5592,-0.023686
87.782,79.5592,-0.023686
87.813,79.5592,-0.023686
87.844,79.5592,-0.023686
87.874,79.5592,-0.023686
87.906,79.5592,-0.023686
87.937,79.5592,-0.023686
87.968,79.5592,-0.022594
87.999,79.5592,-0.022594
88.032,79.5592,-0.022594
88.062,79.5592,-0.022594
88.092,79.5592,-0.022594
88.123,79.5592,-0.022594
88.154,79.5592,-0.022594
88.186,79.5592,-0.021766
88.217,79.5592,-0.021766
88.249,79.5592,-0.021766
88.280,79.5592,-0.021766
88.311,79.5592,-0.021766
88.342,79.5592,-0.021766
88.374,79.5592,-0.021766
88.404,79.5592,-0.021766
88.436,79.5592,-0.021766
88.467,79.5592,-0.021004
88.499,79.5592,-0.021004
88.529,79.5592,-0.021004
88.561,79.5592,-0.021004
88.593,79.5592,-0.021004
88.624,79.5592,-0.021004
88.654,79.5592,-0.021004
88.686,79.5592,-0.021004
88.716,79.5592,-0.021004
88.748,79.5592,-0.020326
88.779,79.5592,-0.020326
88.810,79.5592,-0.020326
88.840,79.5592,-0.020326
88.871,79.5592,-0.020326
88.903,79.5592,-0.020326
88.933,79.5592,-0.019762
88.965,79.5592,-0.019762
88.995,79.5592,-0.019762
89.026,79.5592,-0.019762
89.057,79.5592,-0.019762
89.089,79.5592,-0.019762
89.120,79.5592,-0.019762
89.151,79.5592,-0.019762
89.182,79.5592,-0.019762
89.212,79.5592,-0.019188
89.245,79.5592,-0.019188
89.274,79.5592,-0.019188
89.304,79.5592,-0.019188
89.335,79.5592,-0.019188
89.367,79.5592,-0.019188
89.397,79.5592,-0.019188
89.427,79.5592,-0.019188
89.458,79.5592,-0.018802
89.489,79.5592,-0.018802
89.521,79.5592,-0.018802
89.557,79.5592,-0.018802
89.583,79.5592,-0.018802
89.614,79.5592,-0.018802
89.645,79.5592,-0.018802
89.675,79.5592,-0.018802
89.707,79.5592,-0.018444
89.737,79.5592,-0.018444
89.768,79.5592,-0.018444
89.799,79.5592,-0.018444
89.830,79.5592,-0.018444
89.862,79.5592,-0.018444
89.893,79.5592,-0.018444
89.924,79.5592,-0.018444
89.955,79.5592,-0.018030
89.985,79.5592,-0.018030
90.016,79.5592,-0.018030
90.047,79.5592,-0.018030
90.079,79.5592,-0.018030
90.111,79.5592,-0.018030
90.143,79.5592,-0.018030
90.173,79.5592,-0.018030
90.204,79.5592,-0.017673
90.235,79.5592,-0.017673
90.266,79.5592,-0.017673
90.297,79.5592,-0.017673
90.327,79.5592,-0.017673
90.358,79.5592,-0.017673
90.389,79.5592,-0.017673
90.420,79.5592,-0.017409
90.451,79.5592,-0.017409
90.483,79.5592,-0.017409
90.514,79.5592,-0.017409
90.545,79.5592,-0.017409
90.576,79.5592,-0.017409
90.607,79.5592,-0.017409
90.640,79.5592,-0.017409
90.670,79.5592,-0.017174
90.700,79.5592,-0.017174
90.730,79.5592,-0.017174
90.761,79.5592,-0.017174
90.792,79.5592,-0.017174
90.824,79.5592,-0.017174
90.854,79.5592,-0.017174
90.888,79.5592,-0.017174
90.917,79.5592,-0.016939
90.947,79.5592,-0.016939
90.978,79.5592,-0.016939
91.009,79.5592,-0.016939
91.041,79.5592,-0.016939
91.072,79.5592,-0.016939
91.103,79.5592,-0.016939
91.135,79.5592,-0.016939
91.165,79.5592,-0.016638
91.196,79.5592,-0.016638
91.227,79.5592,-0.016638
91.258,79.5592,-0.016638
91.289,79.5592,-0.016638
91.320,79.5592,-0.016638
91.351,79.5591,-0.016638
91.383,79.5581,-0.016638
91.413,79.5564,-0.016638
91.445,79.5541,-0.016355
91.477,79.5509,-0.016355
91.506,79.5473,-0.016355
91.538,79.5426,-0.016355
91.569,79.5373,-0.016355
91.604,79.5303,-0.016355
91.630,79.5247,-0.016355
91.661,79.5174,-0.016355
91.693,79.5092,-0.014897
91.723,79.5003,-0.014897
91.755,79.4905,-0.014897
91.785,79.4804,-0.014897
91.816,79.4694,-0.014897
91.847,79.4575,-0.014897
91.878,79.4452,-0.014897
91.909,79.4317,-0.014897
91.941,79.4177,-0.009561
91.971,79.4029,-0.009561
92.002,79.3879,-0.009561
92.033,79.3714,-0.009561
92.064,79.3547,-0.009561
92.097,79.3362,-0.009561
92.127,79.3184,-0.009561
92.158,79.2990,-0.009561
92.189,79.2796,-0.000612
92.221,79.2580,-0.000612
92.252,79.2371,-0.000612
92.282,79.2155,-0.000612
92.314,79.1919,-0.000612
92.345,79.1678,-0.000612
92.377,79.1441,-0.000612
92.408,79.1189,-0.000612
92.438,79.0928,0.008733
92.469,79.0673,0.008733
92.500,79.0398,0.008733
92.531,79.0120,0.008733
92.563,78.9821,0.008733
92.594,78.9533,0.008733
92.626,78.9219,0.008733
92.657,78.8919,0.008733
92.688,78.8604,0.015706
92.719,78.8293,0.015706
92.751,78.7973,0.015706
92.781,78.7675,0.015706
92.813,78.7350,0.015706
92.844,78.7044,0.015706
92.875,78.6739,0.015706
92.906,78.6428,0.015706
92.938,78.6109,0.019922
92.969,78.5798,0.019922
93.000,78.5493,0.019922
93.032,78.5173,0.019922
93.063,78.4861,0.019922
93.093,78.4555,0.019922
93.125,78.4230,0.019922
93.156,78.3920,0.023818
93.188,78.3610,0.023818
93.219,78.3299,0.023818
93.250,78.2985,0.023818
93.281,78.2681,0.023818
93.312,78.2372,0.023818
93.343,78.2063,0.023818
93.374,78.1747,0.023818
93.405,78.1433,0.023818
93.436,78.1128,0.028429
93.468,78.0807,0.028429
93.498,78.0508,0.028429
93.529,78.0192,0.028429
93.560,77.9893,0.028429
93.590,77.9587,0.028429
93.621,77.9276,0.028429
93.652,77.8966,0.028429
93.685,77.8641,0.032306
93.714,77.8354,0.032306
93.745,77.8036,0.032306
93.775,77.7737,0.032306
93.806,77.7417,0.032306
93.838,77.7109,0.032306
93.870,77.6780,0.032306
93.901,77.6482,0.032306
93.932,77.6165,0.033981
93.964,77.5850,0.033981
93.994,77.5551,0.033981
94.025,77.5240,0.033981
94.053,77.4958,0.033981
94.087,77.4616,0.033981
94.118,77.4304,0.033981
94.150,77.3992,0.033981
94.180,77.3692,0.033981
94.211,77.3380,0.024938
94.248,77.3013,0.024938
94.274,77.2755,0.024938
94.305,77.2433,0.024938
94.336,77.2130,0.024938
94.366,77.1824,0.024938
94.398,77.1515,0.024938
94.429,77.1196,0.024938
94.459,77.0892,0.012412
94.490,77.0589,0.012412
94.521,77.0281,0.012412
94.554,76.9954,0.012412
94.582,76.9665,0.012412
94.611,76.9373,0.012412
94.644,76.9041,0.012412
94.675,76.8741,0.008780
94.706,76.8424,0.008780
94.738,76.8114,0.008780
94.768,76.7801,0.008780
94.802,76.7463,0.008780
94.830,76.7188,0.008780
94.862,76.6869,0.008780
94.893,76.6565,0.008780
94.923,76.6258,0.008780
94.955,76.5943,0.008780
94.986,76.5634,0.008272
95.017,76.5320,0.008272
95.048,76.5014,0.008272
95.079,76.4699,0.008272
95.110,76.4389,0.008272
95.142,76.4070,0.008272
95.173,76.3752,0.008272
95.204,76.3450,0.007980
95.235,76.3139,0.007980
95.266,76.2830,0.007980
95.296,76.2531,0.007980
95.327,76.2224,0.007980
95.358,76.1905,0.007980
95.389,76.1597,0.007980
95.420,76.1292,0.007980
95.451,76.0981,0.007980
95.482,76.0672,0.007829
95.513,76.0358,0.007829
95.544,76.0048,0.007829
95.575,75.9743,0.007829
95.609,75.9398,0.007829
95.638,75.9108,0.007829
95.669,75.8803,0.007829
95.701,75.8481,0.007829
95.728,75.8206,0.007688
95.763,75.7859,0.007688
95.794,75.7554,0.007688
95.824,75.7246,0.007688
95.855,75.6936,0.007688
95.886,75.6627,0.007688
95.917,75.6321,0.007688
95.948,75.6008,0.007604
95.979,75.5697,0.007604
96.011,75.5376,0.007604
96.042,75.5068,0.007604
96.073,75.4757,0.007604
96.103,75.4457,0.007604
96.135,75.4137,0.007604
96.165,75.3842,0.007604
96.196,75.3528,0.007453
96.227,75.3220,0.007453
96.259,75.2902,0.007453
96.289,75.2604,0.007453
96.320,75.2283,0.007453
96.352,75.1974,0.007453
96.383,75.1656,0.007453
96.414,75.1356,0.007453
96.444,75.1056,0.007321
96.475,75.0775,0.007321
96.506,75.0487,0.007321
96.538,75.0208,0.007321
96.568,74.9941,0.007321
96.599,74.9675,0.007321
96.631,74.9417,0.007321
96.663,74.9167,0.007321
96.693,74.8932,0.007208
96.724,74.8701,0.007208
96.755,74.8472,0.007208
96.787,74.8247,0.007208
96.817,74.8040,0.007208
96.849,74.7834,0.007208
96.880,74.7641,0.007208
96.911,74.7448,0.007208
96.942,74.7265,0.007077
96.974,74.7089,0.007077
97.004,74.6926,0.007077
97.036,74.6762,0.007077
97.066,74.6612,0.007077
97.097,74.6467,0.007077
97.129,74.6331,0.007077
97.159,74.6202,0.007077
97.189,74.6080,0.007020
97.226,74.5945,0.007020
97.251,74.5855,0.007020
97.283,74.5749,0.007020
97.314,74.5657,0.007020
97.345,74.5568,0.007020
97.375,74.5491,0.007020
97.407,74.5417,0.007020
97.437,74.5354,0.006888
97.470,74.5293,0.006888
97.499,74.5244,0.006888
97.531,74.5200,0.006888
97.562,74.5164,0.006888
97.594,74.5134,0.006888
97.625,74.5113,0.006888
97.658,74.5098,0.006888
97.686,74.5093,0.006757
97.717,74.5092,0.006757
97.748,74.5092,0.006757
97.783,74.5092,0.006757
97.811,74.5092,0.006757
97.841,74.5092,0.006757
97.872,74.5092,0.006757
97.902,74.5092,0.006757
97.933,74.5092,0.006785
97.965,74.5092,0.006785
97.995,74.5092,0.006785
98.028,74.5092,0.006785
98.057,74.5092,0.006785
98.088,74.5092,0.006785
98.118,74.5092,0.006785
98.153,74.5092,0.006785
98.180,74.5092,0.006813
98.211,74.5092,0.006813
98.242,74.5092,0.006813
98.272,74.5097,0.006813
98.303,74.5109,0.006813
98.334,74.5129,0.006813
98.365,74.5155,0.006813
98.397,74.5190,0.006813
98.428,74.5232,0.006813
98.459,74.5280,0.006691
98.490,74.5336,0.006691
98.522,74.5403,0.006691
98.552,74.5470,0.006691
98.584,74.5550,0.006691
98.614,74.5634,0.006691
98.645,74.5727,0.006691
98.682,74.5850,0.006550
98.720,74.5981,0.006550
98.751,74.6098,0.006550
98.782,74.6223,0.006550
98.813,74.6353,0.006550
98.844,74.6495,0.006550
98.874,74.6636,0.006550
98.906,74.6798,0.006550
98.937,74.6957,0.006550
98.968,74.7125,0.006550
99.000,74.7306,0.006484
99.031,74.7484,0.006484
99.063,74.7688,0.006484
99.092,74.7866,0.006484
99.123,74.8076,0.006484
99.155,74.8290,0.006484
99.185,74.8505,0.006484
99.219,74.8753,0.006399
99.246,74.8960,0.006399
99.278,74.9203,0.006399
99.308,74.9446,0.006399
99.341,74.9724,0.006399
99.370,74.9960,0.006399
99.401,75.0231,0.006399
99.432,75.0513,0.006305
99.463,75.0802,0.006305
99.494,75.1080,0.006305
99.525,75.1382,0.006305
99.556,75.1689,0.006305
99.587,75.1998,0.006305
99.618,75.2311,0.006305
99.649,75.2619,0.006305
99.680,75.2934,0.006305
99.711,75.3243,0.006211
99.742,75.3556,0.006211
99.773,75.3864,0.006211
99.803,75.4168,0.006211
99.834,75.4475,0.006211
99.865,75.4791,0.006211
99.896,75.5092,0.006211
99.927,75.5404,0.006211
99.958,75.5708,0.006154
99.988,75.6020,0.006154
100.019,75.6325,0.006154
100.050,75.6629,0.006154
100.080,75.6937,0.006154
100.112,75.7249,0.006154
100.142,75.7550,0.006154
100.173,75.7868,0.006154
100.203,75.8166,0.006060
100.235,75.8479,0.006060
100.266,75.8793,0.006060
100.299,75.9120,0.006060
100.328,75.9423,0.006060
100.360,75.9728,0.006060
100.391,76.0039,0.006060
100.421,76.0348,0.006060
100.453,76.0664,0.005966
100.484,76.0973,0.005966
100.514,76.1270,0.005966
100.545,76.1577,0.005966
100.575,76.1882,0.005966
100.608,76.2217,0.005966
100.637,76.2513,0.005966
100.668,76.2816,0.005966
100.700,76.3132,0.005853
100.731,76.3442,0.005853
100.761,76.3746,0.005853
100.792,76.4056,0.005853
100.824,76.4376,0.005853
100.856,76.4690,0.005853
100.885,76.4989,0.005853
100.916,76.5290,0.005853
100.947,76.5598,0.005693
100.977,76.5904,0.005693
101.010,76.6234,0.005693
101.039,76.6524,0.005693
101.072,76.6858,0.005693
101.100,76.7138,0.005693
101.130,76.7437,0.005693
101.162,76.7755,0.005693
101.193,76.8056,0.005590
101.224,76.8372,0.005590
101.254,76.8676,0.005590
101.286,76.8996,0.005590
101.316,76.9299,0.005590
101.347,76.9600,0.005590
101.377,76.9904,0.005590
101.408,77.0215,0.005590
101.445,77.0586,0.005496
101.471,77.0839,0.005496
101.501,77.1144,0.005496
101.532,77.1448,0.005496
101.563,77.1759,0.005496
101.593,77.2062,0.005496
101.624,77.2377,0.005496
101.655,77.2680,0.005496
101.686,77.2996,0.005496
101.718,77.3312,0.005496
101.749,77.3621,0.005336
101.781,77.3941,0.005336
101.812,77.4257,0.005336
101.843,77.4566,0.005336
101.874,77.4874,0.005336
101.906,77.5190,0.005336
101.937,77.5505,0.005336
101.969,77.5815,0.005147
102.000,77.6136,0.005147
102.031,77.6440,0.005147
102.062,77.6749,0.005147
102.093,77.7061,0.005147
102.124,77.7371,0.005147
102.155,77.7679,0.005147
102.186,77.7998,0.005147
102.217,77.8303,0.004922
102.248,77.8613,0.004922
102.279,77.8922,0.004922
102.309,77.9227,0.004922
102.339,77.9527,0.004922
102.370,77.9830,0.004922
102.400,78.0136,0.004922
102.432,78.0448,0.004922
102.463,78.0759,0.004677
102.494,78.1075,0.004677
102.525,78.1380,0.004677
102.551,78.1645,0.004677
102.586,78.1994,0.004677
102.618,78.2314,0.004677
102.649,78.2626,0.004677
102.683,78.2957,0.004677
102.712,78.3250,0.004677
102.744,78.3574,0.004338
102.774,78.3872,0.004338
102.805,78.4187,0.004338
102.836,78.4489,0.004338
102.867,78.4794,0.004338
102.897,78.5098,0.004338
102.928,78.5406,0.004338
102.959,78.5726,0.003604
102.990,78.6032,0.003604
103.021,78.6340,0.003604
103.052,78.6657,0.003604
103.083,78.6958,0.003604
103.114,78.7277,0.003604
103.146,78.7589,0.003604
103.176,78.7892,0.003604
103.207,78.8204,0.001986
103.239,78.8521,0.001986
103.270,78.8824,0.001986
103.301,78.9130,0.001986
103.333,78.9422,0.001986
103.364,78.9709,0.001986
103.396,78.9988,0.001986
103.427,79.0265,0.001986
103.457,79.0518,-0.001374
103.489,79.0775,-0.001374
103.520,79.1023,-0.001374
103.549,79.1253,-0.001374
103.580,79.1488,-0.001374
103.611,79.1709,-0.001374
103.642,79.1931,-0.001374
103.673,79.2138,-0.001374
103.704,79.2346,-0.007190
103.736,79.2541,-0.007190
103.766,79.2732,-0.007190
103.798,79.2913,-0.007190
103.829,79.3091,-0.007190
103.859,79.3250,-0.007190
103.890,79.3408,-0.007190
103.921,79.3563,-0.014934
103.953,79.3713,-0.014934
103.984,79.3852,-0.014934
104.015,79.3981,-0.014934
104.046,79.4106,-0.014934
104.078,79.4224,-0.014934
104.109,79.4332,-0.014934
104.140,79.4437,-0.014934
104.171,79.4530,-0.014934
104.204,79.4623,-0.022698
104.233,79.4696,-0.022698
104.264,79.4769,-0.022698
104.296,79.4834,-0.022698
104.326,79.4892,-0.022698
104.357,79.4942,-0.022698
104.388,79.4984,-0.022698
104.419,79.5020,-0.028099
104.449,79.5049,-0.028099
104.480,79.5070,-0.028099
104.511,79.5084,-0.028099
104.542,79.5091,-0.028099
104.572,79.5092,-0.028099
104.603,79.5092,-0.028099
104.633,79.5092,-0.028099
104.664,79.5092,-0.029445
104.695,79.5092,-0.029445
104.725,79.5092,-0.029445
104.757,79.5092,-0.029445
104.788,79.5092,-0.029445
104.819,79.5092,-0.029445
104.850,79.5092,-0.029445
104.881,79.5092,-0.029445
104.911,79.5092,-0.029445
104.942,79.5092,-0.027751
104.972,79.5092,-0.027751
105.002,79.5092,-0.027751
105.034,79.5092,-0.027751
105.064,79.5092,-0.027751
105.095,79.5092,-0.027751
105.126,79.5092,-0.027751
