Elapsed Time (s),Position (mm),Force (N)
-0.018,59.1000,0.002417
0.001,59.1000,0.000000
0.014,59.1000,-0.003625
0.033,59.1000,-0.003625
0.046,59.1000,0.000000
0.062,59.1000,0.001208
0.078,59.1000,-0.001208
0.094,59.1000,0.000000
0.110,59.1000,0.000000
0.126,59.1000,0.000000
0.143,59.1000,-0.002417
0.158,59.1000,-0.003625
0.174,59.1000,-0.004834
0.191,59.1000,-0.004834
0.206,59.1000,-0.001208
0.222,59.1000,-0.001208
0.238,59.1000,0.004834
0.254,59.1000,0.000000
0.271,59.1000,-0.001208
0.287,59.1000,-0.008459
0.303,59.1000,-0.007251
0.318,59.1000,0.000000
0.335,59.1000,-0.002417
0.350,59.1000,-0.002417
0.367,59.1000,-0.002417
0.383,59.1000,-0.007251
0.397,59.1000,-0.007251
0.414,59.1000,-0.008459
0.430,59.1000,-0.001208
0.447,59.1000,-0.008459
0.471,59.1000,-0.002417
0.487,59.1000,-0.001208
0.503,59.1000,0.000000
0.519,59.1000,0.001208
0.535,59.1000,0.004834
0.551,59.1000,-0.003625
0.567,59.1000,-0.007251
0.583,59.1000,-0.007251
0.599,59.1000,-0.008459
0.617,59.1000,-0.006042
0.632,59.1000,-0.006042
0.647,59.1000,0.001208
0.664,59.1000,0.000000
0.679,59.1000,0.000000
0.696,59.1000,-0.002417
0.712,59.1000,-0.002417
0.732,59.1000,-0.002417
0.743,59.1000,0.003625
0.759,59.1000,-0.004834
0.775,59.1000,0.000000
0.791,59.1000,0.000000
0.806,59.1000,-0.002417
0.823,59.1000,-0.002417
0.838,59.1000,-0.002417
0.862,59.1000,-0.006042
0.886,59.1000,0.000000
0.906,59.1000,-0.002417
0.919,59.1000,-0.009668
0.935,59.1000,-0.007251
0.951,59.1000,-0.004834
0.966,59.1000,-0.006042
0.994,59.1000,-0.004834
1.010,59.1000,0.003625
1.027,59.1000,-0.006042
1.042,59.1000,-0.004834
1.059,59.1000,-0.004834
1.074,59.1000,-0.002417
1.090,59.1000,-0.004834
1.110,59.1000,0.001208
1.122,59.1000,-0.003625
1.138,59.1000,-0.002417
1.154,59.1000,-0.004834
1.171,59.1000,0.001208
1.186,59.1000,-0.002417
1.202,59.1000,-0.001208
1.219,59.1000,-0.001208
1.235,59.1000,0.001208
1.251,59.1000,0.000000
1.266,59.1000,-0.001208
1.283,59.1000,-0.001208
1.299,59.1000,-0.002417
1.316,59.1000,-0.007251
1.330,59.1000,-0.007251
1.347,59.1000,-0.001208
1.362,59.1000,-0.001208
1.378,59.1000,-0.004834
1.394,59.1000,-0.004834
1.411,59.1000,-0.004834
1.426,59.1000,-0.003625
1.442,59.1000,-0.003625
1.459,59.1000,-0.002417
1.475,59.1000,0.002417
1.490,59.1000,-0.002417
1.506,59.1000,-0.002417
1.524,59.1000,-0.002417
1.538,59.1000,-0.002417
1.554,59.1000,0.003625
1.570,59.1000,-0.001208
1.587,59.1000,0.001208
1.603,59.1000,-0.001208
1.619,59.1000,-0.002417
1.634,59.1000,0.003625
1.651,59.1000,0.003625
1.667,59.1000,-0.008459
1.683,59.1000,0.003625
1.698,59.1000,-0.001208
1.715,59.1000,-0.001208
1.731,59.1000,-0.001208
1.747,59.1000,-0.001208
1.762,59.1000,-0.003625
1.778,59.1000,-0.008459
1.794,59.1000,-0.003625
1.810,59.1000,-0.003625
1.826,59.1000,-0.007251
1.843,59.1000,-0.002417
1.858,59.1000,-0.004834
1.874,59.1000,-0.004834
1.891,59.1000,-0.001208
1.908,59.1000,0.002417
1.927,59.1000,-0.002417
1.940,59.1000,-0.004834
1.954,59.1000,0.002417
1.970,59.1000,0.002417
1.986,59.1000,-0.002417
2.002,59.1000,-0.002417
2.018,59.1000,-0.001208
2.034,59.1000,-0.002417
2.058,59.1000,-0.009668
2.074,59.1000,-0.006042
2.090,59.1000,-0.003625
2.106,59.1000,0.001208
2.123,59.1000,-0.002417
2.140,59.1000,0.002417
2.154,59.1000,-0.002417
2.170,59.1000,-0.003625
2.187,59.1000,-0.001208
2.202,59.1000,-0.008459
2.219,59.1000,-0.006042
2.234,59.1000,-0.001208
2.251,59.1000,-0.001208
2.267,59.1000,0.001208
2.285,59.1000,0.001208
2.298,59.1000,0.000000
2.315,59.1000,-0.006042
2.330,59.1000,-0.006042
2.346,59.1000,-0.001208
2.362,59.1000,-0.001208
2.378,59.1000,-0.001208
2.394,59.1000,-0.008459
2.410,59.1000,-0.008459
2.427,59.1000,-0.003625
2.442,59.1000,-0.006042
2.458,59.1000,0.001208
2.474,59.1000,0.001208
2.490,59.1000,-0.003625
2.506,59.1000,-0.003625
2.522,59.1000,-0.002417
2.538,59.1000,-0.001208
2.554,59.1000,-0.006042
2.570,59.1000,-0.002417
2.586,59.1000,-0.004834
2.609,59.1000,-0.001208
2.625,59.1000,-0.004834
2.641,59.1000,-0.004834
2.657,59.1000,-0.002417
2.675,59.1000,-0.002417
2.689,59.1000,-0.007251
2.705,59.1000,-0.001208
2.721,59.1000,-0.004834
2.738,59.1000,-0.001208
2.753,59.1000,-0.008459
2.769,59.1000,-0.006042
2.785,59.1000,0.000000
2.805,59.1000,0.000000
2.818,59.1000,-0.004834
2.833,59.1000,-0.004834
2.853,59.1000,-0.003625
2.866,59.1000,-0.003625
2.882,59.1000,-0.003625
2.900,59.1000,-0.006042
2.913,59.1000,-0.006042
2.930,59.1000,-0.001208
2.945,59.1000,-0.003625
2.963,59.1000,-0.003625
2.977,59.1000,0.001208
2.995,59.1000,0.001208
3.009,59.1000,0.000000
3.025,59.1000,0.001208
3.041,59.1000,-0.003625
3.057,59.1000,0.003625
3.073,59.1000,0.000000
3.088,59.1000,-0.002417
3.104,59.1000,-0.003625
3.120,59.1000,-0.004834
3.136,59.1000,-0.001208
3.159,59.1000,-0.001208
3.175,59.1000,-0.001208
3.192,59.1000,-0.010876
3.208,59.1000,-0.001208
3.224,59.1000,-0.001208
3.240,59.1000,-0.006042
3.258,59.1000,-0.001208
3.271,59.1000,0.000000
3.287,59.1000,-0.003625
3.303,59.1000,-0.008459
3.320,59.1000,-0.008459
3.336,59.1000,0.000000
3.351,59.1000,-0.001208
3.368,59.1000,0.000000
3.383,59.1000,-0.003625
3.400,59.1000,-0.006042
3.416,59.1000,-0.007251
3.433,59.1000,-0.006042
3.449,59.1000,0.000000
3.464,59.1000,0.003625
3.480,59.1000,-0.001208
3.495,59.1000,-0.002417
3.515,59.1000,0.001208
3.529,59.1000,0.002417
3.544,59.1000,-0.001208
3.559,59.1000,0.002417
3.576,59.1000,-0.001208
3.592,59.1000,0.001208
3.607,59.1000,-0.002417
3.625,59.1000,0.000000
3.639,59.1000,0.001208
3.657,59.1000,-0.003625
3.671,59.1000,-0.003625
3.694,59.1000,-0.007251
3.712,59.1000,-0.002417
3.726,59.1000,-0.003625
3.741,59.1000,-0.003625
3.758,59.1000,0.000000
3.773,59.1000,0.001208
3.789,59.1000,-0.004834
3.805,59.1000,-0.003625
3.822,59.1000,0.002417
3.837,59.1000,-0.002417
3.853,59.1000,0.000000
3.873,59.1000,-0.001208
3.886,59.1000,-0.002417
3.901,59.1000,-0.004834
3.918,59.1000,0.000000
3.934,59.1000,0.002417
3.950,59.1000,-0.001208
3.967,59.1000,-0.001208
3.981,59.1000,-0.002417
3.998,59.1000,-0.004834
4.013,59.1000,-0.004834
4.031,59.1000,-0.002417
4.047,59.1000,-0.002417
4.061,59.1000,-0.002417
4.077,59.1000,-0.003625
4.094,59.1000,0.001208
4.109,59.1000,0.001208
4.125,59.1000,0.002417
4.141,59.1000,-0.006042
4.158,59.1000,-0.006042
4.173,59.1000,-0.001208
4.193,59.1000,-0.008459
4.216,59.1000,-0.004834
4.232,59.1000,-0.004834
4.248,59.1000,0.000000
4.264,59.1000,-0.001208
4.281,59.1000,-0.001208
4.297,59.1000,-0.004834
4.316,59.1000,-0.004834
4.329,59.1000,-0.001208
4.344,59.1000,0.001208
4.360,59.1000,-0.002417
4.376,59.1000,-0.007251
4.399,59.1000,-0.007251
4.410,59.1000,-0.004834
4.424,59.1000,-0.006042
4.440,59.1000,-0.001208
4.456,59.1000,-0.004834
4.472,59.1000,-0.003625
4.488,59.1000,0.001208
4.504,59.1000,-0.002417
4.520,59.1000,-0.002417
4.536,59.1000,-0.002417
4.556,59.1000,-0.002417
4.568,59.1000,-0.001208
4.584,59.1000,0.000000
4.600,59.1000,-0.007251
4.616,59.1000,-0.007251
4.632,59.1000,-0.006042
4.649,59.1000,-0.002417
4.664,59.1000,0.001208
4.682,59.1000,0.001208
4.695,59.1000,0.002417
4.713,59.1000,-0.007251
4.728,59.1000,-0.004834
4.744,59.1000,-0.007251
4.774,59.1000,-0.008459
4.789,59.1000,-0.002417
4.805,59.1000,0.002417
4.821,59.1000,-0.006042
4.839,59.1000,-0.002417
4.853,59.1000,-0.001208
4.869,59.1000,-0.006042
4.885,59.1000,0.001208
4.903,59.1000,-0.004834
4.917,59.1000,-0.004834
4.933,59.1000,-0.003625
4.949,59.1000,-0.006042
4.966,59.1000,-0.010876
4.981,59.1000,-0.002417
4.996,59.1000,-0.001208
5.013,59.1000,-0.002417
5.030,59.1000,-0.003625
5.045,59.1000,-0.003625
5.063,59.1000,-0.007251
5.077,59.1000,-0.003625
5.096,59.1000,-0.006042
5.110,59.1000,-0.006042
5.126,59.1000,0.001208
5.141,59.1000,0.003625
5.157,59.1000,-0.004834
5.174,59.1000,-0.003625
5.189,59.1000,-0.007251
5.205,59.1000,0.000000
5.221,59.1000,0.000000
5.238,59.1000,-0.002417
5.252,59.1000,0.001208
5.269,59.1000,-0.002417
5.285,59.1000,-0.006042
5.300,59.1000,-0.006042
5.325,59.1000,-0.006042
5.344,59.1000,-0.008459
5.356,59.1000,-0.004834
5.372,59.1000,-0.001208
5.387,59.1000,-0.002417
5.403,59.1000,0.000000
5.419,59.1000,-0.007251
5.435,59.1000,-0.002417
5.452,59.1000,-0.002417
5.467,59.1000,0.000000
5.484,59.1000,-0.004834
5.499,59.1000,-0.001208
5.515,59.1000,-0.002417
5.532,59.1000,0.000000
5.547,59.1000,-0.001208
5.565,59.1000,-0.001208
5.580,59.1000,0.000000
5.595,59.1000,0.000000
5.611,59.1000,-0.008459
5.627,59.1000,-0.008459
5.644,59.1000,0.004834
5.659,59.1000,-0.002417
5.676,59.1000,-0.002417
5.692,59.1000,-0.008459
5.707,59.1000,-0.008459
5.724,59.1000,-0.001208
5.741,59.1000,-0.001208
5.756,59.1000,-0.007251
5.772,59.1000,-0.007251
5.788,59.1000,-0.007251
5.804,59.1000,-0.001208
5.823,59.1000,-0.004834
5.847,59.1000,-0.002417
5.869,59.1000,-0.006042
5.888,59.1000,-0.001208
5.903,59.1000,-0.004834
5.920,59.1000,0.000000
5.934,59.1000,-0.007251
5.949,59.1000,-0.007251
5.964,59.1000,-0.006042
5.976,59.1000,-0.001208
5.991,59.1000,-0.001208
6.010,59.1000,0.001208
6.022,59.1000,-0.004834
6.038,59.1000,0.002417
6.054,59.1000,0.000000
6.071,59.1000,0.000000
6.086,59.1000,-0.002417
6.102,59.1000,-0.004834
6.118,59.1000,-0.002417
6.134,59.1000,-0.006042
6.151,59.1000,0.000000
6.166,59.1000,0.000000
6.184,59.1000,-0.001208
6.200,59.1000,-0.003625
6.214,59.1000,0.000000
6.230,59.1000,-0.006042
6.246,59.1000,-0.003625
6.267,59.1000,-0.003625
6.278,59.1000,-0.006042
6.294,59.1000,-0.001208
6.310,59.1000,-0.009668
6.327,59.1000,-0.006042
6.342,59.1000,-0.004834
6.358,59.1000,0.000000
6.374,59.1000,0.002417
6.391,59.1000,-0.003625
6.406,59.1000,-0.001208
6.422,59.1000,-0.004834
6.438,59.1000,-0.006042
6.455,59.1000,0.000000
6.470,59.1000,0.000000
6.486,59.1000,-0.002417
6.502,59.1000,-0.002417
6.518,59.1000,-0.003625
6.534,59.1000,-0.003625
6.550,59.1000,-0.003625
6.566,59.1000,-0.002417
6.582,59.1000,-0.002417
6.598,59.1000,0.002417
6.617,59.1000,-0.006042
6.630,59.1000,-0.003625
6.646,59.1000,-0.010876
6.662,59.1000,-0.007251
6.679,59.1000,-0.004834
6.695,59.1000,-0.002417
6.713,59.1000,-0.002417
6.727,59.1000,-0.006042
6.742,59.1000,-0.006042
6.759,59.1000,-0.006042
6.775,59.1000,-0.001208
6.791,59.1000,-0.007251
6.807,59.1000,-0.002417
6.822,59.1000,-0.006042
6.839,59.1000,-0.007251
6.854,59.1000,-0.001208
6.873,59.1000,0.000000
6.886,59.1000,-0.001208
6.913,59.1000,0.002417
6.930,59.1000,-0.001208
6.946,59.1000,-0.003625
6.961,59.1000,-0.003625
6.978,59.1000,-0.003625
6.993,59.1000,0.002417
7.009,59.1000,-0.001208
7.026,59.1000,0.001208
7.041,59.1000,-0.001208
7.059,59.1000,-0.001208
7.074,59.1000,-0.007251
7.089,59.1000,-0.003625
7.105,59.1000,-0.003625
7.121,59.1000,-0.002417
7.137,59.1000,-0.004834
7.156,59.1000,0.001208
7.170,59.1000,-0.006042
7.185,59.1000,0.001208
7.201,59.1000,0.001208
7.217,59.1000,-0.002417
7.233,59.1000,-0.008459
7.249,59.1000,0.002417
7.265,59.1000,-0.006042
7.282,59.1000,-0.006042
7.300,59.1000,-0.004834
7.313,59.1000,-0.004834
7.333,59.1000,-0.004834
7.345,59.1000,-0.004834
7.360,59.1000,-0.004834
7.376,59.1000,-0.001208
7.394,59.1000,0.001208
7.409,59.1000,-0.002417
7.428,59.1000,-0.003625
7.450,59.1000,0.002417
7.466,59.1000,-0.001208
7.482,59.1000,-0.002417
7.498,59.1000,0.008459
7.515,59.1000,0.000000
7.531,59.1000,0.000000
7.547,59.1000,-0.002417
7.562,59.1000,-0.003625
7.579,59.1000,-0.001208
7.594,59.1000,0.001208
7.612,59.1000,0.001208
7.627,59.1000,-0.003625
7.643,59.1000,-0.003625
7.659,59.1000,0.002417
7.674,59.1000,-0.003625
7.692,59.1000,0.002417
7.706,59.1000,-0.002417
7.723,59.1000,-0.001208
7.738,59.1000,-0.002417
7.756,59.1000,-0.001208
7.770,59.1000,-0.002417
7.787,59.1000,-0.002417
7.802,59.1000,-0.003625
7.825,59.1000,-0.004834
7.846,59.1000,-0.002417
7.866,59.1000,-0.003625
7.882,59.1000,-0.001208
7.898,59.1000,-0.002417
7.914,59.1000,0.004834
7.934,59.1000,0.004834
7.947,59.1000,-0.006042
7.963,59.1000,-0.008459
7.978,59.1000,-0.003625
8.001,59.1000,-0.004834
8.020,59.1000,-0.002417
8.032,59.1000,0.000000
8.048,59.1000,-0.003625
8.065,59.1000,-0.003625
8.081,59.1000,-0.006042
8.097,59.1000,-0.002417
8.112,59.1000,-0.001208
8.133,59.1000,-0.001208
8.144,59.1000,-0.001208
8.160,59.1000,-0.004834
8.176,59.1000,-0.006042
8.192,59.1000,-0.008459
8.208,59.1000,-0.003625
8.224,59.1000,0.001208
8.241,59.1000,0.001208
8.256,59.1000,-0.003625
8.275,59.1000,0.000000
8.288,59.1000,-0.006042
8.304,59.1000,-0.002417
8.320,59.1000,-0.002417
8.336,59.1000,0.000000
8.353,59.1000,0.002417
8.368,59.1000,0.002417
8.384,59.1000,-0.004834
8.400,59.1000,-0.003625
8.418,59.1000,-0.003625
8.433,59.1000,0.003625
8.448,59.1000,0.000000
8.464,59.1000,-0.004834
8.480,59.1000,-0.001208
8.496,59.1000,-0.006042
8.516,59.1000,-0.006042
8.541,59.1000,-0.003625
8.558,59.1000,0.002417
8.573,59.1000,0.004834
8.588,59.1000,-0.003625
8.604,59.1000,-0.001208
8.620,59.1000,-0.002417
8.637,59.1000,-0.001208
8.652,59.1000,-0.004834
8.668,59.1000,-0.003625
8.684,59.1000,0.000000
8.700,59.1000,0.004834
8.718,59.1000,0.002417
8.732,59.1000,-0.003625
8.749,59.1000,-0.003625
8.764,59.1000,-0.004834
8.781,59.1000,-0.004834
8.797,59.1000,-0.006042
8.817,59.1000,-0.006042
8.828,59.1000,0.002417
8.849,59.1000,-0.004834
8.860,59.1000,-0.002417
8.876,59.1000,-0.001208
8.892,59.1000,-0.001208
8.908,59.1000,0.004834
8.924,59.1000,-0.003625
8.940,59.1000,-0.003625
8.956,59.1000,0.002417
8.972,59.1000,0.002417
8.989,59.1000,-0.002417
9.004,59.1000,-0.002417
9.021,59.1000,-0.003625
9.036,59.1000,-0.002417
9.052,59.1000,-0.004834
9.083,59.1000,-0.004834
9.099,59.1000,-0.009668
9.115,59.1000,-0.003625
9.131,59.1000,-0.001208
9.149,59.1000,0.000000
9.163,59.1000,0.000000
9.179,59.1000,-0.002417
9.195,59.1000,-0.002417
9.213,59.1000,-0.006042
9.227,59.1000,-0.006042
9.243,59.1000,0.000000
9.259,59.1000,0.003625
9.276,59.1000,0.000000
9.291,59.1000,-0.002417
9.307,59.1000,-0.008459
9.323,59.1000,-0.009668
9.341,59.1000,-0.001208
9.355,59.1000,0.002417
9.371,59.1000,-0.007251
9.387,59.1000,0.000000
9.403,59.1000,-0.007251
9.419,59.1000,-0.004834
9.435,59.1000,-0.003625
9.451,59.1000,-0.002417
9.468,59.1000,0.001208
9.483,59.1000,-0.006042
9.500,59.1000,-0.006042
9.515,59.1000,-0.002417
9.531,59.1000,-0.004834
9.547,59.1000,-0.001208
9.562,59.1000,-0.003625
9.579,59.1000,0.001208
9.594,59.1000,-0.001208
9.618,59.1000,0.000000
9.634,59.1000,0.000000
9.649,59.1000,-0.008459
9.665,59.1000,-0.003625
9.682,59.1000,-0.002417
9.698,59.1000,0.000000
9.716,59.1000,-0.003625
9.731,59.1000,-0.003625
9.746,59.1000,-0.006042
9.762,59.1000,-0.009668
9.777,59.1000,-0.006042
9.794,59.1000,-0.002417
9.810,59.1000,-0.003625
9.825,59.1000,-0.006042
9.842,59.1000,0.000000
9.857,59.1000,-0.002417
9.873,59.1000,-0.009668
9.889,59.1000,-0.003625
9.906,59.1000,-0.001208
9.923,59.1000,-0.002417
9.938,59.1000,-0.001208
9.954,59.1000,-0.004834
9.971,59.1000,-0.004834
9.986,59.1000,-0.006042
10.001,59.1000,-0.006042
10.017,59.1000,-0.003625
10.034,59.1000,-0.001208
10.050,59.1000,-0.001208
10.067,59.1000,-0.008459
10.081,59.1000,-0.008459
10.097,59.1000,-0.004834
10.113,59.1000,-0.004834
10.130,59.1000,0.002417
10.154,59.1000,-0.001208
10.176,59.1000,-0.001208
10.192,59.1000,-0.001208
10.207,59.1000,0.001208
10.224,59.1000,0.000000
10.240,59.1000,-0.002417
10.250,59.1000,-0.002417
10.266,59.1000,-0.003625
10.283,59.1000,-0.003625
10.297,59.1000,-0.001208
10.315,59.1000,-0.006042
10.331,59.1000,-0.007251
10.345,59.1000,0.000000
10.362,59.1000,0.000000
10.377,59.1000,0.001208
10.393,59.1000,-0.002417
10.409,59.1000,-0.006042
10.425,59.1000,-0.002417
10.443,59.1000,-0.006042
10.458,59.1000,-0.004834
10.474,59.1000,-0.004834
10.489,59.1000,-0.006042
10.509,59.1000,-0.006042
10.522,59.1000,-0.004834
10.537,59.1000,-0.002417
10.554,59.1000,-0.003625
10.568,59.1000,-0.003625
10.585,59.1000,0.000000
10.601,59.1000,0.000000
10.617,59.1000,-0.004834
10.635,59.1000,-0.004834
10.649,59.1000,-0.004834
10.668,59.1000,-0.002417
10.692,59.1000,-0.001208
10.708,59.1000,-0.002417
10.724,59.1000,-0.001208
10.739,59.1000,-0.001208
10.756,59.1000,-0.006042
10.772,59.1000,-0.003625
10.791,59.1000,-0.002417
10.803,59.1000,-0.002417
10.820,59.1000,-0.006042
10.836,59.1000,-0.004834
10.852,59.1000,-0.004834
10.867,59.1000,-0.004834
10.883,59.1000,-0.004834
10.899,59.1000,-0.002417
10.915,59.1000,-0.006042
10.932,59.1000,-0.006042
10.947,59.1000,-0.002417
10.963,59.1000,-0.004834
10.979,59.1000,-0.002417
10.995,59.1000,-0.001208
11.011,59.1000,-0.004834
11.027,59.1000,-0.001208
11.043,59.1000,0.001208
11.059,59.1000,-0.007251
11.076,59.1000,-0.010876
11.091,59.1000,0.000000
11.107,59.1000,0.001208
11.124,59.1000,-0.010876
11.140,59.1000,-0.004834
11.157,59.1000,-0.003625
11.172,59.0611,0.012084
11.188,58.9846,0.059214
11.203,58.9114,-0.015710
11.231,58.7736,-0.018127
11.247,58.6920,-0.001208
11.263,58.6155,0.002417
11.279,58.5368,-0.003625
11.295,58.4529,-0.008459
11.311,58.3763,0.000000
11.331,58.2805,-0.007251
11.344,58.2162,0.001208
11.360,58.1333,-0.001208
11.375,58.0596,0.001208
11.391,57.9836,0.002417
11.407,57.9006,-0.007251
11.423,57.8230,-0.007251
11.438,57.7430,-0.004834
11.455,57.6678,-0.004834
11.471,57.5873,-0.002417
11.487,57.5068,-0.002417
11.503,57.4307,-0.004834
11.519,57.3477,-0.004834
11.535,57.2701,-0.001208
11.555,57.1738,-0.001208
11.568,57.1071,0.006042
11.583,57.0359,-0.001208
11.599,56.9524,-0.007251
11.615,56.8773,-0.006042
11.632,56.7913,-0.006042
11.647,56.7138,-0.007251
11.667,56.6174,-0.004834
11.679,56.5611,-0.006042
11.696,56.4772,0.001208
11.711,56.4005,-0.001208
11.729,56.3101,-0.006042
11.753,56.1965,-0.003625
11.768,56.1165,-0.007251
11.785,56.0379,-0.008459
11.800,55.9589,0.002417
11.818,55.8729,-0.003625
11.833,55.7958,-0.004834
11.850,55.7128,-0.002417
11.864,55.6431,-0.004834
11.882,55.5587,-0.004834
11.896,55.4846,-0.002417
11.913,55.4020,-0.002417
11.929,55.3260,0.002417
11.945,55.2464,0.001208
11.962,55.1604,-0.001208
11.976,55.0898,0.001208
11.993,55.0068,-0.001208
12.008,54.9312,-0.008459
12.024,54.8507,-0.006042
12.040,54.7736,0.000000
12.056,54.6926,0.000000
12.073,54.6120,-0.003625
12.088,54.5370,-0.007251
12.109,54.4346,-0.004834
12.122,54.3684,-0.001208
12.138,54.2924,0.006042
12.152,54.2187,-0.002417
12.171,54.1244,0.000000
12.185,54.0587,-0.004834
12.200,53.9831,0.000000
12.216,53.9016,-0.001208
12.234,53.8186,-0.004834
12.250,53.7380,-0.001208
12.268,53.6466,0.001208
12.292,53.5285,-0.006042
12.309,53.4480,-0.006042
12.324,53.3710,-0.008459
12.340,53.2924,-0.006042
12.357,53.2079,-0.006042
12.373,53.1279,0.001208
12.391,53.0500,0.001208
12.404,53.0500,-0.054380
12.420,53.0500,0.001208
12.437,53.0500,-0.007251
12.452,53.0500,-0.007251
12.468,53.0500,0.003625
12.484,53.0500,-0.003625
12.500,53.0500,-0.003625
12.516,53.0500,-0.004834
12.533,53.0500,-0.004834
12.549,53.0500,-0.003625
12.567,53.0500,0.002417
12.581,53.0500,0.002417
12.597,53.0500,-0.003625
12.613,53.0500,0.002417
12.628,53.0500,0.000000
12.647,53.0500,0.003625
12.660,53.0500,0.003625
12.676,53.0500,0.001208
12.692,53.0500,0.001208
12.710,53.0500,-0.003625
12.725,53.0500,-0.004834
12.740,53.0500,-0.001208
12.757,53.0500,-0.001208
12.772,53.0500,-0.009668
12.788,53.0500,-0.002417
12.804,53.0500,-0.004834
12.827,53.0500,0.000000
12.843,53.0500,0.000000
12.859,53.0500,-0.003625
12.875,53.0500,-0.003625
12.892,53.1082,-0.039879
12.908,53.1834,0.008459
12.924,53.2589,0.002417
12.939,53.3365,-0.004834
12.956,53.4240,0.008459
12.971,53.5000,0.007251
12.988,53.5751,0.004834
13.003,53.6527,-0.002417
13.019,53.7323,0.001208
13.035,53.8118,-0.002417
13.051,53.8923,0.000000
13.067,53.9684,0.006042
13.084,54.0559,-0.001208
13.099,54.1275,-0.006042
13.118,54.2188,-0.002417
13.131,54.2846,-0.003625
13.148,54.3705,-0.006042
13.163,54.4467,-0.006042
13.180,54.5296,0.001208
13.195,54.6053,-0.006042
13.211,54.6813,-0.006042
13.227,54.7653,-0.004834
13.244,54.8464,-0.006042
13.259,54.9229,-0.001208
13.275,54.9986,-0.001208
13.291,55.0751,-0.003625
13.307,55.1586,-0.002417
13.324,55.2387,-0.002417
13.340,55.3177,-0.001208
13.355,55.3904,-0.001208
13.376,55.4950,0.000000
13.392,55.5732,0.003625
13.408,55.6522,-0.006042
13.424,55.7312,-0.008459
13.440,55.8163,-0.008459
13.456,55.8928,0.003625
13.473,55.9762,0.003625
13.488,56.0479,-0.002417
13.504,56.1269,-0.001208
13.520,56.2090,-0.004834
13.536,56.2846,-0.007251
13.553,56.3720,-0.003625
13.568,56.4447,-0.004834
13.584,56.5222,-0.001208
13.600,56.6003,-0.003625
13.616,56.6828,-0.004834
13.632,56.7653,-0.004834
13.648,56.8404,-0.006042
13.664,56.9170,-0.002417
13.681,57.0034,0.001208
13.696,57.0776,0.001208
13.712,57.1561,-0.004834
13.728,57.2332,-0.001208
13.744,57.3177,-0.001208
13.760,57.3942,-0.001208
13.777,57.4743,-0.001208
13.792,57.5494,-0.002417
13.809,57.6333,-0.006042
13.825,57.7139,-0.002417
13.843,57.8043,-0.002417
13.856,57.8646,-0.006042
13.872,57.9466,-0.006042
13.888,58.0271,-0.002417
13.904,58.1042,-0.007251
13.929,58.2283,-0.001208
13.944,58.3003,-0.001208
13.960,58.3814,0.001208
13.976,58.4580,0.001208
13.992,58.5409,0.001208
14.009,58.6225,-0.003625
14.027,58.7144,0.002417
14.041,58.7815,-0.002417
14.056,58.8572,-0.004834
14.072,58.9377,-0.007251
14.088,59.0113,-0.008459
14.104,59.0500,0.058005
14.119,59.0500,-0.001208
14.135,59.0500,-0.010876
14.151,59.0500,-0.003625
14.168,59.0500,-0.002417
14.191,59.0500,-0.007251
14.213,59.0500,0.006042
14.232,59.0500,-0.006042
14.248,59.0500,-0.004834
14.263,59.0500,-0.006042
14.280,59.0500,-0.009668
14.298,59.0500,-0.001208
14.312,59.0500,-0.012084
14.327,59.0500,-0.004834
14.343,59.0500,-0.006042
14.361,59.0500,-0.006042
14.377,59.0500,-0.004834
14.391,59.0500,0.000000
14.408,59.0500,-0.004834
14.423,59.0500,-0.003625
14.439,59.0500,-0.003625
14.456,59.0500,-0.001208
14.473,59.0500,-0.001208
14.487,59.0500,-0.001208
14.504,59.0500,-0.001208
14.519,59.0500,0.000000
14.535,59.0500,-0.006042
14.552,59.0500,-0.003625
14.567,59.0500,-0.004834
14.585,59.0500,-0.008459
14.601,59.0500,-0.002417
14.615,59.0500,-0.001208
14.632,59.0500,0.001208
14.648,59.0500,0.001208
14.663,59.0500,-0.004834
14.679,59.0500,-0.004834
14.697,59.0500,-0.008459
14.711,59.0500,-0.003625
14.728,59.0500,-0.007251
14.743,59.0500,-0.007251
14.760,59.0500,-0.003625
14.775,59.0500,-0.002417
14.793,59.0500,-0.002417
14.807,59.0500,-0.001208
14.823,59.0500,0.003625
14.840,59.0500,0.000000
14.855,59.0500,-0.006042
14.873,59.0500,-0.007251
14.888,59.0500,-0.004834
14.904,59.0500,-0.003625
14.919,59.0500,0.001208
14.935,59.0500,-0.001208
14.952,59.0500,0.000000
14.967,59.0500,-0.001208
14.993,59.0500,-0.004834
15.009,59.0500,-0.004834
15.025,59.0500,-0.002417
15.041,59.0500,-0.003625
15.058,59.0500,-0.001208
15.074,59.0500,-0.001208
15.093,59.0500,-0.001208
15.105,59.0500,-0.003625
15.123,59.0500,0.003625
15.137,59.0500,-0.003625
15.153,59.0500,-0.004834
15.171,59.0500,0.007251
15.187,59.0500,-0.003625
15.203,59.0500,-0.002417
15.217,59.0500,-0.003625
15.233,59.0500,-0.008459
15.250,59.0500,-0.001208
15.265,59.0500,0.000000
15.284,59.0500,0.000000
15.299,59.0500,0.001208
15.314,59.0500,0.001208
15.333,59.0500,-0.003625
15.347,59.0500,-0.007251
15.361,59.0500,-0.002417
15.379,59.0500,-0.001208
15.394,59.0500,-0.004834
15.410,59.0500,0.000000
15.425,59.0500,-0.003625
15.441,59.0500,-0.002417
15.459,59.0500,-0.008459
15.473,59.0500,-0.004834
15.491,59.0500,-0.001208
15.515,59.0500,-0.001208
15.530,59.0500,-0.002417
15.548,59.0500,-0.007251
15.562,59.0500,-0.006042
15.581,59.0500,-0.006042
15.595,59.0500,0.000000
15.610,59.0500,-0.001208
15.626,59.0500,-0.002417
15.642,59.0500,-0.002417
15.658,59.0500,-0.002417
15.674,59.0500,0.003625
15.690,59.0500,0.003625
15.706,59.0500,-0.001208
15.722,59.0500,0.006042
15.738,59.0500,0.000000
15.754,59.0500,-0.004834
15.770,59.0500,-0.004834
15.786,59.0500,0.000000
15.802,59.0500,-0.001208
15.818,59.0500,0.002417
15.834,59.0500,-0.004834
15.850,59.0500,-0.009668
15.866,59.0500,-0.004834
15.883,59.0500,-0.004834
15.898,59.0500,-0.006042
15.917,59.0500,-0.003625
15.930,59.0500,-0.001208
15.947,59.0500,-0.001208
15.962,59.0500,-0.001208
15.981,59.0500,0.002417
15.994,59.0500,-0.006042
16.011,59.0500,-0.006042
16.026,59.0500,0.001208
16.044,59.0500,-0.001208
16.068,59.0500,-0.002417
16.084,59.0500,-0.006042
16.100,59.0500,-0.008459
16.116,59.0500,-0.007251
16.145,59.0500,-0.003625
16.164,59.0500,-0.002417
16.180,59.0500,-0.004834
16.196,59.0500,-0.004834
16.212,59.0500,-0.004834
16.228,59.0500,-0.007251
16.244,59.0500,0.001208
16.260,59.0500,-0.008459
16.276,59.0500,-0.002417
16.292,59.0500,0.000000
16.312,59.0500,-0.007251
16.325,59.0500,-0.006042
16.340,59.0500,-0.004834
16.357,59.0500,-0.006042
16.374,59.0500,0.000000
16.388,59.0500,0.001208
16.404,59.0500,0.000000
16.421,59.0500,-0.008459
16.437,59.0500,-0.004834
16.452,59.0500,-0.003625
16.468,59.0500,-0.007251
16.484,59.0500,-0.002417
16.500,59.0500,-0.002417
16.517,59.0500,0.002417
16.532,59.0500,-0.002417
16.548,59.0500,-0.001208
16.564,59.0500,-0.007251
16.582,59.0500,-0.008459
16.606,59.0500,-0.001208
16.628,59.0500,0.002417
16.647,59.0500,-0.001208
16.662,59.0500,-0.002417
16.677,59.0500,-0.006042
16.694,59.0500,-0.004834
16.708,59.0500,0.002417
16.720,59.0500,0.002417
16.734,59.0500,-0.006042
16.750,59.0500,-0.006042
16.768,59.0500,-0.006042
16.781,59.0500,-0.008459
16.798,59.0500,-0.004834
16.814,59.0500,-0.001208
16.829,59.0500,-0.006042
16.845,59.0500,0.002417
16.861,59.0500,0.002417
16.877,59.0500,-0.003625
16.893,59.0500,-0.004834
16.915,59.0500,-0.004834
16.926,59.0500,-0.001208
16.941,59.0500,0.001208
16.957,59.0500,-0.004834
16.974,59.0500,-0.006042
16.989,59.0500,-0.003625
17.005,59.0500,-0.007251
17.022,59.0500,-0.001208
17.038,59.0500,-0.002417
17.054,59.0500,-0.004834
17.074,59.0500,-0.004834
17.085,59.0500,-0.004834
17.102,59.0500,-0.006042
17.118,59.0500,-0.003625
17.136,59.0500,0.000000
17.160,59.0500,0.000000
17.177,59.0500,0.001208
17.193,59.0500,-0.002417
17.208,59.0500,-0.001208
17.226,59.0500,-0.001208
17.240,59.0500,-0.001208
17.258,59.0500,-0.003625
17.272,59.0500,0.000000
17.288,59.0500,0.000000
17.304,59.0500,-0.001208
17.320,59.0500,-0.006042
17.337,59.0500,-0.002417
17.353,59.0500,-0.001208
17.370,59.0500,-0.003625
17.385,59.0500,-0.001208
17.402,59.0500,-0.001208
17.421,59.0500,-0.002417
17.434,59.0500,-0.004834
17.450,59.0500,-0.007251
17.465,59.0500,-0.002417
17.480,59.0500,-0.004834
17.497,59.0500,0.000000
17.513,59.0500,-0.002417
17.529,59.0500,-0.002417
17.544,59.0500,-0.001208
17.561,59.0500,-0.002417
17.577,59.0500,-0.007251
17.593,59.0500,-0.004834
17.609,59.0500,-0.006042
17.625,59.0500,0.000000
17.645,59.0500,-0.002417
17.656,59.0500,-0.002417
17.683,59.0500,-0.003625
17.701,59.0500,0.002417
17.717,59.0500,0.002417
17.732,59.0500,0.002417
17.750,59.0500,-0.002417
17.765,59.0500,-0.009668
17.780,59.0500,-0.006042
17.797,59.0500,-0.002417
17.813,59.0500,-0.002417
17.828,59.0500,-0.003625
17.846,59.0500,-0.006042
17.860,59.0500,-0.001208
17.876,59.0500,-0.004834
17.892,59.0500,-0.004834
17.908,59.0500,-0.001208
17.923,59.0500,-0.001208
17.940,59.0500,0.002417
17.957,59.0500,-0.001208
17.972,59.0500,-0.003625
17.989,59.0500,-0.002417
18.005,59.0500,-0.002417
18.020,59.0500,-0.001208
18.036,59.0500,-0.001208
18.052,59.0500,0.000000
18.068,59.0500,-0.002417
18.084,59.0500,-0.003625
18.100,59.0500,-0.003625
18.116,59.0500,-0.004834
18.132,59.0500,0.000000
18.148,59.0500,0.000000
18.164,59.0500,0.000000
18.181,59.0500,0.000000
18.196,59.0500,-0.006042
18.214,59.0500,-0.007251
18.238,59.0500,-0.002417
18.254,59.0500,0.001208
18.270,59.0500,0.001208
18.286,59.0500,-0.004834
18.302,59.0500,-0.004834
18.318,59.0500,-0.007251
18.334,59.0500,-0.006042
18.352,59.0500,-0.006042
18.366,59.0500,0.006042
18.382,59.0500,0.003625
18.398,59.0500,0.001208
18.416,59.0500,-0.007251
18.431,59.0500,-0.007251
18.446,59.0500,0.004834
18.462,59.0500,-0.002417
18.478,59.0500,-0.003625
18.494,59.0500,-0.001208
18.510,59.0500,-0.002417
18.526,59.0500,-0.003625
18.542,59.0500,-0.004834
18.558,59.0500,-0.003625
18.574,59.0500,-0.007251
18.592,59.0500,0.001208
18.606,59.0500,-0.006042
18.622,59.0500,-0.006042
18.638,59.0500,-0.004834
18.655,59.0500,-0.004834
18.671,59.0500,-0.004834
18.686,59.0500,-0.003625
18.701,59.0500,0.000000
18.718,59.0500,-0.004834
18.734,59.0500,-0.001208
18.751,59.0500,0.001208
18.776,59.0500,-0.001208
18.791,59.0500,-0.002417
18.806,59.0500,-0.004834
18.822,59.0500,0.002417
18.839,59.0500,-0.003625
18.855,59.0500,0.000000
18.872,59.0500,-0.008459
18.889,59.0500,-0.007251
18.903,59.0500,-0.003625
18.919,59.0500,-0.007251
18.935,59.0500,-0.007251
18.951,59.0500,-0.001208
18.966,59.0500,-0.003625
18.983,59.0500,-0.006042
18.999,59.0500,-0.002417
19.014,59.0500,-0.002417
19.031,59.0500,-0.006042
19.046,59.0500,0.002417
19.062,59.0500,0.002417
19.079,59.0500,0.002417
19.095,59.0500,-0.006042
19.112,59.0500,-0.003625
19.127,59.0500,0.001208
19.143,59.0500,0.001208
19.158,59.0500,-0.006042
19.175,59.0500,-0.004834
19.192,59.0500,-0.004834
19.207,59.0500,-0.001208
19.222,59.0500,-0.003625
19.240,59.0500,-0.008459
19.254,59.0500,0.002417
19.271,59.0500,-0.004834
19.286,59.0500,-0.001208
19.302,59.0500,-0.001208
19.319,59.0500,-0.002417
19.334,59.0500,-0.002417
19.350,59.0500,-0.001208
19.367,59.0500,-0.002417
19.382,59.0500,-0.004834
19.398,59.0500,0.002417
19.414,59.0500,-0.003625
19.431,59.0500,0.000000
19.447,59.0500,0.002417
19.463,59.0500,-0.002417
19.480,59.0500,-0.003625
19.495,59.0500,-0.003625
19.511,59.0500,-0.002417
19.526,59.0500,0.000000
19.543,59.0500,-0.003625
19.559,59.0500,0.001208
19.574,59.0500,-0.004834
19.591,59.0500,0.001208
19.606,59.0500,-0.007251
19.629,59.0500,-0.007251
19.652,59.0500,-0.009668
19.671,59.0500,-0.003625
19.686,59.0500,0.000000
19.703,59.0500,-0.003625
19.719,59.0500,-0.007251
19.734,59.0500,0.001208
19.750,59.0500,0.003625
19.768,59.0500,-0.003625
19.782,59.0500,-0.001208
19.801,59.0500,-0.003625
19.824,59.0500,-0.006042
19.840,59.0500,-0.001208
19.856,59.0500,-0.002417
19.872,59.0500,-0.002417
19.888,59.0500,0.001208
19.904,59.0500,-0.004834
19.920,59.0500,-0.002417
19.936,59.0500,-0.001208
19.952,59.0500,0.000000
19.968,59.0500,0.001208
19.984,59.0500,-0.002417
20.000,59.0500,-0.002417
20.016,59.0500,0.000000
20.032,59.0500,0.000000
20.048,59.0500,-0.001208
20.065,59.0500,-0.001208
20.080,59.0500,-0.001208
20.100,59.0500,0.002417
20.112,59.0500,0.000000
20.128,59.0500,-0.009668
20.144,59.0500,-0.003625
20.160,59.0500,0.000000
20.177,59.0500,0.000000
20.193,59.0500,0.000000
20.209,59.0500,-0.007251
20.224,59.0500,-0.002417
20.241,59.0500,-0.002417
20.256,59.0500,0.001208
20.272,59.0500,-0.003625
20.288,59.0500,0.001208
20.304,59.0500,-0.008459
20.320,59.0500,-0.006042
20.335,59.0500,-0.004834
20.359,59.0500,-0.004834
20.375,59.0500,-0.006042
20.391,59.0500,-0.006042
20.406,59.0500,-0.002417
20.424,59.0500,-0.002417
20.440,59.0500,-0.001208
20.455,59.0500,-0.004834
20.472,59.0500,-0.004834
20.488,59.0500,-0.001208
20.503,59.0500,-0.001208
20.519,59.0500,-0.001208
20.537,59.0500,-0.002417
20.551,59.0500,-0.002417
20.567,59.0500,-0.006042
20.583,59.0500,-0.004834
20.599,59.0500,0.001208
20.615,59.0500,-0.002417
20.631,59.0500,-0.004834
20.647,59.0500,0.001208
20.663,59.0500,0.001208
20.679,59.0500,-0.001208
20.695,59.0500,-0.006042
20.710,59.0500,-0.003625
20.727,59.0500,-0.001208
20.744,59.0500,-0.006042
20.763,59.0500,-0.006042
20.775,59.0500,-0.002417
20.791,59.0500,-0.006042
20.807,59.0500,-0.006042
20.823,59.0500,-0.006042
20.839,59.0500,-0.003625
20.855,59.0500,-0.004834
20.871,59.0500,-0.009668
20.887,59.0500,-0.004834
20.909,59.0500,-0.004834
20.927,59.0500,-0.002417
20.941,59.0500,-0.006042
20.957,59.0500,0.002417
20.974,59.0500,-0.002417
20.990,59.0500,-0.002417
21.008,59.0500,-0.002417
21.021,59.0500,-0.006042
21.037,59.0500,-0.007251
21.053,59.0500,0.000000
21.069,59.0500,-0.002417
21.086,59.0500,-0.002417
21.107,59.0500,-0.003625
21.118,59.0500,0.000000
21.133,59.0500,0.002417
21.150,59.0500,0.000000
21.165,59.0500,0.000000
21.182,59.0500,0.001208
21.197,59.0500,-0.001208
21.214,59.0500,-0.002417
21.230,59.0500,-0.003625
21.246,59.0500,-0.003625
21.262,59.0500,-0.003625
21.278,59.0500,-0.003625
21.295,59.0500,0.000000
21.313,59.0500,-0.003625
21.325,59.0500,-0.002417
21.341,59.0500,-0.002417
21.357,59.0500,0.000000
21.373,59.0500,-0.002417
21.389,59.0500,-0.002417
21.406,59.0500,-0.006042
21.422,59.0500,-0.007251
21.437,59.0500,-0.002417
21.460,59.0500,0.000000
21.476,59.0500,-0.002417
21.492,59.0500,-0.002417
21.508,59.0500,-0.002417
21.525,59.0500,-0.006042
21.541,59.0500,-0.006042
21.559,59.0500,-0.006042
21.572,59.0500,-0.003625
21.588,59.0500,-0.001208
21.604,59.0500,0.001208
21.620,59.0500,-0.002417
21.636,59.0500,0.001208
21.653,59.0500,-0.007251
21.668,59.0500,-0.002417
21.684,59.0500,-0.003625
21.701,59.0500,-0.004834
21.716,59.0500,0.003625
21.733,59.0500,0.002417
21.748,59.0500,-0.004834
21.765,59.0500,-0.002417
21.780,59.0500,0.000000
21.796,59.0500,-0.007251
21.813,59.0500,-0.007251
21.828,59.0500,-0.001208
21.844,59.0500,0.000000
21.860,59.0500,-0.006042
21.878,59.0500,-0.002417
21.892,59.0500,-0.003625
21.908,59.0500,0.000000
21.924,59.0500,0.004834
21.940,59.0500,0.004834
21.957,59.0500,0.000000
21.972,59.0500,-0.003625
21.995,59.0500,-0.008459
22.009,59.0500,-0.004834
22.025,59.0500,-0.001208
22.041,59.0500,-0.006042
22.057,59.0500,-0.002417
22.073,59.0500,0.000000
22.089,59.0500,-0.003625
22.105,59.0500,-0.001208
22.121,59.0500,-0.004834
22.138,59.0500,-0.006042
22.153,59.0500,0.000000
22.170,59.0500,0.001208
22.185,59.0500,-0.003625
22.203,59.0500,0.001208
22.219,59.0500,-0.002417
22.233,59.0500,-0.008459
22.250,59.0500,-0.004834
22.265,59.0500,-0.004834
22.281,59.0500,0.000000
22.297,59.0500,-0.003625
22.313,59.0500,-0.007251
22.329,59.0500,-0.002417
22.346,59.0500,-0.003625
22.361,59.0500,-0.004834
22.379,59.0500,-0.007251
22.396,59.0500,0.001208
22.409,59.0500,0.001208
22.425,59.0500,-0.001208
22.441,59.0500,-0.001208
22.457,59.0500,-0.001208
22.473,59.0500,0.001208
22.489,59.0500,-0.001208
22.505,59.0500,-0.001208
22.528,59.0500,-0.002417
22.544,59.0500,0.001208
22.560,59.0500,-0.002417
22.576,59.0500,-0.004834
22.592,59.0500,-0.004834
22.608,59.0500,-0.004834
22.624,59.0500,0.001208
22.640,59.0500,0.000000
22.656,59.0500,-0.002417
22.672,59.0500,0.000000
22.688,59.0500,-0.010876
22.705,59.0500,-0.001208
22.720,59.0500,-0.001208
22.735,59.0500,-0.006042
22.754,59.0500,-0.003625
22.768,59.0500,0.002417
22.784,59.0500,-0.002417
22.800,59.0500,-0.003625
22.816,59.0500,-0.001208
22.832,59.0500,-0.002417
22.848,59.0500,-0.001208
22.864,59.0500,-0.002417
22.881,59.0500,-0.002417
22.896,59.0500,0.002417
22.912,59.0500,0.000000
22.928,59.0500,-0.004834
22.944,59.0500,-0.002417
22.960,59.0500,-0.002417
22.976,59.0500,0.002417
22.992,59.0500,-0.006042
23.009,59.0500,-0.006042
23.024,59.0500,-0.010876
23.041,59.0500,-0.006042
23.065,59.0500,-0.004834
23.081,59.0500,-0.004834
23.098,59.0500,-0.004834
23.114,59.0500,-0.004834
23.132,59.0500,-0.004834
23.146,59.0500,0.000000
23.161,59.0500,-0.006042
23.178,59.0500,0.000000
23.195,59.0500,0.000000
23.209,59.0500,0.001208
23.227,59.0500,-0.009668
23.241,59.0500,-0.007251
23.258,59.0500,-0.007251
23.273,59.0500,0.001208
23.289,59.0500,-0.001208
23.306,59.0500,-0.003625
23.322,59.0500,-0.004834
23.338,59.0500,-0.001208
23.353,59.0500,-0.004834
23.370,59.0500,-0.006042
23.385,59.0500,-0.004834
23.401,59.0500,-0.003625
23.418,59.0500,0.004834
23.434,59.0500,-0.004834
23.453,59.0500,0.001208
23.465,59.0500,-0.002417
23.482,59.0500,-0.001208
23.497,59.0500,-0.001208
23.514,59.0500,-0.002417
23.529,59.0500,-0.003625
23.545,59.0500,-0.002417
23.561,59.0500,-0.003625
23.591,59.0500,0.000000
23.607,59.0500,0.000000
23.623,59.0500,-0.001208
23.639,59.0500,-0.002417
23.655,59.0500,-0.002417
23.670,59.0500,0.002417
23.691,59.0500,0.002417
23.702,59.0500,-0.002417
23.718,59.0500,0.000000
23.735,59.0500,0.002417
23.750,59.0500,-0.002417
23.766,59.0500,-0.003625
23.783,59.0500,-0.003625
23.798,59.0500,0.003625
23.814,59.0500,0.000000
23.831,59.0500,0.000000
23.847,59.0500,-0.002417
23.862,59.0500,-0.002417
23.880,59.0500,0.006042
23.894,59.0500,-0.009668
23.910,59.0500,0.003625
23.926,59.0500,-0.007251
23.944,59.0500,-0.007251
23.958,59.0500,-0.001208
23.975,59.0500,-0.004834
23.991,59.0500,-0.002417
24.008,59.0500,-0.006042
24.023,59.0500,-0.007251
24.038,59.0500,0.000000
24.056,59.0500,-0.006042
24.071,59.0500,-0.004834
24.091,59.0500,-0.008459
24.114,59.0500,-0.009668
24.130,59.0500,-0.007251
24.146,59.0500,-0.007251
24.162,59.0500,0.000000
24.180,59.0500,-0.008459
24.194,59.0500,-0.001208
24.210,59.0500,0.002417
24.226,59.0500,-0.001208
24.243,59.0500,-0.001208
24.258,59.0500,-0.001208
24.275,59.0500,-0.002417
24.290,59.0500,-0.002417
24.306,59.0500,-0.003625
24.323,59.0500,-0.002417
24.338,59.0500,-0.003625
24.354,59.0500,-0.006042
24.370,59.0500,-0.004834
24.386,59.0500,-0.004834
24.402,59.0500,-0.007251
24.419,59.0500,-0.001208
24.435,59.0500,-0.002417
24.450,59.0500,-0.001208
24.466,59.0500,-0.001208
24.489,59.0500,0.000000
24.499,59.0500,0.000000
24.514,59.0500,-0.003625
24.531,59.0500,0.002417
24.547,59.0500,-0.002417
24.563,59.0500,-0.006042
24.578,59.0500,-0.008459
24.594,59.0500,-0.004834
24.613,59.0500,-0.004834
24.626,59.0500,0.000000
24.642,59.0500,-0.002417
24.658,59.0500,-0.001208
24.681,59.0500,-0.002417
24.696,59.0500,-0.002417
24.712,59.0500,0.000000
24.732,59.0500,-0.002417
24.745,59.0500,0.000000
24.760,59.0500,-0.002417
24.780,59.0500,-0.002417
24.792,59.0500,-0.009668
24.808,59.0500,-0.007251
24.824,59.0500,-0.004834
24.840,59.0500,0.003625
24.856,59.0500,0.002417
24.872,59.0500,0.001208
24.889,59.0500,-0.001208
24.904,59.0500,-0.007251
24.920,59.0500,-0.006042
24.936,59.0500,-0.001208
24.952,59.0500,-0.001208
24.968,59.0500,-0.002417
24.984,59.0500,-0.003625
25.001,59.0500,-0.003625
25.015,59.0500,-0.008459
25.032,59.0500,0.000000
25.048,59.0500,-0.002417
25.064,59.0500,-0.004834
25.081,59.0500,-0.002417
25.096,59.0500,-0.002417
25.112,59.0500,-0.002417
25.129,59.0500,-0.006042
25.145,59.0500,-0.003625
25.161,59.0500,-0.002417
25.176,59.0500,-0.002417
25.192,59.0500,-0.003625
25.214,59.0500,-0.002417
25.230,59.0500,-0.004834
25.247,59.0500,0.001208
25.263,59.0500,-0.002417
25.278,59.0500,-0.001208
25.294,59.0500,-0.003625
25.310,59.0500,-0.001208
25.326,59.0500,-0.004834
25.341,59.0500,-0.002417
25.357,59.0500,-0.004834
25.375,59.0500,-0.001208
25.390,59.0500,-0.002417
25.406,59.0500,-0.006042
25.421,59.0500,-0.006042
25.443,59.0500,0.000000
25.458,59.0500,-0.002417
25.469,59.0500,-0.004834
25.485,59.0500,-0.003625
25.501,59.0500,-0.003625
25.518,59.0500,-0.004834
25.534,59.0500,-0.004834
25.549,59.0500,-0.003625
25.565,59.0500,-0.002417
25.582,59.0500,-0.001208
25.601,59.0500,-0.001208
25.613,59.0500,-0.001208
25.629,59.0500,-0.007251
25.645,59.0500,0.001208
25.662,59.0500,0.001208
25.677,59.0500,-0.002417
25.693,59.0500,-0.006042
25.709,59.0500,-0.008459
25.725,59.0500,0.001208
25.749,59.0500,0.001208
25.766,59.0500,0.001208
25.782,59.0500,0.000000
25.797,59.0500,-0.006042
25.814,58.9929,0.058005
25.830,58.9126,0.058005
25.846,58.8314,-0.006042
25.863,58.7461,-0.006042
25.878,58.6704,0.007251
25.894,58.5821,-0.002417
25.909,58.5095,-0.004834
25.926,58.4242,-0.006042
25.941,58.3455,0.002417
25.957,58.2642,-0.004834
25.974,58.1759,0.000000
25.990,58.0941,-0.002417
26.006,58.0180,-0.004834
26.021,57.9383,-0.012084
26.038,57.8499,-0.002417
26.053,57.7742,-0.002417
26.071,57.6838,-0.002417
26.085,57.6107,0.003625
26.102,57.5239,0.003625
26.119,57.4386,-0.002417
26.137,57.3456,-0.001208
26.149,57.2838,0.003625
26.166,57.1954,0.001208
26.182,57.1161,-0.001208
26.198,57.0365,-0.003625
26.213,56.9558,-0.001208
26.231,56.8602,-0.004834
26.246,56.7897,0.000000
26.261,56.7111,-0.003625
26.293,56.5501,0.001208
26.309,56.4668,-0.003625
26.324,56.3896,-0.001208
26.340,56.3084,-0.007251
26.356,56.2206,-0.006042
26.373,56.1382,-0.006042
26.388,56.0616,-0.004834
26.406,55.9697,0.001208
26.420,55.8991,-0.004834
26.436,55.8179,-0.002417
26.455,55.7219,-0.006042
26.469,55.6519,-0.007251
26.484,55.5701,-0.002417
26.500,55.4888,-0.002417
26.517,55.4010,0.001208
26.532,55.3280,-0.003625
26.549,55.2395,-0.003625
26.564,55.1644,-0.003625
26.581,55.0776,-0.003625
26.596,55.0004,-0.006042
26.615,54.8992,-0.006042
26.628,54.8365,0.000000
26.644,54.7546,-0.003625
26.660,54.6714,-0.003625
26.676,54.5911,-0.002417
26.693,54.5048,-0.004834
26.709,54.4246,-0.001208
26.724,54.3460,-0.003625
26.740,54.2662,-0.001208
26.764,54.1395,-0.001208
26.784,54.0374,-0.002417
26.804,53.9362,-0.001208
26.823,53.8422,0.002417
26.846,53.7200,-0.001208
26.862,53.6409,-0.001208
26.878,53.5606,-0.002417
26.894,53.4799,-0.007251
26.910,53.3946,-0.008459
26.926,53.3118,-0.008459
26.942,53.2316,-0.003625
26.959,53.1422,-0.001208
26.974,53.0696,-0.003625
26.990,53.0001,-0.008459
27.006,53.0001,-0.027794
27.023,53.0001,-0.027794
27.038,53.0001,-0.003625
27.054,53.0001,0.002417
27.070,53.0001,0.001208
27.086,53.0001,0.000000
27.102,53.0001,-0.008459
27.118,53.0001,-0.009668
27.134,53.0001,-0.003625
27.149,53.0001,-0.006042
27.171,53.0001,-0.006042
27.182,53.0001,0.002417
27.199,53.0001,0.007251
27.214,53.0001,0.002417
27.232,53.0001,0.002417
27.247,53.0001,0.001208
27.262,53.0001,0.004834
27.278,53.0001,0.002417
27.294,53.0001,0.000000
27.310,53.0001,-0.010876
27.326,53.0001,-0.003625
27.342,53.0001,-0.003625
27.358,53.0001,-0.006042
27.381,53.0001,-0.002417
27.397,53.0001,0.001208
27.413,53.0001,-0.001208
27.428,53.0001,-0.008459
27.445,53.0552,-0.078549
27.461,53.1355,-0.003625
27.479,53.2320,-0.001208
27.492,53.2949,-0.012084
27.510,53.3822,0.004834
27.525,53.4588,0.001208
27.541,53.5446,0.001208
27.556,53.6218,0.003625
27.573,53.7056,0.003625
27.589,53.7878,0.000000
27.604,53.8671,-0.007251
27.623,53.9616,-0.002417
27.637,54.0347,-0.008459
27.653,54.1164,-0.002417
27.668,54.1940,-0.002417
27.686,54.2825,-0.003625
27.700,54.3586,-0.007251
27.717,54.4454,-0.009668
27.732,54.5211,0.000000
27.749,54.6079,-0.002417
27.765,54.6876,0.002417
27.783,54.7812,-0.001208
27.797,54.8557,-0.002417
27.813,54.9328,-0.010876
27.830,55.0208,-0.006042
27.844,55.0928,0.003625
27.861,55.1786,0.003625
27.877,55.2594,0.002417
27.892,55.3396,-0.002417
27.920,55.4816,-0.001208
27.936,55.5629,-0.003625
27.953,55.6466,0.000000
27.968,55.7263,0.002417
27.984,55.8117,-0.001208
28.000,55.8904,-0.001208
28.017,55.9782,0.000000
28.033,56.0616,-0.008459
28.049,56.1382,-0.002417
28.069,56.2419,-0.002417
28.080,56.2981,0.002417
28.098,56.3885,-0.010876
28.113,56.4656,-0.010876
28.130,56.5551,-0.002417
28.144,56.6251,-0.006042
28.160,56.7084,-0.006042
28.177,56.7922,0.002417
28.192,56.8698,0.002417
28.208,56.9521,0.001208
28.224,57.0338,-0.009668
28.240,57.1171,-0.009668
28.256,57.1999,-0.001208
28.273,57.2852,-0.002417
28.289,57.3623,0.000000
28.305,57.4498,0.001208
28.320,57.5233,-0.006042
28.336,57.6070,-0.004834
28.353,57.6909,-0.008459
28.368,57.7685,-0.008459
28.385,57.8579,-0.006042
28.400,57.9351,-0.002417
28.418,58.0215,0.001208
28.447,58.1732,-0.001208
28.463,58.2544,-0.008459
28.479,58.3357,-0.001208
28.495,58.4169,0.000000
28.512,58.5068,-0.003625
28.528,58.5856,-0.004834
28.547,58.6842,-0.003625
28.559,58.7449,-0.006042
28.577,58.8344,0.000000
28.592,58.9115,-0.006042
28.610,58.9991,-0.004834
28.624,59.0001,0.053172
28.640,59.0001,0.027794
28.656,59.0001,-0.002417
28.671,59.0001,0.000000
28.688,59.0001,-0.002417
28.703,59.0001,-0.002417
28.720,59.0001,-0.001208
28.735,59.0001,0.003625
28.752,59.0001,0.003625
28.767,59.0001,-0.004834
28.784,59.0001,-0.013293
28.805,59.0001,-0.013293
28.815,59.0001,-0.001208
28.831,59.0001,0.001208
28.847,59.0001,0.002417
28.864,59.0001,-0.001208
28.879,59.0001,-0.003625
28.896,59.0001,-0.006042
28.911,59.0001,-0.006042
28.927,59.0001,0.000000
28.943,59.0001,-0.004834
28.959,59.0001,-0.002417
28.982,59.0001,0.000000
28.998,59.0001,-0.006042
29.014,59.0001,-0.002417
29.030,59.0001,-0.006042
29.046,59.0001,-0.002417
29.063,59.0001,-0.003625
29.079,59.0001,-0.001208
29.094,59.0001,-0.001208
29.110,59.0001,-0.004834
29.126,59.0001,-0.001208
29.143,59.0001,-0.001208
29.159,59.0001,-0.007251
29.174,59.0001,-0.008459
29.193,59.0001,-0.008459
29.206,59.0001,0.001208
29.223,59.0001,0.001208
29.239,59.0001,-0.003625
29.254,59.0001,-0.001208
29.270,59.0001,-0.007251
29.287,59.0001,-0.003625
29.302,59.0001,-0.003625
29.319,59.0001,-0.001208
29.334,59.0001,-0.004834
29.350,59.0001,-0.004834
29.366,59.0001,-0.003625
29.382,59.0001,-0.003625
29.398,59.0001,-0.002417
29.414,59.0001,0.002417
29.430,59.0001,0.001208
29.446,59.0001,-0.003625
29.463,59.0001,-0.007251
29.478,59.0001,-0.003625
29.494,59.0001,-0.004834
29.510,59.0001,-0.002417
29.532,59.0001,-0.002417
29.548,59.0001,0.000000
29.564,59.0001,-0.004834
29.579,59.0001,0.003625
29.596,59.0001,-0.002417
29.612,59.0001,-0.007251
29.627,59.0001,-0.001208
29.645,59.0001,-0.002417
29.660,59.0001,-0.002417
29.675,59.0001,-0.008459
29.692,59.0001,-0.008459
29.708,59.0001,-0.007251
29.725,59.0001,0.001208
29.739,59.0001,0.000000
29.756,59.0001,0.002417
29.774,59.0001,0.003625
29.789,59.0001,-0.004834
29.804,59.0001,0.001208
29.820,59.0001,0.000000
29.837,59.0001,-0.004834
29.852,59.0001,-0.003625
29.867,59.0001,-0.001208
29.883,59.0001,0.001208
29.899,59.0001,-0.007251
29.915,59.0001,-0.009668
29.933,59.0001,-0.002417
29.948,59.0001,-0.010876
29.964,59.0001,-0.006042
29.979,59.0001,0.000000
29.996,59.0001,0.000000
30.011,59.0001,-0.001208
30.028,59.0001,-0.008459
30.057,59.0001,-0.007251
30.073,59.0001,-0.006042
30.088,59.0001,0.003625
30.104,59.0001,0.002417
30.121,59.0001,0.001208
30.137,59.0001,-0.001208
30.155,59.0001,-0.001208
30.168,59.0001,-0.003625
30.185,59.0001,-0.002417
30.200,59.0001,-0.001208
30.216,59.0001,-0.002417
30.233,59.0001,-0.002417
30.249,59.0001,-0.002417
30.268,59.0001,0.003625
30.283,59.0001,0.008459
30.297,59.0001,0.000000
30.312,59.0001,-0.003625
30.328,59.0001,-0.002417
30.345,59.0001,-0.002417
30.361,59.0001,-0.010876
30.376,59.0001,-0.009668
30.392,59.0001,-0.002417
30.409,59.0001,0.000000
30.424,59.0001,0.000000
30.440,59.0001,-0.002417
30.458,59.0001,0.001208
30.472,59.0001,0.002417
30.488,59.0001,0.000000
30.504,59.0001,-0.001208
30.522,59.0001,-0.001208
30.537,59.0001,-0.002417
30.555,59.0001,-0.002417
30.579,59.0001,-0.002417
30.596,59.0001,-0.009668
30.611,59.0001,-0.009668
30.627,59.0001,-0.001208
30.644,59.0001,-0.001208
30.659,59.0001,-0.002417
30.678,59.0001,-0.001208
30.691,59.0001,-0.001208
30.711,59.0001,-0.002417
30.723,59.0001,-0.002417
30.739,59.0001,-0.003625
30.756,59.0001,-0.001208
30.772,59.0001,-0.001208
30.788,59.0001,-0.004834
30.803,59.0001,-0.004834
30.819,59.0001,-0.006042
30.835,59.0001,-0.006042
30.851,59.0001,-0.007251
30.867,59.0001,-0.001208
30.883,59.0001,-0.003625
30.899,59.0001,-0.004834
30.915,59.0001,-0.004834
30.931,59.0001,-0.003625
30.947,59.0001,0.003625
30.963,59.0001,-0.001208
30.979,59.0001,-0.001208
30.996,59.0001,0.002417
31.011,59.0001,-0.001208
31.027,59.0001,-0.002417
31.043,59.0001,-0.002417
31.062,59.0001,0.000000
31.075,59.0001,-0.003625
31.091,59.0001,-0.004834
31.107,59.0001,0.002417
31.130,59.0001,-0.001208
31.146,59.0001,-0.004834
31.162,59.0001,-0.002417
31.178,59.0001,-0.003625
31.195,59.0001,-0.002417
31.211,59.0001,-0.002417
31.226,59.0001,0.000000
31.242,59.0001,-0.006042
31.259,59.0001,-0.006042
31.275,59.0001,0.002417
31.290,59.0001,-0.004834
31.306,59.0001,-0.002417
31.323,59.0001,-0.002417
31.339,59.0001,-0.003625
31.354,59.0001,-0.004834
31.370,59.0001,-0.002417
31.386,59.0001,-0.004834
31.402,59.0001,-0.008459
31.418,59.0001,-0.004834
31.434,59.0001,-0.003625
31.450,59.0001,-0.001208
31.466,59.0001,-0.006042
31.482,59.0001,-0.006042
31.498,59.0001,-0.008459
31.514,59.0001,0.000000
31.530,59.0001,-0.001208
31.546,59.0001,-0.001208
31.562,59.0001,-0.002417
31.578,59.0001,-0.004834
31.594,59.0001,-0.002417
31.610,59.0001,-0.007251
31.628,59.0001,-0.007251
31.642,59.0001,0.001208
31.658,59.0001,-0.003625
31.674,59.0001,-0.003625
31.690,59.0001,-0.003625
31.706,59.0001,-0.007251
31.722,59.0001,-0.008459
31.738,59.0001,-0.003625
31.755,59.0001,0.001208
31.770,59.0001,0.001208
31.786,59.0001,0.001208
31.802,59.0001,-0.004834
31.818,59.0001,-0.001208
31.834,59.0001,-0.006042
31.849,59.0001,-0.006042
31.866,59.0001,-0.001208
31.883,59.0001,-0.001208
31.897,59.0001,-0.002417
31.914,59.0001,-0.006042
31.930,59.0001,-0.006042
31.946,59.0001,-0.002417
31.961,59.0001,-0.001208
31.983,59.0001,-0.003625
31.996,59.0001,-0.008459
32.010,59.0001,0.000000
32.025,59.0001,0.002417
32.042,59.0001,-0.002417
32.058,59.0001,-0.003625
32.073,59.0001,-0.004834
32.089,59.0001,-0.004834
32.105,59.0001,-0.004834
32.121,59.0001,-0.006042
32.137,59.0001,-0.001208
32.154,59.0001,0.000000
32.170,59.0001,-0.004834
32.186,59.0001,-0.007251
32.214,59.0001,-0.003625
32.230,59.0001,0.001208
32.247,59.0001,-0.002417
32.262,59.0001,-0.002417
32.279,59.0001,-0.003625
32.295,59.0001,-0.001208
32.312,59.0001,0.000000
32.327,59.0001,-0.004834
32.343,59.0001,-0.004834
32.358,59.0001,-0.007251
32.374,59.0001,0.002417
32.391,59.0001,-0.003625
32.407,59.0001,-0.002417
32.422,59.0001,-0.002417
32.438,59.0001,-0.003625
32.455,59.0001,-0.002417
32.471,59.0001,-0.006042
32.486,59.0001,-0.009668
32.502,59.0001,-0.006042
32.519,59.0001,-0.002417
32.535,59.0001,0.002417
32.550,59.0001,-0.002417
32.567,59.0001,-0.006042
32.583,59.0001,-0.010876
32.602,59.0001,-0.010876
32.615,59.0001,0.001208
32.630,59.0001,0.001208
32.647,59.0001,0.000000
32.664,59.0001,0.000000
32.679,59.0001,-0.004834
32.694,59.0001,-0.002417
32.710,59.0001,-0.006042
32.742,59.0001,-0.006042
32.758,59.0001,-0.002417
32.773,59.0001,-0.002417
32.789,59.0001,0.004834
32.806,59.0001,-0.002417
32.821,59.0001,-0.002417
32.840,59.0001,-0.002417
32.856,59.0001,-0.006042
32.869,59.0001,-0.006042
32.885,59.0001,-0.001208
32.901,59.0001,-0.008459
32.917,59.0001,-0.003625
32.933,59.0001,-0.003625
32.949,59.0001,0.001208
32.966,59.0001,-0.007251
32.982,59.0001,-0.003625
32.997,59.0001,-0.003625
33.013,59.0001,-0.003625
33.032,59.0001,-0.003625
33.046,59.0001,-0.003625
33.061,59.0001,0.001208
33.079,59.0001,0.001208
33.094,59.0001,-0.006042
33.110,59.0001,-0.001208
33.127,59.0001,-0.003625
33.141,59.0001,-0.003625
33.157,59.0001,-0.002417
33.173,59.0001,0.001208
33.193,59.0001,0.001208
33.205,59.0001,0.000000
33.227,59.0001,0.000000
33.237,59.0001,0.000000
33.253,59.0001,-0.004834
33.269,59.0001,-0.004834
33.293,59.0001,-0.003625
33.309,59.0001,-0.001208
33.325,59.0001,0.002417
33.341,59.0001,-0.003625
33.357,59.0001,-0.007251
33.373,59.0001,-0.007251
33.390,59.0001,-0.004834
33.405,59.0001,-0.001208
33.421,59.0001,-0.001208
33.437,59.0001,0.001208
33.453,59.0001,0.001208
33.470,59.0001,0.000000
33.485,59.0001,-0.004834
33.501,59.0001,-0.001208
33.517,59.0001,-0.003625
33.533,59.0001,-0.003625
33.549,59.0001,-0.003625
33.567,59.0001,0.002417
33.581,59.0001,-0.001208
33.597,59.0001,-0.003625
33.613,59.0001,-0.007251
33.629,59.0001,-0.003625
33.646,59.0001,0.000000
33.661,59.0001,0.003625
33.678,59.0001,-0.003625
33.693,59.0001,-0.007251
33.711,59.0001,-0.009668
33.725,59.0001,-0.007251
33.741,59.0001,-0.003625
33.757,59.0001,-0.002417
33.772,59.0001,-0.002417
33.788,59.0001,0.003625
33.805,59.0001,-0.008459
33.829,59.0001,-0.004834
33.844,59.0001,-0.004834
33.861,59.0001,-0.006042
33.876,59.0001,-0.001208
33.893,59.0001,-0.003625
33.908,59.0001,-0.002417
33.923,59.0001,-0.004834
33.939,59.0001,-0.007251
33.957,59.0001,-0.004834
33.971,59.0001,-0.007251
33.989,59.0001,-0.001208
34.004,59.0001,-0.002417
34.020,59.0001,0.000000
34.037,59.0001,-0.007251
34.054,59.0001,-0.007251
34.067,59.0001,0.000000
34.083,59.0001,-0.002417
34.100,59.0001,-0.003625
34.116,59.0001,-0.001208
34.131,59.0001,0.003625
34.147,59.0001,-0.001208
34.164,59.0001,0.000000
34.179,59.0001,-0.002417
34.196,59.0001,-0.001208
34.211,59.0001,0.002417
34.228,59.0001,-0.001208
34.245,59.0001,0.003625
34.259,59.0001,-0.007251
34.275,59.0001,0.000000
34.291,59.0001,-0.002417
34.309,59.0001,-0.002417
34.324,59.0001,0.000000
34.344,59.0001,0.003625
34.367,59.0001,-0.008459
34.383,59.0001,-0.004834
34.399,59.0001,-0.001208
34.415,59.0001,-0.001208
34.432,59.0001,0.000000
34.447,59.0001,0.001208
34.463,59.0001,0.002417
34.480,59.0001,-0.002417
34.496,59.0001,0.000000
34.512,59.0001,-0.002417
34.527,59.0001,-0.004834
34.544,59.0001,-0.004834
34.560,59.0001,-0.007251
34.575,59.0001,-0.002417
34.592,59.0001,-0.002417
34.609,59.0001,0.002417
34.624,59.0001,0.001208
34.639,59.0001,-0.003625
34.657,59.0001,-0.003625
34.671,59.0001,-0.003625
34.688,59.0001,-0.001208
34.703,59.0001,-0.008459
34.720,59.0001,-0.003625
34.736,59.0001,-0.002417
34.751,59.0001,0.000000
34.768,59.0001,-0.004834
34.784,59.0001,0.000000
34.799,59.0001,0.001208
34.817,59.0001,-0.001208
34.832,59.0001,-0.002417
34.847,59.0001,-0.004834
34.863,59.0001,-0.001208
34.879,59.0001,-0.001208
34.902,59.0001,-0.001208
34.917,59.0001,-0.009668
34.933,59.0001,-0.007251
34.949,59.0001,-0.003625
34.965,59.0001,-0.003625
34.981,59.0001,-0.003625
34.997,59.0001,-0.006042
35.014,59.0001,-0.008459
35.030,59.0001,-0.008459
35.046,59.0001,-0.006042
35.065,59.0001,-0.006042
35.077,59.0001,-0.007251
35.093,59.0001,0.003625
35.109,59.0001,0.003625
35.125,59.0001,0.004834
35.141,59.0001,-0.007251
35.157,59.0001,-0.009668
35.174,59.0001,-0.003625
35.191,59.0001,-0.003625
35.206,59.0001,0.004834
35.221,59.0001,0.004834
35.237,59.0001,-0.001208
35.253,59.0001,-0.004834
35.269,59.0001,-0.004834
35.285,59.0001,-0.001208
35.302,59.0001,-0.001208
35.317,59.0001,0.002417
35.335,59.0001,0.002417
35.349,59.0001,-0.001208
35.366,59.0001,-0.001208
35.381,59.0001,-0.001208
35.400,59.0001,-0.008459
35.423,59.0001,-0.004834
35.439,59.0001,-0.002417
35.455,59.0001,-0.006042
35.471,59.0001,-0.006042
35.487,59.0001,-0.001208
35.503,59.0001,-0.007251
35.522,59.0001,-0.007251
35.535,59.0001,-0.006042
35.551,59.0001,-0.006042
35.567,59.0001,0.003625
35.582,59.0001,0.002417
35.599,59.0001,-0.003625
35.615,59.0001,-0.004834
35.631,59.0001,-0.002417
35.647,59.0001,-0.007251
35.664,59.0001,-0.002417
35.679,59.0001,0.001208
35.695,59.0001,0.000000
35.711,59.0001,-0.001208
35.728,59.0001,-0.006042
35.744,59.0001,0.007251
35.760,59.0001,0.007251
35.774,59.0001,0.000000
35.791,59.0001,0.000000
35.807,59.0001,0.001208
35.824,59.0001,-0.002417
35.840,59.0001,-0.002417
35.856,59.0001,-0.002417
35.871,59.0001,-0.002417
35.887,59.0001,-0.002417
35.903,59.0001,-0.004834
35.919,59.0001,0.000000
35.935,59.0001,0.001208
35.958,59.0001,-0.004834
35.974,59.0001,0.001208
35.990,59.0001,0.000000
36.005,59.0001,0.000000
36.022,59.0001,0.000000
36.038,59.0001,-0.001208
36.054,59.0001,-0.008459
36.070,59.0001,-0.009668
36.087,59.0001,0.000000
36.102,59.0001,0.000000
36.117,59.0001,-0.004834
36.134,59.0001,-0.001208
36.150,59.0001,-0.001208
36.166,59.0001,-0.001208
36.182,59.0001,-0.003625
36.198,59.0001,-0.001208
36.214,59.0001,0.001208
36.229,59.0001,0.000000
36.246,59.0001,-0.004834
36.262,59.0001,-0.002417
36.277,59.0001,-0.006042
36.296,59.0001,-0.006042
36.310,59.0001,-0.002417
36.326,59.0001,-0.002417
36.342,59.0001,-0.002417
36.359,59.0001,-0.001208
36.374,59.0001,-0.004834
36.390,59.0001,-0.004834
36.406,59.0001,-0.007251
36.422,59.0001,-0.008459
36.437,59.0001,-0.007251
36.454,59.0001,0.002417
36.485,59.0001,-0.001208
36.501,59.0001,-0.001208
36.517,59.0001,-0.003625
36.532,59.0001,-0.001208
36.550,59.0001,-0.001208
36.565,59.0001,0.000000
36.580,59.0001,0.003625
36.597,59.0001,0.003625
36.613,59.0001,0.004834
36.629,59.0001,0.001208
36.644,59.0001,0.000000
36.661,59.0001,0.000000
36.676,59.0001,0.000000
36.693,59.0001,0.001208
36.708,59.0001,-0.003625
36.725,59.0001,-0.003625
36.740,59.0001,-0.001208
36.757,59.0001,0.003625
36.774,59.0001,0.003625
36.788,59.0001,0.000000
36.805,59.0001,-0.001208
36.821,59.0001,-0.008459
36.837,59.0001,-0.004834
36.853,59.0001,-0.003625
36.868,59.0001,-0.001208
36.885,59.0001,0.003625
36.900,59.0001,-0.004834
36.918,59.0001,0.002417
36.934,59.0001,0.001208
36.949,59.0001,-0.009668
36.964,59.0001,-0.002417
36.982,59.0001,-0.004834
37.007,59.0001,-0.007251
37.023,59.0001,-0.003625
37.040,59.0001,-0.008459
37.055,59.0001,-0.002417
37.072,59.0001,0.001208
37.087,59.0001,0.003625
37.103,59.0001,-0.003625
37.119,59.0001,-0.003625
37.135,59.0001,-0.002417
37.151,59.0001,-0.002417
37.167,59.0001,-0.003625
37.188,59.0001,-0.003625
37.199,59.0001,-0.004834
37.215,59.0001,-0.002417
37.231,59.0001,-0.002417
37.247,59.0001,-0.003625
37.263,59.0001,-0.004834
37.279,59.0001,-0.001208
37.295,59.0001,-0.004834
37.311,59.0001,-0.004834
37.327,59.0001,0.001208
37.344,59.0001,-0.002417
37.365,59.0001,-0.002417
37.375,59.0001,-0.004834
37.391,59.0001,-0.003625
37.408,59.0001,-0.007251
37.423,59.0001,0.000000
37.439,59.0001,-0.003625
37.455,59.0001,-0.002417
37.473,59.0001,-0.002417
37.487,59.0001,0.000000
37.503,59.0001,-0.001208
37.532,59.0001,-0.003625
37.548,59.0001,-0.002417
37.564,59.0001,-0.003625
37.580,59.0001,-0.003625
37.597,59.0001,-0.002417
37.612,59.0001,-0.003625
37.632,59.0001,-0.003625
37.644,59.0001,-0.006042
37.660,59.0001,-0.006042
37.676,59.0001,-0.007251
37.692,59.0001,-0.007251
37.708,59.0001,0.000000
37.724,59.0001,-0.008459
37.740,59.0001,-0.004834
37.756,59.0001,-0.002417
37.773,59.0001,0.001208
37.788,59.0001,-0.001208
37.804,59.0001,-0.001208
37.820,59.0001,0.000000
37.836,59.0001,-0.006042
37.852,59.0001,-0.007251
37.868,59.0001,0.000000
37.885,59.0001,-0.001208
37.900,59.0001,-0.001208
37.916,59.0001,0.000000
37.932,59.0001,-0.003625
37.949,59.0001,-0.004834
37.964,59.0001,-0.002417
37.981,59.0001,-0.002417
37.996,59.0001,-0.003625
38.014,59.0001,-0.002417
38.028,59.0001,-0.003625
38.043,59.0001,-0.004834
38.075,59.0001,-0.007251
38.091,59.0001,0.002417
38.106,59.0001,0.000000
38.123,59.0001,0.000000
38.139,59.0001,-0.008459
38.155,59.0001,-0.009668
38.171,59.0001,-0.009668
38.187,59.0001,0.000000
38.203,59.0001,0.000000
38.219,59.0001,-0.004834
38.235,59.0001,0.000000
38.252,59.0001,0.000000
38.267,59.0001,0.001208
38.287,59.0001,-0.002417
38.301,59.0001,-0.002417
38.315,59.0001,-0.003625
38.330,59.0001,-0.006042
38.346,59.0001,-0.003625
38.366,59.0001,-0.003625
38.378,59.0001,-0.002417
38.394,59.0001,-0.010876
38.412,59.0001,-0.010876
38.427,59.0001,-0.002417
38.442,59.0001,-0.007251
38.460,59.0001,-0.006042
38.478,59.0001,-0.003625
38.490,59.0001,-0.007251
38.506,59.0001,-0.003625
38.522,59.0001,-0.003625
38.538,59.0001,-0.006042
38.554,59.0001,0.000000
38.570,59.0001,-0.002417
38.595,59.0001,-0.003625
38.612,59.0001,0.000000
38.628,59.0001,-0.007251
38.643,59.0001,-0.007251
38.660,59.0001,0.001208
38.676,59.0001,0.001208
38.691,59.0001,0.003625
38.708,59.0001,-0.004834
38.724,59.0001,-0.001208
38.741,59.0001,-0.004834
38.755,59.0001,-0.004834
38.771,59.0001,-0.004834
38.788,59.0001,-0.006042
38.803,59.0001,-0.001208
38.821,59.0001,0.000000
38.835,59.0001,0.001208
38.854,59.0001,-0.001208
38.867,59.0001,-0.002417
38.883,59.0001,0.000000
38.899,59.0001,0.000000
38.915,59.0001,-0.007251
38.932,59.0001,-0.003625
38.948,59.0001,-0.001208
38.967,59.0001,-0.001208
38.981,59.0001,-0.003625
38.996,59.0001,-0.003625
39.012,59.0001,0.000000
39.027,59.0001,0.001208
39.045,59.0001,-0.002417
39.060,59.0001,0.001208
39.075,59.0001,0.003625
39.092,59.0001,0.002417
39.107,59.0001,-0.001208
39.124,59.0001,0.001208
39.139,59.0001,0.000000
39.155,59.0001,-0.008459
39.171,59.0001,-0.007251
39.187,59.0001,-0.010876
39.204,59.0001,0.000000
39.221,59.0001,0.000000
39.235,59.0001,0.003625
39.252,59.0001,0.003625
39.270,59.0001,-0.003625
39.283,59.0001,-0.010876
39.300,59.0001,-0.010876
39.315,59.0001,-0.002417
39.332,59.0001,-0.002417
39.347,59.0001,-0.003625
39.365,59.0001,-0.003625
39.379,59.0001,-0.001208
39.395,59.0001,-0.002417
39.413,59.0001,-0.002417
39.428,59.0001,-0.004834
39.443,59.0001,-0.002417
39.459,59.0001,-0.002417
39.477,59.0001,-0.002417
39.491,59.0001,-0.007251
39.507,59.0001,-0.006042
39.523,59.0001,-0.004834
39.540,59.0001,-0.004834
39.555,59.0001,-0.003625
39.572,59.0001,-0.002417
39.587,59.0001,-0.002417
39.603,59.0001,-0.002417
39.620,59.0001,0.000000
39.635,59.0001,-0.004834
39.664,59.0001,0.001208
39.680,59.0001,-0.001208
39.696,59.0001,0.000000
39.712,59.0001,0.000000
39.728,59.0001,0.002417
39.744,59.0001,-0.008459
39.760,59.0001,-0.013293
39.776,59.0001,-0.004834
39.793,59.0001,0.002417
39.808,59.0001,-0.007251
39.826,59.0001,-0.001208
39.840,59.0001,0.003625
39.856,59.0001,-0.001208
39.872,59.0001,-0.001208
39.888,59.0001,0.000000
39.909,59.0001,0.001208
39.920,59.0001,-0.002417
39.936,59.0001,-0.002417
39.952,59.0001,-0.006042
39.968,59.0001,-0.002417
39.985,59.0001,0.004834
40.000,59.0001,-0.003625
40.016,59.0001,0.004834
40.032,59.0001,0.004834
40.048,59.0001,-0.003625
40.064,59.0001,-0.004834
40.081,59.0001,-0.001208
40.096,59.0001,-0.006042
40.114,59.0001,-0.006042
40.127,59.0001,0.000000
40.144,59.0001,-0.002417
40.160,59.0001,-0.002417
40.176,59.0001,-0.008459
40.206,59.0001,-0.002417
40.221,59.0001,-0.004834
40.237,59.0001,0.001208
40.253,59.0001,0.001208
40.269,58.9679,-0.003625
40.285,58.8862,-0.007251
40.303,58.7947,-0.007251
40.318,58.7180,-0.008459
40.333,58.6399,0.006042
40.349,58.5611,0.006042
40.365,58.4784,-0.003625
40.381,58.3967,-0.003625
40.397,58.3164,-0.001208
40.413,58.2357,-0.001208
40.429,58.1484,-0.010876
40.445,58.0696,-0.002417
40.460,57.9910,0.000000
40.482,57.8801,-0.007251
40.494,57.8172,0.001208
40.510,57.7401,-0.001208
40.526,57.6574,-0.003625
40.541,57.5771,-0.007251
40.557,57.4985,-0.008459
40.574,57.4111,-0.009668
40.589,57.3370,-0.001208
40.606,57.2501,-0.001208
40.621,57.1700,-0.001208
40.636,57.0923,-0.003625
40.653,57.0075,-0.007251
40.669,56.9191,-0.001208
40.685,56.8450,0.002417
40.700,56.7602,-0.007251
40.730,56.6115,-0.002417
40.746,56.5293,0.001208
40.762,56.4480,-0.004834
40.778,56.3673,-0.007251
40.795,56.2794,-0.003625
40.811,56.1981,0.001208
40.830,56.1005,-0.003625
40.843,56.0342,0.000000
40.858,55.9590,0.001208
40.874,55.8753,0.002417
40.890,55.7945,-0.004834
40.907,55.7097,-0.003625
40.923,55.6300,0.000000
40.938,55.5497,-0.001208
40.960,55.4388,-0.001208
40.971,55.3797,0.001208
40.987,55.3024,-0.001208
41.005,55.2054,-0.001208
41.019,55.1380,-0.001208
41.035,55.0531,0.000000
41.051,54.9734,-0.002417
41.068,54.8897,0.001208
41.083,54.8063,0.001208
41.098,54.7318,-0.007251
41.115,54.6501,0.002417
41.132,54.5606,0.006042
41.147,54.4850,-0.004834
41.163,54.4018,-0.008459
41.178,54.3245,0.002417
41.195,54.2403,0.000000
41.211,54.1533,0.001208
41.226,54.0788,-0.001208
41.254,53.9368,0.001208
41.268,53.8638,0.001208
41.284,53.7825,-0.007251
41.300,53.7013,-0.007251
41.317,53.6129,-0.002417
41.332,53.5362,-0.001208
41.351,53.4401,-0.002417
41.364,53.3742,-0.002417
41.381,53.2869,-0.002417
41.398,53.2041,-0.002417
41.416,53.1070,-0.002417
41.429,53.0396,-0.004834
41.444,52.9630,-0.004834
41.460,52.9501,-0.061631
41.476,52.9501,0.000000
41.492,52.9501,0.000000
41.509,52.9501,0.003625
41.524,52.9501,-0.001208
41.542,52.9501,-0.002417
41.557,52.9501,-0.007251
41.572,52.9501,0.002417
41.588,52.9501,-0.001208
41.605,52.9501,0.001208
41.621,52.9501,-0.003625
41.636,52.9501,-0.001208
41.652,52.9501,-0.004834
41.670,52.9501,-0.001208
41.684,52.9501,0.002417
41.700,52.9501,0.003625
41.716,52.9501,-0.002417
41.733,52.9501,-0.002417
41.748,52.9501,0.000000
41.767,52.9501,-0.007251
41.791,52.9501,-0.008459
41.807,52.9501,-0.003625
41.823,52.9501,-0.002417
41.839,52.9501,-0.006042
41.855,52.9501,0.000000
41.871,52.9501,0.000000
41.887,52.9501,0.002417
41.904,52.9501,-0.001208
41.921,52.9501,-0.001208
41.939,52.9501,-0.001208
41.951,52.9720,-0.008459
41.967,53.0552,-0.024169
41.984,53.1371,-0.007251
42.001,53.2275,-0.003625
42.014,53.2950,0.003625
42.031,53.3813,0.003625
42.047,53.4599,-0.007251
42.063,53.5402,-0.007251
42.083,53.6434,-0.001208
42.095,53.7067,-0.007251
42.111,53.7885,-0.001208
42.127,53.8672,0.001208
42.143,53.9555,-0.006042
42.160,54.0358,0.003625
42.175,54.1134,0.002417
42.192,54.2018,-0.007251
42.207,54.2816,-0.010876
42.223,54.3576,-0.010876
42.238,54.4388,0.001208
42.256,54.5314,0.002417
42.271,54.6075,0.000000
42.291,54.7046,-0.009668
42.314,54.8231,-0.006042
42.330,54.9054,0.000000
42.346,54.9862,-0.004834
42.362,55.0668,-0.004834
42.379,55.1567,-0.004834
42.394,55.2340,0.000000
42.413,55.3314,0.000000
42.426,55.3943,0.003625
42.442,55.4797,0.003625
42.458,55.5573,0.001208
42.475,55.6457,-0.001208
42.491,55.7275,0.003625
42.505,55.8062,-0.008459
42.523,55.8935,-0.007251
42.538,55.9656,-0.004834
42.561,56.0876,-0.007251
42.585,56.2078,-0.001208
42.602,56.2951,-0.002417
42.618,56.3799,-0.006042
42.634,56.4607,-0.004834
42.649,56.5388,-0.003625
42.665,56.6200,-0.004834
42.683,56.7105,0.001208
42.698,56.7871,0.000000
42.713,56.8659,-0.001208
42.730,56.9476,-0.001208
42.747,57.0370,-0.001208
42.762,57.1132,-0.004834
42.778,57.1954,-0.004834
42.795,57.2827,0.000000
42.810,57.3579,0.000000
42.826,57.4386,-0.001208
42.841,57.5182,0.000000
42.862,57.6266,0.002417
42.878,57.7088,-0.004834
42.894,57.7896,-0.004834
42.910,57.8703,-0.004834
42.928,57.9633,-0.004834
42.943,58.0384,-0.002417
42.958,58.1201,-0.003625
42.976,58.2080,-0.006042
42.991,58.2857,-0.004834
43.007,58.3659,-0.003625
43.023,58.4436,-0.003625
43.039,58.5279,-0.003625
43.054,58.6091,-0.003625
43.071,58.6945,-0.003625
43.086,58.7716,-0.009668
43.103,58.8569,-0.009668
43.118,58.9346,-0.002417
43.135,58.9501,0.038670
43.150,58.9501,-0.010876
43.167,58.9501,-0.004834
43.183,58.9501,-0.004834
43.200,58.9501,-0.010876
43.214,58.9501,-0.013293
43.230,58.9501,-0.002417
43.246,58.9501,0.000000
43.262,58.9501,-0.007251
43.283,58.9501,-0.008459
43.296,58.9501,-0.007251
43.311,58.9501,-0.007251
43.326,58.9501,-0.007251
43.344,58.9501,0.000000
43.359,58.9501,-0.002417
43.374,58.9501,0.002417
43.390,58.9501,-0.008459
43.422,58.9501,-0.001208
43.444,58.9501,-0.003625
43.465,58.9501,-0.006042
43.486,58.9501,-0.003625
43.501,58.9501,0.003625
43.517,58.9501,0.004834
43.535,58.9501,-0.006042
43.550,58.9501,-0.003625
43.565,58.9501,0.001208
43.581,58.9501,-0.001208
43.596,58.9501,0.000000
43.613,58.9501,0.000000
43.629,58.9501,-0.002417
