Elapsed Time (s),Position (mm),Force (N)
-0.016,51.6501,-0.002417
0.001,51.6501,0.001208
0.017,51.6501,-0.001208
0.032,51.6501,-0.003625
0.050,51.6501,-0.004834
0.064,51.6501,-0.009668
0.080,51.6501,-0.004834
0.097,51.6501,-0.001208
0.112,51.6501,-0.002417
0.133,51.6501,-0.004834
0.144,51.6501,-0.006042
0.160,51.6501,-0.007251
0.176,51.6501,-0.006042
0.193,51.6501,-0.006042
0.208,51.6501,-0.007251
0.225,51.6501,-0.007251
0.240,51.6501,-0.006042
0.256,51.6501,-0.006042
0.273,51.6501,-0.002417
0.288,51.6501,-0.002417
0.305,51.6501,-0.002417
0.320,51.6501,0.004834
0.336,51.6501,0.004834
0.352,51.6501,-0.002417
0.368,51.6501,-0.003625
0.384,51.6501,-0.003625
0.400,51.6501,-0.002417
0.416,51.6501,0.004834
0.433,51.6501,-0.002417
0.449,51.6501,-0.001208
0.464,51.6501,-0.006042
0.487,51.6501,-0.006042
0.503,51.6501,-0.006042
0.519,51.6501,-0.002417
0.535,51.6501,-0.004834
0.551,51.6501,-0.001208
0.567,51.6501,-0.004834
0.583,51.6501,-0.004834
0.599,51.6501,-0.003625
0.615,51.6501,-0.008459
0.631,51.6501,0.001208
0.647,51.6501,0.001208
0.667,51.6501,-0.007251
0.679,51.6501,-0.009668
0.695,51.6501,-0.009668
0.711,51.6501,-0.004834
0.729,51.6501,-0.004834
0.743,51.6501,-0.003625
0.759,51.6501,-0.006042
0.775,51.6501,-0.007251
0.791,51.6501,-0.007251
0.808,51.6501,-0.003625
0.826,51.6501,0.002417
0.839,51.6501,-0.002417
0.855,51.6501,-0.002417
0.871,51.6501,0.001208
0.887,51.6501,0.001208
0.903,51.6501,-0.002417
0.920,51.6501,-0.003625
0.934,51.6501,-0.003625
0.954,51.6501,-0.006042
0.968,51.6501,-0.002417
0.984,51.6501,-0.004834
0.999,51.6501,-0.004834
1.023,51.6501,-0.001208
1.039,51.6501,-0.002417
1.054,51.6501,-0.007251
1.070,51.6501,0.002417
1.087,51.6501,0.000000
1.103,51.6501,-0.004834
1.119,51.6501,-0.003625
1.135,51.6501,-0.003625
1.151,51.6501,-0.007251
1.167,51.6501,-0.003625
1.182,51.6501,0.002417
1.198,51.6501,-0.002417
1.215,51.6501,-0.004834
1.231,51.6501,-0.008459
1.246,51.6501,-0.002417
1.263,51.6501,-0.002417
1.279,51.6501,-0.004834
1.294,51.6501,-0.004834
1.310,51.6501,-0.009668
1.327,51.6501,-0.008459
1.343,51.6501,-0.003625
1.358,51.6501,-0.003625
1.374,51.6501,-0.007251
1.396,51.6501,-0.002417
1.406,51.6501,-0.007251
1.423,51.6501,-0.006042
1.438,51.6501,-0.001208
1.461,51.6501,0.001208
1.481,51.6501,-0.006042
1.502,51.6501,-0.003625
1.518,51.6501,-0.001208
1.535,51.6501,-0.003625
1.553,51.6501,-0.003625
1.577,51.6501,-0.004834
1.593,51.6501,-0.008459
1.608,51.6501,-0.003625
1.624,51.6501,-0.008459
1.640,51.6501,-0.008459
1.657,51.6501,-0.004834
1.672,51.6501,-0.004834
1.688,51.6501,-0.003625
1.705,51.6501,-0.006042
1.721,51.6501,-0.004834
1.738,51.6501,-0.004834
1.752,51.6501,-0.008459
1.771,51.6501,-0.004834
1.785,51.6501,-0.004834
1.801,51.6501,-0.009668
1.816,51.6501,-0.007251
1.832,51.6501,-0.008459
1.849,51.6501,-0.006042
1.864,51.6501,-0.003625
1.881,51.6501,-0.002417
1.897,51.6501,-0.001208
1.913,51.6501,-0.002417
1.928,51.6501,-0.001208
1.945,51.6501,-0.001208
1.960,51.6501,-0.002417
1.977,51.6501,0.000000
1.992,51.6501,-0.004834
2.012,51.6501,0.001208
2.025,51.6501,0.001208
2.040,51.6501,-0.007251
2.057,51.6501,-0.001208
2.073,51.6501,-0.003625
2.088,51.6501,-0.001208
2.108,51.6501,-0.001208
2.132,51.6501,0.000000
2.147,51.6501,0.000000
2.163,51.6501,-0.001208
2.179,51.6501,-0.003625
2.195,51.6501,-0.003625
2.211,51.6501,-0.003625
2.230,51.6501,-0.006042
2.243,51.6501,-0.006042
2.265,51.6501,-0.002417
2.275,51.6501,-0.007251
2.291,51.6501,-0.004834
2.307,51.6501,-0.004834
2.324,51.6501,-0.004834
2.340,51.6501,-0.001208
2.355,51.6501,-0.001208
2.371,51.6501,-0.002417
2.387,51.6501,-0.004834
2.403,51.6501,-0.008459
2.419,51.6501,-0.004834
2.437,51.6501,0.000000
2.451,51.6501,0.000000
2.467,51.6501,-0.006042
2.483,51.6501,-0.002417
2.500,51.6501,0.000000
2.515,51.6501,-0.004834
2.531,51.6501,-0.002417
2.548,51.6501,-0.004834
2.563,51.6501,-0.008459
2.580,51.6501,-0.009668
2.595,51.6501,-0.010876
2.612,51.6501,-0.008459
2.627,51.6501,-0.006042
2.643,51.6501,-0.008459
2.659,51.6501,0.000000
2.675,51.6501,0.002417
2.691,51.6501,-0.006042
2.707,51.6501,-0.015710
2.723,51.6501,-0.008459
2.739,51.6501,0.003625
2.755,51.6501,0.004834
2.771,51.6501,-0.002417
2.787,51.6501,-0.004834
2.803,51.6501,-0.008459
2.819,51.6501,-0.006042
2.835,51.6501,-0.003625
2.851,51.6501,-0.006042
2.867,51.6501,-0.001208
2.884,51.6501,0.000000
2.901,51.6501,-0.003625
2.915,51.6501,-0.001208
2.931,51.6501,0.001208
2.947,51.6501,-0.003625
2.965,51.6501,-0.003625
2.980,51.6501,0.000000
2.995,51.6501,-0.007251
3.011,51.6501,-0.004834
3.028,51.6501,-0.006042
3.043,51.6501,-0.006042
3.062,51.6501,-0.002417
3.075,51.6501,-0.004834
3.092,51.6501,-0.001208
3.107,51.6501,-0.001208
3.123,51.6501,0.001208
3.141,51.6501,-0.004834
3.155,51.6501,-0.004834
3.171,51.6501,-0.003625
3.187,51.6501,-0.006042
3.203,51.6501,-0.006042
3.219,51.6501,-0.007251
3.235,51.6501,-0.006042
3.251,51.6501,-0.002417
3.266,51.6501,-0.002417
3.282,51.6501,-0.006042
3.298,51.6501,-0.004834
3.316,51.6501,-0.004834
3.331,51.6501,-0.002417
3.346,51.6501,0.001208
3.362,51.6501,-0.004834
3.381,51.6501,-0.003625
3.395,51.6501,0.000000
3.411,51.6501,-0.004834
3.427,51.6501,0.007251
3.443,51.6501,0.002417
3.459,51.6501,0.000000
3.475,51.6501,0.006042
3.491,51.6501,0.001208
3.507,51.6501,-0.010876
3.523,51.6501,-0.010876
3.542,51.6501,-0.004834
3.555,51.6501,-0.004834
3.571,51.6501,-0.002417
3.587,51.6501,-0.001208
3.602,51.6501,0.000000
3.618,51.6501,-0.002417
3.634,51.6501,-0.002417
3.650,51.6501,-0.002417
3.666,51.6501,-0.001208
3.683,51.6501,-0.001208
3.698,51.6501,0.000000
3.714,51.6501,-0.008459
3.735,51.6501,-0.004834
3.751,51.6501,0.001208
3.767,51.6501,0.000000
3.783,51.6501,-0.007251
3.800,51.6501,-0.003625
3.816,51.6501,-0.008459
3.831,51.6501,-0.003625
3.847,51.6501,-0.007251
3.864,51.6501,-0.007251
3.879,51.6501,-0.002417
3.895,51.6501,-0.004834
3.911,51.6501,-0.002417
3.928,51.6501,0.001208
3.943,51.6501,0.000000
3.959,51.6501,-0.003625
3.976,51.6501,-0.002417
3.992,51.6501,-0.004834
4.007,51.6501,-0.008459
4.023,51.6501,-0.010876
4.040,51.6501,-0.010876
4.056,51.6501,-0.003625
4.073,51.6501,-0.003625
4.088,51.6501,-0.007251
4.104,51.6501,-0.004834
4.119,51.6501,-0.004834
4.135,51.6501,-0.004834
4.152,51.6501,-0.001208
4.168,51.6501,-0.004834
4.186,51.6501,-0.008459
4.199,51.6501,-0.002417
4.216,51.6501,0.002417
4.232,51.6501,-0.002417
4.247,51.6501,-0.008459
4.271,51.6501,-0.008459
4.292,51.6501,-0.004834
4.302,51.6501,-0.004834
4.318,51.6501,-0.002417
4.334,51.6501,-0.002417
4.351,51.6501,-0.003625
4.366,51.6501,-0.001208
4.382,51.6501,-0.004834
4.399,51.6501,-0.007251
4.414,51.6501,-0.007251
4.430,51.6501,0.000000
4.447,51.6501,0.000000
4.462,51.6501,-0.001208
4.478,51.6501,-0.004834
4.495,51.6501,-0.004834
4.511,51.6501,-0.008459
4.526,51.6501,-0.008459
4.543,51.6501,-0.006042
4.558,51.6501,-0.002417
4.575,51.6501,-0.004834
4.590,51.6501,-0.002417
4.606,51.6501,-0.002417
4.622,51.6501,-0.004834
4.638,51.6501,-0.007251
4.654,51.6501,-0.003625
4.670,51.6501,-0.002417
4.688,51.6501,0.000000
4.702,51.6501,-0.003625
4.718,51.6501,-0.006042
4.734,51.6501,-0.008459
4.750,51.6501,-0.002417
4.766,51.6501,-0.002417
4.782,51.6501,-0.007251
4.798,51.6501,-0.003625
4.815,51.6501,-0.006042
4.830,51.6501,-0.009668
4.846,51.6501,-0.012084
4.862,51.6501,-0.002417
4.880,51.6501,-0.001208
4.895,51.6501,-0.004834
4.910,51.6501,-0.002417
4.926,51.6501,-0.010876
4.943,51.6501,-0.009668
4.959,51.6501,-0.006042
4.975,51.6501,-0.006042
4.990,51.6501,-0.003625
5.007,51.6501,-0.003625
5.022,51.6501,-0.002417
5.038,51.6501,-0.007251
5.055,51.6501,-0.007251
5.069,51.6501,-0.008459
5.086,51.6501,-0.001208
5.102,51.6501,-0.001208
5.119,51.6501,-0.002417
5.134,51.6501,0.000000
5.150,51.6501,-0.002417
5.168,51.6501,-0.002417
5.182,51.6501,-0.007251
5.198,51.6501,-0.004834
5.214,51.6501,0.000000
5.230,51.6501,0.000000
5.246,51.6501,0.000000
5.262,51.6501,-0.004834
5.278,51.6501,-0.007251
5.294,51.6501,-0.007251
5.310,51.6501,-0.004834
5.326,51.6501,0.002417
5.349,51.6501,-0.001208
5.365,51.6501,0.001208
5.380,51.6501,-0.002417
5.397,51.6501,-0.003625
5.416,51.6501,-0.003625
5.429,51.6501,-0.003625
5.445,51.6501,0.002417
5.460,51.6501,-0.001208
5.477,51.6501,-0.004834
5.493,51.6501,-0.004834
5.509,51.6501,-0.002417
5.525,51.6501,-0.007251
5.541,51.6501,-0.006042
5.556,51.6501,-0.002417
5.573,51.6501,-0.002417
5.588,51.6501,0.003625
5.604,51.6501,-0.008459
5.620,51.6501,0.001208
5.636,51.6501,0.000000
5.653,51.6501,-0.001208
5.669,51.6501,-0.002417
5.684,51.6501,-0.008459
5.701,51.6501,-0.007251
5.717,51.6501,-0.007251
5.733,51.6501,-0.004834
5.748,51.6501,-0.003625
5.765,51.6501,0.000000
5.780,51.6501,-0.003625
5.796,51.6501,-0.003625
5.814,51.6501,-0.001208
5.829,51.6501,-0.008459
5.847,51.6501,-0.013293
5.872,51.6501,-0.002417
5.888,51.6501,-0.007251
5.903,51.6501,-0.007251
5.919,51.6501,-0.003625
5.935,51.6501,0.000000
5.952,51.6501,-0.006042
5.968,51.6501,0.001208
5.983,51.6501,-0.003625
5.999,51.6501,-0.002417
6.015,51.6501,-0.007251
6.031,51.6501,0.004834
6.048,51.6501,0.002417
6.064,51.6501,-0.003625
6.079,51.6501,-0.003625
6.095,51.6501,-0.006042
6.112,51.6501,-0.007251
6.127,51.6501,-0.002417
6.144,51.6501,0.000000
6.159,51.6501,-0.003625
6.175,51.6501,-0.002417
6.193,51.6501,-0.008459
6.210,51.6501,-0.003625
6.223,51.6501,0.002417
6.246,51.6501,0.000000
6.261,51.6501,-0.003625
6.272,51.6501,-0.002417
6.287,51.6501,-0.007251
6.303,51.6501,-0.008459
6.319,51.6501,-0.003625
6.335,51.6501,-0.004834
6.352,51.6501,-0.009668
6.368,51.6501,0.001208
6.383,51.6501,0.000000
6.399,51.6501,-0.001208
6.415,51.6501,-0.002417
6.431,51.6501,0.000000
6.447,51.6501,-0.004834
6.463,51.6501,-0.008459
6.482,51.6501,-0.003625
6.496,51.6501,-0.004834
6.511,51.6501,-0.003625
6.527,51.6501,0.001208
6.543,51.6501,-0.001208
6.559,51.6501,0.000000
6.575,51.6501,0.000000
6.594,51.6501,0.000000
6.607,51.6501,-0.002417
6.623,51.6501,-0.002417
6.639,51.6501,-0.007251
6.656,51.6501,-0.007251
6.671,51.6501,-0.001208
6.687,51.6501,-0.001208
6.703,51.6501,0.004834
6.719,51.6501,0.006042
6.735,51.6501,-0.002417
6.751,51.6501,-0.004834
6.767,51.6501,-0.006042
6.783,51.6501,0.002417
6.799,51.6501,-0.001208
6.815,51.6501,-0.008459
6.831,51.6501,-0.003625
6.847,51.6501,-0.003625
6.863,51.6501,-0.003625
6.882,51.6501,-0.002417
6.895,51.6501,-0.004834
6.911,51.6501,-0.003625
6.927,51.6501,-0.004834
6.943,51.6501,-0.010876
6.959,51.6501,-0.008459
6.975,51.6501,-0.008459
6.991,51.6501,-0.002417
7.007,51.6501,-0.003625
7.023,51.6501,-0.002417
7.041,51.6501,-0.006042
7.055,51.6501,-0.006042
7.071,51.6501,-0.008459
7.087,51.6501,-0.010876
7.103,51.6501,-0.008459
7.120,51.6501,-0.008459
7.136,51.6501,-0.002417
7.152,51.6501,-0.002417
7.167,51.6501,-0.006042
7.183,51.6501,-0.007251
7.199,51.6501,-0.001208
7.215,51.6501,-0.001208
7.233,51.6501,-0.003625
7.247,51.6501,0.000000
7.262,51.6501,-0.002417
7.279,51.6501,-0.006042
7.295,51.6501,-0.004834
7.311,51.6501,-0.002417
7.327,51.6501,0.001208
7.343,51.6501,-0.002417
7.360,51.6501,-0.002417
7.375,51.6501,-0.003625
7.391,51.6501,-0.002417
7.407,51.6501,-0.004834
7.426,51.6501,0.002417
7.439,51.6501,-0.002417
7.455,51.6501,-0.002417
7.470,51.6501,0.004834
7.488,51.6501,-0.001208
7.503,51.6501,-0.008459
7.519,51.6501,-0.006042
7.534,51.6501,0.000000
7.551,51.6501,-0.004834
7.566,51.6501,0.001208
7.582,51.6501,0.007251
7.599,51.6501,-0.002417
7.616,51.6501,-0.004834
7.631,51.6501,-0.007251
7.647,51.6501,-0.003625
7.663,51.6501,-0.001208
7.678,51.6501,-0.006042
7.695,51.6501,-0.004834
7.711,51.6501,-0.004834
7.728,51.6501,-0.003625
7.743,51.6501,-0.003625
7.758,51.6501,-0.006042
7.774,51.6501,-0.001208
7.791,51.6501,-0.001208
7.807,51.6501,0.003625
7.823,51.6501,-0.002417
7.838,51.6501,0.000000
7.856,51.6501,-0.004834
7.871,51.6501,-0.003625
7.886,51.6501,-0.003625
7.904,51.6501,-0.003625
7.919,51.6501,0.002417
7.935,51.6501,0.002417
7.951,51.6501,-0.006042
7.967,51.6501,-0.006042
7.983,51.6501,-0.004834
7.998,51.6501,0.001208
8.023,51.6501,-0.002417
8.037,51.6501,0.000000
8.054,51.6501,-0.001208
8.069,51.6501,-0.002417
8.086,51.6501,-0.002417
8.101,51.6501,-0.001208
8.121,51.6501,-0.001208
8.133,51.6501,-0.007251
8.151,51.6501,-0.001208
8.166,51.6501,-0.007251
8.182,51.6501,-0.012084
8.197,51.6501,-0.003625
8.213,51.6501,-0.003625
8.229,51.6501,-0.003625
8.245,51.6501,-0.007251
8.262,51.6501,-0.004834
8.278,51.6501,0.000000
8.293,51.6501,-0.002417
8.309,51.6501,-0.002417
8.331,51.6501,-0.002417
8.342,51.6501,-0.002417
8.358,51.6501,-0.007251
8.373,51.6501,-0.008459
8.390,51.6501,-0.009668
8.406,51.6501,-0.004834
8.423,51.6501,-0.007251
8.437,51.6501,-0.006042
8.453,51.6501,-0.006042
8.470,51.6501,0.000000
8.485,51.6501,-0.004834
8.503,51.6501,-0.004834
8.518,51.6501,0.001208
8.534,51.6501,0.002417
8.549,51.6501,-0.004834
8.565,51.6501,-0.002417
8.582,51.6501,-0.006042
8.597,51.6501,0.001208
8.613,51.6501,-0.002417
8.630,51.6501,-0.006042
8.646,51.6501,-0.004834
8.661,51.6501,-0.003625
8.677,51.6501,-0.002417
8.694,51.6501,0.003625
8.709,51.6501,-0.002417
8.725,51.6501,-0.002417
8.741,51.6501,-0.008459
8.757,51.6501,-0.004834
8.773,51.6501,0.002417
8.789,51.6501,-0.003625
8.806,51.6501,-0.006042
8.822,51.6501,-0.007251
8.837,51.6501,-0.010876
8.853,51.6501,-0.003625
8.871,51.6501,-0.004834
8.885,51.6501,-0.004834
8.901,51.6501,0.000000
8.917,51.6501,0.004834
8.936,51.6501,0.004834
8.949,51.6501,0.002417
8.965,51.6501,-0.001208
8.981,51.6501,0.000000
8.997,51.6501,-0.007251
9.013,51.6501,-0.007251
9.029,51.6501,0.002417
9.045,51.6501,-0.004834
9.062,51.6501,0.000000
9.077,51.6501,0.000000
9.093,51.6501,-0.008459
9.116,51.6501,-0.004834
9.132,51.6501,-0.004834
9.149,51.6501,-0.003625
9.164,51.6501,-0.001208
9.181,51.6501,-0.002417
9.197,51.6501,-0.006042
9.214,51.6501,-0.006042
9.228,51.6501,-0.002417
9.244,51.6501,-0.002417
9.260,51.6501,-0.004834
9.276,51.6501,-0.004834
9.292,51.6501,-0.013293
9.308,51.6501,-0.002417
9.325,51.6501,-0.006042
9.340,51.6501,-0.003625
9.358,51.6501,-0.007251
9.374,51.6501,-0.008459
9.388,51.6501,-0.007251
9.404,51.6501,-0.008459
9.427,51.6501,-0.003625
9.440,51.6501,-0.003625
9.452,51.6501,0.000000
9.468,51.6501,0.001208
9.484,51.6501,-0.003625
9.500,51.6501,-0.002417
9.516,51.6501,-0.002417
9.532,51.6501,0.000000
9.548,51.6501,0.000000
9.564,51.6501,-0.006042
9.583,51.6501,-0.006042
9.596,51.6501,-0.004834
9.612,51.6501,-0.006042
9.628,51.6501,-0.002417
9.644,51.6501,-0.006042
9.667,51.6501,-0.003625
9.686,51.6501,-0.008459
9.699,51.6501,-0.001208
9.715,51.6501,0.002417
9.731,51.6501,-0.007251
9.747,51.6501,-0.004834
9.763,51.6501,-0.004834
9.779,51.6501,-0.004834
9.796,51.6501,-0.004834
9.811,51.6501,-0.002417
9.828,51.6501,0.000000
9.842,51.6501,-0.002417
9.859,51.6501,-0.008459
9.874,51.6501,-0.008459
9.890,51.6501,-0.004834
9.912,51.6501,-0.003625
9.923,51.6501,0.000000
9.938,51.6501,-0.003625
9.954,51.6501,-0.002417
9.972,51.6501,-0.007251
9.987,51.6501,-0.004834
10.003,51.6501,-0.003625
10.018,51.6501,-0.003625
10.034,51.6501,0.001208
10.051,51.6501,-0.003625
10.066,51.6501,-0.007251
10.082,51.6501,-0.007251
10.099,51.6501,-0.006042
10.114,51.6501,-0.004834
10.130,51.6501,-0.002417
10.149,51.6501,0.000000
10.163,51.6501,-0.004834
10.177,51.6501,-0.002417
10.194,51.6501,-0.008459
10.210,51.6501,-0.012084
10.226,51.6501,-0.006042
10.242,51.6501,-0.004834
10.258,51.6501,-0.004834
10.278,51.6501,-0.002417
10.290,51.6501,-0.010876
10.306,51.6501,-0.004834
10.322,51.6501,-0.007251
10.339,51.6501,-0.004834
10.354,51.6501,0.000000
10.370,51.6501,-0.001208
10.387,51.6501,-0.001208
10.403,51.6501,0.003625
10.419,51.6501,-0.001208
10.434,51.6501,-0.004834
10.451,51.6501,-0.004834
10.467,51.6501,-0.008459
10.482,51.6501,-0.007251
10.498,51.6501,-0.002417
10.515,51.6501,-0.002417
10.531,51.6501,-0.003625
10.547,51.6501,-0.001208
10.563,51.6501,-0.006042
10.583,51.6501,-0.001208
10.595,51.6501,-0.001208
10.611,51.6501,-0.001208
10.626,51.6501,-0.002417
10.643,51.6501,-0.009668
10.658,51.6501,-0.007251
10.675,51.6501,-0.004834
10.690,51.6501,-0.006042
10.706,51.6501,-0.008459
10.722,51.6501,-0.001208
10.738,51.6501,-0.006042
10.760,51.6501,-0.008459
10.776,51.6501,-0.008459
10.792,51.6501,-0.006042
10.808,51.6501,-0.004834
10.825,51.6501,-0.002417
10.840,51.6501,-0.006042
10.856,51.6501,-0.006042
10.872,51.6501,-0.006042
10.889,51.6501,-0.004834
10.904,51.6501,-0.004834
10.920,51.6501,-0.007251
10.936,51.6501,0.000000
10.952,51.6501,-0.001208
10.968,51.6501,-0.010876
10.984,51.6501,-0.010876
11.000,51.6501,-0.003625
11.019,51.6501,-0.003625
11.033,51.6501,-0.003625
11.048,51.6501,-0.003625
11.064,51.6501,-0.004834
11.080,51.6501,-0.006042
11.096,51.6501,-0.003625
11.112,51.6493,-0.006042
11.129,51.5255,0.035045
11.144,51.3726,-0.006042
11.163,51.1826,0.001208
11.176,51.0515,0.006042
11.193,50.8856,-0.022961
11.208,50.7386,-0.004834
11.224,50.5755,-0.007251
11.240,50.4116,0.002417
11.257,50.2526,0.001208
11.273,50.0855,0.002417
11.288,49.9395,0.002417
11.305,49.7645,-0.006042
11.320,49.6106,-0.004834
11.337,49.4475,-0.004834
11.352,49.2996,0.001208
11.368,49.1336,-0.002417
11.384,48.9756,-0.002417
11.400,48.8206,0.002417
11.416,48.6596,0.002417
11.432,48.4935,-0.002417
11.448,48.3375,-0.007251
11.464,48.1736,-0.003625
11.481,48.0116,-0.001208
11.496,47.8605,-0.001208
11.512,47.6966,-0.006042
11.528,47.5346,-0.002417
11.545,47.3675,-0.007251
11.560,47.2156,-0.002417
11.577,47.0515,-0.002417
11.592,46.9016,-0.002417
11.612,46.6875,-0.003625
11.624,46.5745,-0.001208
11.640,46.4216,-0.002417
11.656,46.2626,-0.002417
11.673,46.0916,0.000000
11.689,45.9265,-0.001208
11.705,45.7655,-0.001208
11.720,45.6256,-0.015710
11.736,45.6001,-0.015710
11.752,45.6001,0.007251
11.768,45.6001,-0.012084
11.789,45.6001,-0.012084
11.800,45.6001,-0.002417
11.816,45.6001,-0.001208
11.832,45.6001,0.001208
11.856,45.6001,0.002417
11.871,45.6001,-0.008459
11.887,45.6001,-0.001208
11.903,45.6001,0.000000
11.919,45.6001,-0.004834
11.935,45.6001,-0.004834
11.951,45.6001,0.001208
11.967,45.6083,-0.002417
11.983,45.7576,-0.140180
11.998,45.9106,-0.007251
12.014,46.0696,-0.007251
12.031,46.2375,0.009668
12.047,46.3956,0.009668
12.064,46.5696,0.002417
12.079,46.7196,-0.002417
12.095,46.8735,0.006042
12.111,47.0365,-0.009668
12.127,47.1935,0.001208
12.143,47.3546,-0.001208
12.159,47.5166,0.007251
12.175,47.6695,-0.013293
12.190,47.8295,-0.008459
12.211,48.0566,-0.007251
12.223,48.1556,-0.007251
12.239,48.3156,-0.010876
12.255,48.4756,-0.013293
12.271,48.6436,-0.004834
12.287,48.7955,0.000000
12.303,48.9666,-0.003625
12.318,49.1096,-0.003625
12.334,49.2696,-0.004834
12.350,49.4315,-0.001208
12.366,49.5986,-0.006042
12.391,49.8326,-0.001208
12.406,49.9816,-0.002417
12.421,50.1426,-0.007251
12.437,50.2986,-0.004834
12.461,50.5435,0.002417
12.479,50.7195,-0.001208
12.495,50.8706,-0.003625
12.511,51.0426,-0.003625
12.524,51.1765,-0.006042
12.541,51.3396,-0.006042
12.555,51.4756,-0.001208
12.566,51.5799,-0.001208
12.582,51.6001,0.108760
12.598,51.6001,-0.001208
12.613,51.6001,-0.008459
12.629,51.6001,-0.014501
12.645,51.6001,-0.014501
12.661,51.6001,-0.007251
12.678,51.6001,0.000000
12.694,51.6001,0.000000
12.709,51.6001,0.002417
12.725,51.6001,-0.003625
12.747,51.6001,-0.001208
12.758,51.6001,-0.006042
12.774,51.6001,-0.006042
12.790,51.6001,-0.009668
12.806,51.6001,-0.004834
12.822,51.6001,-0.007251
12.838,51.6001,-0.006042
12.853,51.6001,-0.006042
12.870,51.6001,0.000000
12.885,51.6001,-0.004834
12.905,51.6001,-0.002417
12.928,51.6001,-0.003625
12.945,51.6001,-0.002417
12.960,51.6001,0.000000
12.976,51.6001,-0.007251
12.993,51.6001,-0.004834
13.009,51.6001,-0.007251
13.025,51.6001,-0.007251
13.040,51.6001,0.001208
13.057,51.6001,0.003625
13.073,51.6001,0.002417
13.088,51.6001,-0.004834
13.105,51.6001,-0.004834
13.121,51.6001,0.000000
13.136,51.6001,-0.002417
13.152,51.6001,-0.007251
13.169,51.6001,-0.003625
13.185,51.6001,-0.003625
13.201,51.6001,-0.002417
13.216,51.6001,-0.003625
13.232,51.6001,0.001208
13.249,51.6001,-0.006042
13.264,51.6001,-0.002417
13.287,51.6001,0.002417
13.309,51.6001,-0.009668
13.329,51.6001,-0.008459
13.344,51.6001,0.000000
13.360,51.6001,0.002417
13.376,51.6001,-0.008459
13.392,51.6001,-0.004834
13.411,51.6001,0.001208
13.424,51.6001,-0.003625
13.440,51.6001,-0.008459
13.456,51.6001,-0.006042
13.473,51.6001,-0.006042
13.488,51.6001,-0.002417
13.504,51.6001,-0.004834
13.520,51.6001,-0.006042
13.536,51.6001,-0.006042
13.552,51.6001,-0.008459
13.568,51.6001,-0.001208
13.585,51.6001,-0.001208
13.601,51.6001,-0.002417
13.617,51.6001,-0.002417
13.634,51.6001,0.001208
13.649,51.6001,-0.001208
13.665,51.6001,-0.006042
13.681,51.6001,-0.007251
13.696,51.6001,-0.009668
13.713,51.6001,-0.008459
13.728,51.6001,0.000000
13.744,51.6001,-0.003625
13.760,51.6001,-0.002417
13.778,51.6001,-0.002417
13.793,51.6001,-0.001208
13.808,51.6001,-0.004834
13.824,51.6001,0.000000
13.840,51.6001,0.000000
13.856,51.6001,0.002417
13.873,51.6001,-0.001208
13.888,51.6001,-0.001208
13.904,51.6001,-0.002417
13.920,51.6001,0.000000
13.935,51.6001,0.000000
13.952,51.6001,-0.006042
13.968,51.6001,-0.001208
13.984,51.6001,-0.007251
14.007,51.6001,0.000000
14.023,51.6001,0.001208
14.039,51.6001,-0.003625
14.055,51.6001,-0.003625
14.071,51.6001,0.003625
14.088,51.6001,-0.004834
14.105,51.6001,-0.004834
14.119,51.6001,-0.003625
14.135,51.6001,-0.006042
14.151,51.6001,-0.001208
14.167,51.6001,-0.007251
14.182,51.6001,-0.007251
14.199,51.6001,-0.008459
14.215,51.6001,-0.004834
14.231,51.6001,-0.006042
14.247,51.6001,-0.006042
14.263,51.6001,-0.002417
14.282,51.6001,-0.003625
14.303,51.6001,0.000000
14.313,51.6001,-0.007251
14.327,51.6001,-0.010876
14.342,51.6001,-0.008459
14.359,51.6001,-0.002417
14.375,51.6001,0.001208
14.391,51.6001,-0.001208
14.408,51.6001,-0.001208
14.423,51.6001,0.000000
14.439,51.6001,-0.001208
14.455,51.6001,-0.007251
14.473,51.6001,-0.003625
14.487,51.6001,-0.003625
14.503,51.6001,-0.001208
14.527,51.6001,0.001208
14.543,51.6001,-0.007251
14.560,51.6001,-0.002417
14.576,51.6001,-0.002417
14.592,51.6001,-0.001208
14.607,51.6001,0.001208
14.624,51.6001,0.001208
14.639,51.6001,-0.004834
14.655,51.6001,-0.004834
14.672,51.6001,-0.002417
14.689,51.6001,-0.007251
14.703,51.6001,-0.007251
14.719,51.6001,-0.001208
14.736,51.6001,-0.001208
14.751,51.6001,-0.004834
14.767,51.6001,-0.001208
14.783,51.6001,-0.001208
14.799,51.6001,-0.001208
14.815,51.6001,0.003625
14.832,51.6001,-0.002417
14.847,51.6001,0.000000
14.863,51.6001,-0.009668
14.879,51.6001,-0.008459
14.896,51.6001,-0.003625
14.912,51.6001,-0.007251
14.927,51.6001,-0.003625
14.943,51.6001,-0.004834
14.959,51.6001,-0.002417
14.975,51.6001,-0.004834
14.992,51.6001,-0.002417
15.007,51.6001,-0.006042
15.024,51.6001,-0.006042
15.040,51.6001,-0.003625
15.055,51.6001,-0.001208
15.083,51.6001,-0.006042
15.100,51.6001,-0.002417
15.115,51.6001,-0.003625
15.131,51.6001,-0.002417
15.147,51.6001,-0.003625
15.163,51.6001,-0.001208
15.179,51.6001,-0.004834
15.195,51.6001,-0.003625
15.210,51.6001,0.001208
15.226,51.6001,-0.004834
15.243,51.6001,-0.007251
15.258,51.6001,-0.002417
15.274,51.6001,-0.002417
15.290,51.6001,-0.004834
15.307,51.6001,-0.001208
15.322,51.6001,-0.003625
15.345,51.6001,-0.003625
15.356,51.6001,-0.003625
15.370,51.6001,-0.004834
15.386,51.6001,-0.001208
15.402,51.6001,0.000000
15.419,51.6001,-0.004834
15.434,51.6001,-0.004834
15.450,51.6001,-0.006042
15.467,51.6001,-0.006042
15.482,51.6001,-0.006042
15.499,51.6001,-0.001208
15.514,51.6001,-0.002417
15.530,51.6001,-0.001208
15.546,51.6001,-0.006042
15.562,51.6001,-0.001208
15.578,51.6001,-0.001208
15.609,51.6001,-0.004834
15.624,51.6001,-0.004834
15.640,51.6001,0.002417
15.656,51.6001,0.004834
15.672,51.6001,-0.004834
15.689,51.6001,-0.004834
15.704,51.6001,-0.003625
15.721,51.6001,-0.002417
15.736,51.6001,-0.007251
15.752,51.6001,-0.004834
15.768,51.6001,-0.004834
15.784,51.6001,-0.009668
15.800,51.6001,-0.004834
15.816,51.6001,-0.002417
15.833,51.6001,-0.003625
15.848,51.6001,0.001208
15.865,51.6001,-0.004834
15.880,51.6001,-0.008459
15.897,51.6001,-0.007251
15.912,51.6001,-0.006042
15.928,51.6001,0.000000
15.944,51.6001,-0.010876
15.965,51.6001,-0.002417
15.977,51.6001,-0.002417
15.992,51.6001,-0.004834
16.008,51.6001,-0.001208
16.025,51.6001,0.000000
16.040,51.6001,0.001208
16.056,51.6001,0.000000
16.072,51.6001,-0.006042
16.088,51.6001,0.000000
16.104,51.6001,0.000000
16.120,51.6001,-0.001208
16.136,51.6001,0.001208
16.152,51.6001,-0.006042
16.168,51.6001,-0.001208
16.184,51.6001,0.001208
16.200,51.6001,-0.006042
16.216,51.6001,-0.006042
16.234,51.6001,-0.001208
16.248,51.6001,-0.003625
16.264,51.6001,-0.002417
16.280,51.6001,-0.002417
16.295,51.6001,-0.003625
16.312,51.6001,-0.003625
16.328,51.6001,-0.003625
16.346,51.6001,-0.004834
16.360,51.6001,0.000000
16.376,51.6001,-0.004834
16.391,51.6001,-0.004834
16.407,51.6001,-0.001208
16.423,51.6001,-0.001208
16.440,51.6001,-0.003625
16.456,51.6001,-0.009668
16.472,51.6001,-0.008459
16.488,51.6001,-0.008459
16.504,51.6001,-0.002417
16.520,51.6001,0.000000
16.536,51.6001,-0.004834
16.552,51.6001,-0.006042
16.567,51.6001,-0.009668
16.584,51.6001,-0.009668
16.600,51.6001,0.000000
16.616,51.6001,0.000000
16.631,51.6001,-0.003625
16.648,51.6001,0.001208
16.672,51.6001,-0.001208
16.695,51.6001,-0.001208
16.710,51.6001,-0.001208
16.725,51.6001,-0.009668
16.735,51.6001,-0.009668
16.752,51.6001,-0.006042
16.768,51.6001,0.000000
16.784,51.6001,-0.002417
16.800,51.6001,-0.004834
16.815,51.6001,-0.004834
16.831,51.6001,-0.003625
16.848,51.6001,-0.004834
16.864,51.6001,-0.001208
16.880,51.6001,-0.007251
16.895,51.6001,0.000000
16.913,51.6001,0.001208
16.928,51.6001,-0.007251
16.943,51.6001,-0.001208
16.959,51.6001,-0.004834
16.978,51.6001,-0.004834
16.992,51.6001,-0.004834
17.007,51.6001,-0.006042
17.023,51.6001,-0.001208
17.043,51.6001,-0.002417
17.056,51.6001,-0.002417
17.072,51.6001,-0.004834
17.087,51.6001,-0.007251
17.104,51.6001,-0.007251
17.120,51.6001,-0.001208
17.136,51.6001,-0.001208
17.151,51.6001,-0.004834
17.168,51.6001,0.006042
17.184,51.6001,0.000000
17.199,51.6001,-0.004834
17.223,51.6001,-0.004834
17.238,51.6001,-0.007251
17.255,51.6001,-0.006042
17.270,51.6001,-0.003625
17.287,51.6001,0.000000
17.303,51.6001,0.002417
17.321,51.6001,-0.003625
17.334,51.6001,-0.003625
17.351,51.6001,-0.006042
17.366,51.6001,-0.001208
17.384,51.6001,-0.001208
17.399,51.6001,-0.003625
17.414,51.6001,-0.003625
17.430,51.6001,0.001208
17.446,51.6001,0.001208
17.462,51.6001,-0.003625
17.479,51.6001,0.002417
17.494,51.6001,-0.001208
17.518,51.6001,-0.001208
17.540,51.6001,-0.001208
17.558,51.6001,0.002417
17.574,51.6001,-0.010876
17.590,51.6001,-0.007251
17.607,51.6001,0.002417
17.622,51.6001,-0.003625
17.639,51.6001,0.000000
17.654,51.6001,0.000000
17.671,51.6001,-0.003625
17.686,51.6001,-0.002417
17.702,51.6001,-0.001208
17.718,51.6001,-0.004834
17.734,51.6001,-0.002417
17.758,51.6001,-0.002417
17.773,51.6001,-0.002417
17.789,51.6001,-0.006042
17.805,51.6001,-0.002417
17.823,51.6001,0.000000
17.837,51.6001,0.003625
17.854,51.6001,0.003625
17.869,51.6001,-0.003625
17.885,51.6001,-0.003625
17.901,51.6001,-0.004834
17.917,51.6001,-0.004834
17.933,51.6001,-0.008459
17.949,51.6001,-0.001208
17.968,51.6001,-0.001208
17.982,51.6001,-0.001208
17.998,51.6001,-0.003625
18.013,51.6001,-0.003625
18.029,51.6001,-0.003625
18.048,51.6001,-0.003625
18.061,51.6001,-0.007251
18.077,51.6001,-0.001208
18.093,51.6001,0.001208
18.109,51.6001,-0.001208
18.126,51.6001,-0.003625
18.144,51.6001,-0.003625
18.159,51.6001,0.004834
18.173,51.6001,-0.003625
18.190,51.6001,0.001208
18.205,51.6001,-0.006042
18.226,51.6001,-0.006042
18.239,51.6001,-0.004834
18.253,51.6001,-0.002417
18.269,51.6001,0.000000
18.299,51.6001,-0.004834
18.315,51.6001,-0.001208
18.332,51.6001,-0.007251
18.347,51.6001,-0.006042
18.372,51.6001,-0.006042
18.389,51.6001,-0.003625
18.404,51.6001,-0.002417
18.420,51.6001,-0.002417
18.434,51.6001,-0.003625
18.450,51.6001,0.001208
18.465,51.6001,-0.008459
18.475,51.6001,-0.003625
18.491,51.6001,-0.004834
18.508,51.6001,-0.002417
18.523,51.6001,-0.002417
18.542,51.6001,0.000000
18.555,51.6001,-0.002417
18.571,51.6001,-0.004834
18.586,51.6001,0.000000
18.603,51.6001,0.000000
18.619,51.6001,-0.002417
18.635,51.6001,-0.002417
18.651,51.6001,-0.004834
18.667,51.6001,-0.008459
18.682,51.6001,-0.007251
18.700,51.6001,-0.003625
18.715,51.6001,0.002417
18.731,51.6001,-0.003625
18.746,51.6001,-0.002417
18.763,51.6001,-0.008459
18.779,51.6001,-0.001208
18.795,51.6001,-0.004834
18.819,51.6001,-0.001208
18.835,51.6001,-0.003625
18.852,51.6001,-0.002417
18.867,51.6001,-0.001208
18.884,51.6001,0.000000
18.900,51.6001,-0.002417
18.915,51.6001,-0.002417
18.939,51.6001,-0.001208
18.951,51.6001,-0.001208
18.964,51.6001,0.002417
18.980,51.6001,0.000000
18.996,51.6001,-0.002417
19.011,51.6001,-0.006042
19.027,51.6001,-0.008459
19.043,51.6001,-0.002417
19.061,51.6001,-0.004834
19.076,51.6001,-0.003625
19.092,51.6001,-0.002417
19.107,51.6001,-0.006042
19.125,51.6001,-0.007251
19.139,51.6001,-0.008459
19.155,51.6001,-0.006042
19.171,51.6001,-0.001208
19.188,51.6001,-0.001208
19.204,51.6001,-0.001208
19.221,51.6001,-0.009668
19.236,51.6001,-0.006042
19.251,51.6001,-0.003625
19.267,51.6001,0.001208
19.283,51.6001,-0.001208
19.299,51.6001,-0.002417
19.315,51.6001,-0.002417
19.331,51.6001,-0.007251
19.356,51.6001,-0.001208
19.379,51.6001,-0.001208
19.395,51.6001,0.001208
19.409,51.6001,0.000000
19.426,51.6001,-0.002417
19.440,51.6001,-0.003625
19.452,51.6001,-0.002417
19.467,51.6001,-0.007251
19.484,51.6001,-0.002417
19.499,51.6001,-0.008459
19.515,51.6001,-0.008459
19.531,51.6001,0.000000
19.547,51.6001,-0.007251
19.563,51.6001,-0.007251
19.579,51.6001,-0.003625
19.596,51.6001,-0.002417
19.611,51.6001,0.000000
19.627,51.6001,0.006042
19.643,51.6001,-0.002417
19.659,51.6001,-0.004834
19.676,51.6001,-0.004834
19.691,51.6001,-0.006042
19.709,51.6001,-0.007251
19.724,51.6001,-0.007251
19.739,51.6001,0.000000
19.755,51.6001,0.001208
19.772,51.6001,0.001208
19.787,51.6001,-0.001208
19.803,51.6001,-0.007251
19.819,51.6001,-0.006042
19.835,51.6001,-0.006042
19.851,51.6001,-0.003625
19.867,51.6001,-0.003625
19.891,51.6001,-0.006042
19.909,51.6001,-0.009668
19.922,51.6001,-0.006042
19.938,51.6001,-0.004834
19.954,51.6001,-0.003625
19.970,51.6001,-0.004834
19.986,51.6001,-0.003625
20.002,51.6001,-0.008459
20.018,51.6001,-0.003625
20.035,51.6001,-0.004834
20.052,51.6001,-0.004834
20.066,51.6001,-0.003625
20.083,51.6001,0.001208
20.098,51.6001,0.000000
20.114,51.6001,0.002417
20.130,51.6001,-0.003625
20.147,51.6001,-0.003625
20.162,51.6001,-0.002417
20.178,51.6001,-0.002417
20.194,51.6001,-0.002417
20.210,51.6001,-0.003625
20.227,51.6001,-0.013293
20.244,51.6001,-0.013293
20.258,51.6001,-0.006042
20.274,51.6001,-0.006042
20.290,51.6001,-0.001208
20.307,51.6001,-0.001208
20.322,51.6001,-0.001208
20.338,51.6001,-0.003625
20.354,51.6001,-0.008459
20.371,51.6001,-0.006042
20.386,51.6001,-0.003625
20.402,51.6001,-0.001208
20.431,51.6001,-0.002417
20.447,51.6001,-0.002417
20.462,51.6001,-0.001208
20.478,51.6001,-0.010876
20.494,51.6001,-0.010876
20.509,51.6001,-0.001208
20.526,51.6001,-0.003625
20.542,51.6001,-0.007251
20.558,51.6001,-0.003625
20.574,51.6001,-0.001208
20.590,51.6001,-0.001208
20.606,51.6001,-0.001208
20.622,51.6001,-0.001208
20.638,51.6001,0.000000
20.657,51.6001,0.004834
20.670,51.6001,0.000000
20.686,51.6001,-0.002417
20.702,51.6001,-0.004834
20.718,51.6001,-0.001208
20.734,51.6001,-0.003625
20.749,51.6001,-0.008459
20.766,51.6001,-0.008459
20.782,51.6001,0.000000
20.798,51.6001,0.002417
20.814,51.6001,0.000000
20.834,51.6001,-0.006042
20.846,51.6001,0.000000
20.861,51.6001,-0.002417
20.877,51.6001,-0.004834
20.894,51.6001,-0.002417
20.910,51.6001,-0.004834
20.925,51.6001,-0.002417
20.956,51.6001,-0.001208
20.971,51.6001,-0.007251
20.988,51.6001,-0.001208
21.003,51.6001,-0.001208
21.019,51.6001,-0.001208
21.036,51.6001,-0.002417
21.052,51.6001,-0.003625
21.068,51.6001,-0.008459
21.084,51.6001,-0.008459
21.100,51.6001,-0.007251
21.116,51.6001,-0.003625
21.132,51.6001,-0.002417
21.148,51.6001,-0.003625
21.163,51.6001,-0.003625
21.179,51.6001,-0.001208
21.196,51.6001,-0.001208
21.212,51.6001,-0.003625
21.227,51.6001,0.000000
21.243,51.6001,0.000000
21.259,51.6001,-0.007251
21.276,51.6001,-0.003625
21.291,51.6001,-0.003625
21.309,51.6001,-0.001208
21.324,51.6001,-0.006042
21.340,51.6001,-0.006042
21.355,51.6001,0.000000
21.373,51.6001,0.000000
21.388,51.6001,-0.004834
21.403,51.6001,-0.002417
21.419,51.6001,-0.002417
21.435,51.6001,0.000000
21.451,51.6001,-0.006042
21.467,51.6001,-0.006042
21.490,51.6001,-0.007251
21.505,51.6001,-0.003625
21.521,51.6001,-0.002417
21.537,51.6001,-0.007251
21.554,51.6001,-0.007251
21.569,51.6001,-0.003625
21.585,51.6001,-0.007251
21.601,51.6001,-0.003625
21.618,51.6001,-0.012084
21.633,51.6001,-0.012084
21.649,51.6001,-0.002417
21.665,51.6001,-0.006042
21.681,51.6001,-0.006042
21.697,51.6001,-0.006042
21.714,51.6001,-0.007251
21.729,51.6001,-0.003625
21.746,51.6001,-0.003625
21.761,51.6001,-0.003625
21.777,51.6001,0.000000
21.793,51.6001,0.000000
21.809,51.6001,-0.004834
21.825,51.6001,-0.001208
21.841,51.6001,-0.006042
21.857,51.6001,-0.002417
21.875,51.6001,-0.002417
21.889,51.6001,-0.002417
21.905,51.6001,-0.002417
21.921,51.6001,-0.009668
21.938,51.6001,-0.006042
21.953,51.6001,0.000000
21.970,51.6001,-0.004834
21.985,51.6001,-0.002417
22.001,51.6001,-0.001208
22.017,51.6001,-0.003625
22.038,51.6001,-0.008459
22.054,51.6001,0.002417
22.070,51.6001,-0.003625
22.086,51.6001,-0.006042
22.103,51.6001,-0.010876
22.118,51.6001,0.000000
22.134,51.6001,-0.003625
22.150,51.6001,-0.012084
22.166,51.6001,-0.012084
22.182,51.6001,0.001208
22.198,51.6001,-0.004834
22.215,51.6001,-0.004834
22.230,51.6001,-0.002417
22.246,51.6001,-0.008459
22.262,51.6001,0.001208
22.278,51.6001,-0.004834
22.294,51.6001,0.000000
22.310,51.6001,0.001208
22.327,51.6001,0.000000
22.343,51.6001,-0.003625
22.358,51.6001,-0.008459
22.375,51.6001,-0.008459
22.390,51.6001,-0.007251
22.406,51.6001,0.003625
22.422,51.6001,-0.007251
22.438,51.6001,-0.010876
22.454,51.6001,-0.006042
22.470,51.6001,-0.002417
22.486,51.6001,-0.004834
22.503,51.6001,-0.003625
22.518,51.6001,-0.004834
22.534,51.6001,0.001208
22.561,51.6001,-0.004834
22.581,51.6001,-0.006042
22.593,51.6001,-0.006042
22.609,51.6001,-0.006042
22.626,51.6001,-0.007251
22.641,51.6001,-0.007251
22.657,51.6001,-0.003625
22.672,51.6001,0.000000
22.689,51.6001,0.000000
22.705,51.6001,-0.004834
22.723,51.6001,-0.002417
22.736,51.6001,-0.001208
22.753,51.6001,-0.002417
22.769,51.6001,-0.001208
22.784,51.6001,0.000000
22.801,51.6001,-0.004834
22.817,51.6001,-0.001208
22.833,51.6001,-0.001208
22.848,51.6001,-0.001208
22.864,51.6001,0.000000
22.880,51.6001,-0.002417
22.896,51.6001,-0.008459
22.912,51.6001,-0.010876
22.929,51.6001,-0.006042
22.944,51.6001,-0.002417
22.960,51.6001,0.000000
22.978,51.6001,-0.007251
22.993,51.6001,-0.004834
23.009,51.6001,0.000000
23.024,51.6001,-0.001208
23.051,51.6001,-0.003625
23.068,51.6001,-0.006042
23.089,51.6001,-0.001208
23.117,51.6001,-0.003625
23.132,51.6001,-0.007251
23.149,51.6001,-0.004834
23.164,51.6001,-0.004834
23.181,51.6001,-0.006042
23.197,51.6001,-0.003625
23.214,51.6001,0.001208
23.229,51.6001,-0.002417
23.245,51.6001,-0.003625
23.261,51.6001,-0.003625
23.279,51.6001,-0.004834
23.293,51.6001,-0.003625
23.315,51.6001,-0.003625
23.330,51.6001,-0.002417
23.341,51.6001,-0.006042
23.357,51.6001,-0.008459
23.373,51.6001,-0.003625
23.388,51.6001,-0.003625
23.404,51.6001,-0.003625
23.420,51.6001,-0.006042
23.436,51.6001,-0.002417
23.452,51.6001,-0.002417
23.468,51.6001,-0.002417
23.486,51.6001,-0.003625
23.501,51.6001,0.001208
23.516,51.6001,-0.006042
23.532,51.6001,-0.002417
23.551,51.6001,0.000000
23.564,51.6001,0.000000
23.580,51.6001,-0.004834
23.596,51.6001,-0.009668
23.614,51.6001,-0.008459
23.629,51.6001,-0.006042
23.645,51.6001,-0.001208
23.660,51.6001,0.002417
23.676,51.6001,-0.002417
23.692,51.6001,-0.003625
23.708,51.6001,-0.008459
23.724,51.6001,-0.004834
23.741,51.6001,-0.004834
23.756,51.6001,-0.002417
23.772,51.6001,-0.002417
23.788,51.6001,0.000000
23.804,51.6001,0.000000
23.820,51.6001,-0.004834
23.836,51.6001,-0.004834
23.852,51.6001,-0.001208
23.868,51.6001,-0.001208
23.884,51.6001,-0.002417
23.900,51.6001,-0.003625
23.917,51.5376,-0.003625
23.933,51.3736,0.111177
23.948,51.2235,-0.015710
23.964,51.0716,-0.003625
23.984,50.8666,-0.002417
23.996,50.7516,-0.002417
24.012,50.5885,-0.007251
24.028,50.4325,-0.007251
24.046,50.2565,-0.007251
24.061,50.1026,-0.007251
24.076,49.9476,-0.003625
24.092,49.7945,-0.001208
24.108,49.6236,-0.001208
24.124,49.4686,-0.006042
24.142,49.2916,-0.006042
24.162,49.0936,-0.006042
24.172,48.9836,-0.008459
24.188,48.8275,-0.007251
24.204,48.6646,-0.009668
24.234,48.3726,-0.001208
24.249,48.2166,-0.001208
24.265,48.0626,-0.002417
24.281,47.9045,-0.009668
24.297,47.7416,-0.008459
24.313,47.5806,-0.008459
24.329,47.4186,-0.004834
24.345,47.2606,-0.004834
24.362,47.0896,-0.004834
24.377,46.9446,-0.004834
24.393,46.7746,-0.007251
24.409,46.6246,-0.001208
24.425,46.4566,-0.004834
24.441,46.2996,0.000000
24.457,46.1396,-0.001208
24.473,45.9845,-0.004834
24.491,45.7976,-0.009668
24.505,45.6556,-0.004834
24.522,45.5501,-0.004834
24.537,45.5501,0.001208
24.554,45.5501,0.001208
24.569,45.5501,-0.008459
24.587,45.5501,-0.008459
24.601,45.5501,-0.014501
24.617,45.5501,-0.002417
24.632,45.5501,-0.007251
24.649,45.5501,-0.007251
24.665,45.5501,-0.007251
24.681,45.5501,-0.004834
24.697,45.5501,0.000000
24.712,45.5501,-0.001208
24.729,45.6355,-0.111177
24.745,45.7886,-0.055589
24.764,45.9806,-0.007251
24.788,46.2136,-0.007251
24.804,46.3796,0.008459
24.820,46.5376,0.002417
24.836,46.6926,-0.013293
24.852,46.8636,-0.001208
24.867,47.0146,-0.010876
24.883,47.1716,0.000000
24.901,47.3466,-0.009668
24.916,47.4956,0.000000
24.932,47.6546,-0.006042
24.948,47.8125,-0.001208
24.964,47.9786,-0.001208
24.980,48.1386,-0.001208
24.997,48.3066,0.002417
25.011,48.4526,-0.002417
25.030,48.6355,0.001208
25.044,48.7795,-0.013293
25.060,48.9406,-0.004834
25.075,49.0926,-0.007251
25.093,49.2656,-0.003625
25.107,49.4186,0.002417
25.125,49.5846,0.002417
25.140,49.7386,-0.007251
25.155,49.8976,-0.001208
25.172,50.0596,-0.006042
25.187,50.2106,-0.004834
25.203,50.3746,0.000000
25.219,50.5346,-0.006042
25.235,50.6906,-0.006042
25.252,50.8585,-0.006042
25.267,51.0106,-0.002417
25.284,51.1816,-0.002417
25.314,51.4826,-0.001208
25.330,51.5501,0.109969
25.346,51.5501,0.038670
25.362,51.5501,-0.001208
25.381,51.5501,-0.001208
25.395,51.5501,-0.001208
25.411,51.5501,0.000000
25.426,51.5501,-0.006042
25.443,51.5501,0.003625
25.459,51.5501,0.000000
25.475,51.5501,-0.006042
25.491,51.5501,-0.004834
25.507,51.5501,-0.004834
25.522,51.5501,-0.003625
25.538,51.5501,-0.003625
25.555,51.5501,-0.001208
25.571,51.5501,0.002417
25.586,51.5501,-0.004834
25.602,51.5501,-0.004834
25.619,51.5501,-0.001208
25.634,51.5501,-0.006042
25.650,51.5501,-0.003625
25.667,51.5501,-0.002417
25.683,51.5501,-0.001208
25.699,51.5501,0.000000
25.716,51.5501,-0.002417
25.731,51.5501,-0.006042
25.746,51.5501,-0.004834
25.762,51.5501,0.002417
25.779,51.5501,0.000000
25.794,51.5501,0.001208
25.810,51.5501,-0.004834
25.838,51.5501,-0.009668
25.855,51.5501,-0.001208
25.870,51.5501,0.001208
25.886,51.5501,0.001208
25.905,51.5501,-0.006042
25.918,51.5501,-0.003625
25.934,51.5501,-0.010876
25.950,51.5501,-0.003625
25.967,51.5501,-0.002417
25.983,51.5501,-0.002417
26.001,51.5501,-0.002417
26.014,51.5501,-0.004834
26.030,51.5501,-0.004834
26.046,51.5501,-0.007251
26.064,51.5501,-0.002417
26.078,51.5501,-0.004834
26.094,51.5501,-0.004834
26.109,51.5501,-0.006042
26.126,51.5501,-0.006042
26.142,51.5501,-0.004834
26.159,51.5501,-0.004834
26.174,51.5501,0.000000
26.190,51.5501,-0.001208
26.206,51.5501,-0.004834
26.222,51.5501,-0.004834
26.238,51.5501,-0.007251
26.254,51.5501,-0.006042
26.270,51.5501,-0.007251
26.286,51.5501,-0.006042
26.302,51.5501,-0.003625
26.318,51.5501,-0.007251
26.334,51.5501,-0.003625
26.350,51.5501,-0.006042
26.365,51.5501,0.000000
26.382,51.5501,-0.001208
26.398,51.5501,-0.002417
26.414,51.5501,-0.004834
26.430,51.5501,-0.002417
26.446,51.5501,-0.004834
26.462,51.5501,-0.001208
26.478,51.5501,-0.001208
26.494,51.5501,-0.004834
26.513,51.5501,-0.001208
26.526,51.5501,-0.006042
26.542,51.5501,-0.001208
26.558,51.5501,0.007251
26.574,51.5501,0.002417
26.590,51.5501,-0.001208
26.606,51.5501,-0.001208
26.622,51.5501,-0.006042
26.638,51.5501,-0.003625
26.654,51.5501,-0.009668
26.670,51.5501,-0.004834
26.686,51.5501,-0.002417
26.702,51.5501,-0.006042
26.718,51.5501,-0.004834
26.734,51.5501,0.000000
26.750,51.5501,0.001208
26.766,51.5501,-0.004834
26.782,51.5501,-0.001208
26.798,51.5501,0.001208
26.814,51.5501,-0.002417
26.831,51.5501,0.001208
26.847,51.5501,-0.003625
26.862,51.5501,-0.001208
26.878,51.5501,-0.003625
26.906,51.5501,-0.001208
26.922,51.5501,0.000000
26.937,51.5501,-0.004834
26.953,51.5501,-0.003625
26.970,51.5501,-0.006042
26.986,51.5501,-0.002417
27.001,51.5501,-0.002417
27.018,51.5501,-0.002417
27.035,51.5501,-0.002417
27.050,51.5501,-0.003625
27.066,51.5501,-0.001208
27.081,51.5501,-0.002417
27.098,51.5501,-0.007251
27.113,51.5501,-0.007251
27.130,51.5501,-0.002417
27.145,51.5501,0.001208
27.161,51.5501,-0.003625
27.177,51.5501,-0.001208
27.193,51.5501,-0.003625
27.210,51.5501,-0.006042
27.225,51.5501,0.000000
27.242,51.5501,-0.001208
27.257,51.5501,0.001208
27.274,51.5501,0.001208
27.290,51.5501,-0.004834
27.305,51.5501,0.001208
27.322,51.5501,-0.002417
27.338,51.5501,-0.003625
27.354,51.5501,0.002417
27.370,51.5501,-0.001208
27.385,51.5501,-0.003625
27.402,51.5501,-0.003625
27.418,51.5501,-0.004834
27.433,51.5501,0.001208
27.457,51.5501,0.001208
27.472,51.5501,0.001208
27.489,51.5501,-0.002417
27.504,51.5501,-0.004834
27.524,51.5501,-0.007251
27.536,51.5501,0.001208
27.552,51.5501,-0.003625
27.568,51.5501,-0.002417
27.587,51.5501,-0.007251
27.601,51.5501,-0.002417
27.616,51.5501,-0.006042
27.632,51.5501,-0.006042
27.649,51.5501,-0.004834
27.665,51.5501,-0.004834
27.680,51.5501,-0.001208
27.696,51.5501,-0.001208
27.714,51.5501,-0.001208
27.728,51.5501,-0.004834
27.745,51.5501,-0.004834
27.760,51.5501,-0.006042
27.776,51.5501,-0.001208
27.792,51.5501,-0.001208
27.808,51.5501,-0.002417
27.825,51.5501,-0.002417
27.840,51.5501,-0.009668
27.857,51.5501,-0.009668
27.872,51.5501,-0.003625
27.888,51.5501,-0.008459
27.904,51.5501,-0.008459
27.920,51.5501,0.000000
27.936,51.5501,-0.002417
27.952,51.5501,-0.007251
27.968,51.5501,-0.002417
27.984,51.5501,-0.003625
28.006,51.5501,-0.003625
28.022,51.5501,-0.006042
28.037,51.5501,-0.003625
28.053,51.5501,0.000000
28.069,51.5501,-0.006042
28.086,51.5501,-0.006042
28.102,51.5501,0.000000
28.116,51.5501,-0.002417
28.134,51.5501,-0.002417
28.149,51.5501,0.000000
28.165,51.5501,0.000000
28.181,51.5501,-0.001208
28.200,51.5501,0.000000
28.214,51.5501,0.000000
28.229,51.5501,-0.001208
28.246,51.5501,-0.001208
28.262,51.5501,0.000000
28.277,51.5501,-0.007251
28.293,51.5501,-0.002417
28.311,51.5501,-0.002417
28.325,51.5501,-0.003625
28.341,51.5501,0.001208
28.357,51.5501,0.000000
28.375,51.5501,0.000000
28.389,51.5501,-0.007251
28.405,51.5501,0.000000
28.423,51.5501,-0.003625
28.437,51.5501,-0.003625
28.453,51.5501,-0.004834
28.469,51.5501,-0.002417
28.485,51.5501,-0.002417
28.501,51.5501,-0.003625
28.517,51.5501,-0.003625
28.540,51.5501,-0.001208
28.556,51.5501,-0.001208
28.572,51.5501,-0.002417
28.588,51.5501,-0.002417
28.604,51.5501,-0.002417
28.620,51.5501,-0.003625
28.636,51.5501,-0.003625
28.653,51.5501,-0.006042
28.668,51.5501,-0.002417
28.687,51.5501,-0.002417
28.700,51.5501,0.001208
28.716,51.5501,-0.001208
28.733,51.5501,-0.003625
28.748,51.5501,-0.003625
28.764,51.5501,-0.006042
28.780,51.5501,-0.002417
28.795,51.5501,-0.002417
28.812,51.5501,-0.003625
28.828,51.5501,-0.002417
28.844,51.5501,-0.003625
28.859,51.5501,0.000000
28.876,51.5501,-0.001208
28.892,51.5501,-0.001208
28.907,51.5501,-0.002417
28.923,51.5501,-0.002417
28.939,51.5501,-0.002417
28.956,51.5501,-0.013293
28.972,51.5501,-0.009668
28.987,51.5501,-0.001208
29.003,51.5501,-0.003625
29.019,51.5501,-0.001208
29.035,51.5501,-0.012084
29.063,51.5501,-0.007251
29.079,51.5501,-0.003625
29.096,51.5501,-0.008459
29.111,51.5501,-0.013293
29.128,51.5501,-0.002417
29.144,51.5501,-0.006042
29.163,51.5501,-0.004834
29.175,51.5501,-0.002417
29.192,51.5501,-0.002417
29.208,51.5501,-0.006042
29.225,51.5501,-0.006042
29.240,51.5501,-0.001208
29.256,51.5501,-0.001208
29.271,51.5501,-0.006042
29.287,51.5501,-0.007251
29.306,51.5501,-0.004834
29.319,51.5501,-0.001208
29.336,51.5501,-0.001208
29.351,51.5501,-0.008459
29.368,51.5501,-0.004834
29.384,51.5501,-0.008459
29.400,51.5501,-0.006042
29.415,51.5501,-0.003625
29.432,51.5501,-0.002417
29.448,51.5501,0.001208
29.464,51.5501,0.001208
29.479,51.5501,-0.003625
29.495,51.5501,-0.004834
29.513,51.5501,-0.006042
29.527,51.5501,-0.002417
29.544,51.5501,-0.001208
29.560,51.5501,0.002417
29.576,51.5501,-0.001208
29.591,51.5501,-0.004834
29.618,51.5501,-0.004834
29.635,51.5501,-0.006042
29.651,51.5501,-0.003625
29.666,51.5501,-0.001208
29.684,51.5501,-0.002417
29.699,51.5501,0.002417
29.715,51.5501,-0.006042
29.730,51.5501,-0.001208
29.747,51.5501,-0.001208
29.762,51.5501,-0.004834
29.780,51.5501,0.002417
29.794,51.5501,0.000000
29.812,51.5501,-0.006042
29.827,51.5501,-0.007251
29.842,51.5501,-0.007251
29.862,51.5501,-0.004834
29.874,51.5501,-0.004834
29.890,51.5501,-0.003625
29.906,51.5501,-0.003625
29.925,51.5501,-0.008459
29.938,51.5501,-0.001208
29.954,51.5501,-0.003625
29.970,51.5501,0.002417
29.987,51.5501,0.002417
30.003,51.5501,-0.003625
30.018,51.5501,-0.004834
30.034,51.5501,-0.003625
30.050,51.5501,-0.002417
30.067,51.5501,-0.006042
30.082,51.5501,-0.002417
30.101,51.5501,-0.003625
30.115,51.5501,-0.004834
30.130,51.5501,0.000000
30.146,51.5501,-0.008459
30.167,51.5501,-0.003625
30.183,51.5501,-0.003625
30.199,51.5501,-0.002417
30.215,51.5501,-0.002417
30.231,51.5501,-0.002417
30.247,51.5501,-0.004834
30.263,51.5501,-0.004834
30.279,51.5501,-0.009668
30.300,51.5501,-0.006042
30.311,51.5501,0.000000
30.327,51.5501,-0.002417
30.345,51.5501,0.003625
30.359,51.5501,0.001208
30.375,51.5501,-0.003625
30.391,51.5501,-0.003625
30.407,51.5501,-0.014501
30.423,51.5501,-0.010876
30.439,51.5501,-0.004834
30.455,51.5501,-0.004834
30.472,51.5501,-0.003625
30.487,51.5501,-0.003625
30.503,51.5501,-0.002417
30.519,51.5501,-0.008459
30.535,51.5501,-0.004834
30.551,51.5501,-0.009668
30.567,51.5501,-0.001208
30.583,51.5501,0.002417
30.608,51.5501,0.001208
30.633,51.5501,-0.008459
30.647,51.5501,-0.008459
30.663,51.5501,-0.006042
30.679,51.5501,-0.003625
30.694,51.5501,0.000000
30.718,51.5501,-0.002417
30.734,51.5501,-0.004834
30.749,51.5501,-0.004834
30.765,51.5501,0.000000
30.783,51.5501,-0.010876
30.797,51.5501,-0.001208
30.814,51.5501,-0.001208
30.830,51.5501,-0.004834
30.845,51.5501,-0.004834
30.862,51.5501,-0.004834
30.877,51.5501,-0.003625
30.894,51.5501,0.001208
30.909,51.5501,-0.001208
30.925,51.5501,0.001208
30.941,51.5501,-0.006042
30.958,51.5501,-0.003625
30.974,51.5501,-0.010876
30.990,51.5501,0.001208
31.005,51.5501,0.001208
31.025,51.5501,-0.002417
31.037,51.5501,-0.003625
31.053,51.5501,-0.004834
31.069,51.5501,-0.003625
31.086,51.5501,-0.007251
31.102,51.5501,-0.007251
31.119,51.5501,0.000000
31.133,51.5501,-0.004834
31.151,51.5501,-0.003625
31.166,51.5501,-0.002417
31.182,51.5501,-0.006042
31.198,51.5501,-0.008459
31.213,51.5501,-0.007251
31.230,51.5501,-0.006042
31.245,51.5501,0.001208
31.269,51.5501,-0.007251
31.285,51.5501,-0.009668
31.300,51.5501,-0.004834
31.316,51.5501,-0.004834
31.333,51.5501,-0.007251
31.349,51.5501,-0.006042
31.365,51.5501,-0.006042
31.380,51.5501,-0.004834
31.397,51.5501,0.002417
31.415,51.5501,0.002417
31.431,51.5501,-0.002417
31.444,51.5501,-0.006042
31.461,51.5501,0.001208
31.477,51.5501,0.001208
31.492,51.5501,-0.007251
31.509,51.5501,-0.003625
31.527,51.5501,-0.003625
31.541,51.5501,-0.004834
31.557,51.5501,-0.002417
31.573,51.5501,-0.002417
31.588,51.5501,-0.002417
31.604,51.5501,-0.002417
31.620,51.5501,-0.002417
31.639,51.5501,-0.002417
31.653,51.5501,0.001208
31.668,51.5501,-0.002417
31.684,51.5501,0.007251
31.701,51.5501,-0.006042
31.717,51.5501,-0.006042
31.732,51.5501,0.002417
31.749,51.5501,0.000000
31.764,51.5501,0.000000
31.780,51.5501,-0.006042
31.809,51.5501,-0.001208
31.825,51.5501,-0.001208
31.841,51.5501,-0.007251
31.857,51.5501,-0.002417
31.873,51.5501,-0.002417
31.890,51.5501,0.000000
31.907,51.5501,-0.006042
31.921,51.5501,-0.006042
31.937,51.5501,-0.006042
31.953,51.5501,-0.002417
31.969,51.5501,-0.006042
31.986,51.5501,-0.006042
32.001,51.5501,0.001208
32.017,51.5501,0.003625
32.035,51.5501,0.001208
32.049,51.5501,-0.001208
32.065,51.5501,-0.002417
32.081,51.5501,-0.006042
32.097,51.5501,-0.010876
32.113,51.5501,0.003625
32.129,51.5501,0.001208
32.147,51.5501,0.002417
32.161,51.5501,-0.004834
32.177,51.5501,-0.006042
32.194,51.5501,-0.006042
32.209,51.5501,-0.004834
32.226,51.5501,-0.004834
32.241,51.5501,-0.001208
32.262,51.5501,0.000000
32.273,51.5501,0.002417
32.289,51.5501,0.000000
32.305,51.5501,-0.002417
32.321,51.5501,-0.004834
32.344,51.5501,-0.002417
32.359,51.5501,-0.001208
32.375,51.5501,-0.006042
32.390,51.5501,-0.004834
32.408,51.5501,-0.012084
32.424,51.5501,-0.003625
32.439,51.5501,-0.006042
32.457,51.5501,-0.006042
32.471,51.5501,0.004834
32.487,51.5501,0.001208
32.503,51.5501,-0.001208
32.520,51.5501,-0.001208
32.535,51.5501,-0.008459
32.550,51.5501,-0.009668
32.567,51.5501,-0.010876
32.584,51.5501,-0.010876
32.599,51.5501,-0.002417
32.615,51.5501,0.000000
32.631,51.5501,-0.006042
32.647,51.5501,-0.002417
32.664,51.5501,-0.002417
32.679,51.5501,-0.003625
32.695,51.5501,-0.003625
32.710,51.5501,-0.008459
32.727,51.5501,-0.004834
32.743,51.5501,-0.004834
32.759,51.5501,-0.004834
32.775,51.5501,-0.003625
32.790,51.5501,-0.002417
32.807,51.5501,-0.001208
32.829,51.5501,0.001208
32.840,51.5501,-0.003625
32.855,51.5501,-0.003625
32.871,51.5501,-0.009668
32.901,51.5501,-0.003625
32.919,51.5501,-0.007251
32.934,51.5501,-0.001208
32.950,51.5501,-0.001208
32.966,51.5501,-0.003625
32.982,51.5501,-0.006042
32.997,51.5501,-0.007251
33.013,51.5501,-0.007251
33.030,51.5501,-0.004834
33.046,51.5501,-0.002417
33.062,51.5501,-0.004834
33.078,51.5501,-0.003625
33.093,51.5501,-0.003625
33.110,51.5501,-0.006042
33.125,51.5501,0.000000
33.142,51.5501,0.002417
33.157,51.5501,-0.002417
33.173,51.5501,-0.008459
33.197,51.5501,-0.008459
33.208,51.5501,-0.002417
33.221,51.5501,-0.003625
33.237,51.5501,0.000000
33.254,51.5501,-0.003625
33.270,51.5501,-0.002417
33.285,51.5501,-0.004834
33.301,51.5501,-0.007251
33.318,51.5501,-0.003625
33.334,51.5501,-0.003625
33.349,51.5501,-0.003625
33.367,51.5501,-0.002417
33.382,51.5501,-0.004834
33.398,51.5501,-0.007251
33.413,51.5501,-0.003625
33.430,51.5501,-0.002417
33.446,51.5501,-0.001208
33.461,51.5501,-0.003625
33.477,51.5501,-0.004834
33.495,51.5501,-0.004834
33.510,51.5501,-0.006042
33.526,51.5501,-0.006042
33.541,51.5501,-0.006042
33.557,51.5501,-0.003625
33.573,51.5501,-0.009668
33.589,51.5501,-0.003625
33.613,51.5501,-0.007251
33.624,51.5501,-0.004834
33.638,51.5501,-0.007251
33.654,51.5501,-0.004834
33.670,51.5501,-0.001208
33.686,51.5501,0.002417
33.701,51.5501,-0.004834
33.717,51.5501,0.000000
33.736,51.5501,-0.004834
33.749,51.5501,0.000000
33.766,51.5501,-0.002417
33.781,51.5501,-0.003625
33.798,51.5501,-0.007251
33.813,51.5501,-0.007251
33.833,51.5501,0.000000
33.845,51.5501,-0.006042
33.865,51.5501,-0.004834
33.878,51.5501,-0.007251
33.894,51.5501,-0.007251
33.909,51.5501,0.002417
33.925,51.5501,0.002417
33.941,51.5501,-0.001208
33.957,51.5501,-0.002417
33.980,51.5501,-0.002417
33.996,51.5501,-0.003625
34.013,51.5501,-0.006042
34.028,51.5501,0.001208
34.044,51.5501,-0.004834
34.060,51.5501,-0.003625
34.076,51.5501,-0.003625
34.096,51.5501,-0.001208
34.108,51.5501,-0.007251
34.125,51.5501,-0.007251
34.142,51.5501,0.001208
34.156,51.5501,0.001208
34.173,51.5501,-0.001208
34.188,51.5501,-0.007251
34.205,51.5501,-0.008459
34.221,51.5501,-0.001208
34.237,51.5501,0.003625
34.252,51.5501,-0.004834
34.268,51.5501,-0.006042
34.284,51.5501,-0.006042
34.300,51.5501,-0.002417
34.317,51.5501,-0.003625
34.333,51.5501,-0.004834
34.348,51.5501,-0.007251
34.364,51.5501,-0.001208
34.383,51.5501,-0.001208
34.398,51.5501,-0.004834
34.412,51.5501,-0.006042
34.428,51.5501,-0.004834
34.445,51.5501,-0.004834
34.460,51.5501,-0.012084
34.477,51.5501,0.003625
34.505,51.5501,-0.006042
34.521,51.5501,-0.004834
34.537,51.5501,-0.003625
34.553,51.5501,-0.003625
34.570,51.5501,-0.003625
34.585,51.5501,-0.004834
34.602,51.5501,-0.001208
34.617,51.5501,-0.004834
34.633,51.5501,-0.004834
34.649,51.5501,-0.006042
34.664,51.5501,-0.006042
34.681,51.5501,-0.006042
34.697,51.5501,-0.008459
34.713,51.5501,-0.002417
34.729,51.5501,-0.003625
34.747,51.5501,-0.006042
34.763,51.5501,-0.003625
34.777,51.5501,-0.004834
34.794,51.5501,-0.009668
34.810,51.5501,0.003625
34.824,51.5501,-0.004834
34.841,51.5501,-0.001208
34.857,51.5501,-0.001208
34.876,51.5501,-0.001208
34.889,51.5501,-0.009668
34.905,51.5501,-0.004834
34.921,51.5501,-0.007251
34.939,51.5501,-0.003625
34.953,51.5501,-0.006042
34.968,51.5501,-0.009668
34.985,51.5501,-0.002417
35.001,51.5501,-0.001208
35.017,51.5501,-0.001208
35.034,51.5501,-0.007251
35.062,51.5501,-0.008459
35.078,51.5501,0.002417
35.094,51.5501,-0.002417
35.109,51.5501,0.004834
35.126,51.5501,0.004834
35.142,51.5501,-0.006042
35.157,51.5501,-0.006042
35.180,51.5501,-0.002417
35.190,51.5501,0.006042
35.206,51.5501,-0.006042
35.225,51.5501,-0.006042
35.238,51.5501,-0.002417
35.254,51.5501,-0.006042
35.270,51.5501,-0.003625
35.286,51.5501,-0.004834
35.307,51.5501,-0.001208
35.319,51.5501,-0.003625
35.333,51.5501,-0.003625
35.350,51.5501,-0.002417
35.366,51.5501,-0.001208
35.382,51.5501,0.000000
35.398,51.5501,0.000000
35.413,51.5501,-0.003625
35.432,51.5501,-0.003625
35.446,51.5501,-0.001208
35.462,51.5501,-0.003625
35.477,51.5501,-0.001208
35.494,51.5501,-0.001208
35.509,51.5501,-0.001208
35.525,51.5501,-0.001208
35.541,51.5501,-0.004834
35.557,51.5501,-0.006042
35.573,51.5501,-0.002417
35.589,51.5501,0.000000
35.611,51.5501,0.001208
35.627,51.5501,-0.002417
35.643,51.5501,-0.003625
35.659,51.5501,-0.002417
35.676,51.5501,-0.007251
35.692,51.5501,-0.003625
35.708,51.5501,-0.004834
35.727,51.5501,-0.006042
35.740,51.5501,-0.002417
35.756,51.5501,-0.006042
35.773,51.5501,-0.002417
35.787,51.5501,-0.002417
35.804,51.5501,-0.007251
35.820,51.5501,-0.006042
35.835,51.5501,-0.003625
35.853,51.5501,-0.007251
35.867,51.5501,-0.003625
35.884,51.5501,-0.006042
35.899,51.5501,-0.009668
35.917,51.5501,-0.003625
35.931,51.5501,-0.003625
35.947,51.5501,-0.003625
35.963,51.5501,-0.004834
35.980,51.5501,-0.003625
35.996,51.5501,-0.007251
36.012,51.5501,-0.004834
36.027,51.5501,-0.002417
36.044,51.5501,-0.002417
36.060,51.5501,0.000000
36.076,51.5501,-0.004834
36.091,51.5501,-0.003625
36.107,51.5501,-0.007251
36.123,51.5501,0.000000
36.139,51.5501,-0.002417
36.161,51.5501,-0.003625
36.177,51.5501,-0.003625
36.193,51.5501,-0.006042
36.209,51.5501,-0.001208
36.228,51.5501,-0.008459
36.241,51.5501,-0.001208
36.257,51.5501,-0.002417
36.273,51.5501,-0.001208
36.290,51.5501,-0.001208
36.306,51.5501,-0.003625
36.322,51.5501,-0.003625
36.337,51.5501,-0.003625
36.355,51.5501,-0.003625
36.369,51.5501,-0.004834
36.386,51.5501,-0.001208
36.401,51.5501,-0.002417
36.418,51.5501,-0.006042
36.434,51.5501,-0.009668
36.452,51.5501,-0.006042
36.465,51.5501,-0.008459
36.483,51.5501,-0.003625
36.497,51.5501,-0.003625
36.515,51.5501,-0.004834
36.529,51.5501,0.000000
36.545,51.5501,-0.004834
36.561,51.5501,-0.008459
36.577,51.5501,-0.004834
36.593,51.5501,-0.002417
36.609,51.5501,-0.003625
36.625,51.5501,-0.007251
36.641,51.5501,-0.004834
36.657,51.4944,0.001208
36.674,51.2248,0.177642
36.690,50.8841,0.000000
36.714,50.3802,0.003625
36.730,50.0680,-0.004834
36.746,49.7519,-0.004834
36.762,49.4274,-0.008459
36.780,49.0603,-0.006042
36.794,48.7604,-0.002417
36.810,48.4360,-0.006042
36.826,48.1076,0.001208
36.842,47.7852,-0.012084
36.859,47.4527,-0.001208
36.874,47.1427,-0.008459
36.895,46.7041,-0.004834
36.906,46.4756,-0.004834
36.922,46.1512,-0.010876
36.939,45.8126,-0.008459
36.955,45.5454,-0.025377
36.970,45.5001,-0.159515
36.989,45.5001,-0.021752
37.002,45.5001,-0.008459
37.018,45.5001,-0.001208
37.034,45.5001,-0.008459
37.051,45.5001,-0.006042
37.066,45.5001,-0.006042
37.083,45.5001,-0.006042
37.098,45.5001,-0.007251
37.114,45.5001,-0.007251
37.129,45.5001,0.001208
37.145,45.5001,0.001208
37.162,45.5001,-0.006042
37.178,45.5007,-0.007251
37.194,45.6104,-0.007251
37.210,45.9214,-0.190935
37.226,46.2397,-0.013293
37.254,46.8272,0.002417
37.270,47.1638,-0.013293
37.287,47.4820,0.001208
37.303,47.8043,-0.010876
37.319,48.1470,0.006042
37.335,48.4694,-0.016918
37.350,48.7835,-0.003625
37.369,49.1691,0.000000
37.383,49.4465,0.000000
37.398,49.7627,-0.002417
37.414,50.0891,-0.003625
37.432,50.4583,-0.004834
37.447,50.7643,-0.002417
37.462,51.0663,0.004834
37.479,51.3835,0.004834
37.496,51.5001,0.026586
37.510,51.5001,0.129304
37.527,51.5001,-0.006042
37.542,51.5001,-0.004834
37.559,51.5001,0.001208
37.575,51.5001,-0.007251
37.592,51.5001,-0.001208
37.607,51.5001,-0.001208
37.623,51.5001,-0.003625
37.638,51.5001,0.001208
37.654,51.5001,-0.007251
37.671,51.5001,-0.004834
37.686,51.5001,-0.004834
