Elapsed Time (s),Position (mm),Force (N)
-0.008,77.8092,-0.039119
0.023,77.8092,-0.039119
0.054,77.8092,-0.039119
0.085,77.8092,-0.039119
0.116,77.8092,-0.037190
0.147,77.8092,-0.037190
0.178,77.8092,-0.037190
0.210,77.8092,-0.037190
0.240,77.8092,-0.037190
0.271,77.8092,-0.037190
0.302,77.8092,-0.037190
0.333,77.8092,-0.037190
0.364,77.8092,-0.035675
0.396,77.8092,-0.035675
0.427,77.8092,-0.035675
0.458,77.8092,-0.035675
0.491,77.8092,-0.035675
0.521,77.8092,-0.035675
0.552,77.8092,-0.035675
0.582,77.8092,-0.035675
0.613,77.8092,-0.034433
0.643,77.8092,-0.034433
0.674,77.8092,-0.034433
0.707,77.8092,-0.034433
0.736,77.8092,-0.034433
0.767,77.8092,-0.034433
0.798,77.8092,-0.034433
0.830,77.8092,-0.034433
0.861,77.8092,-0.033454
0.892,77.8092,-0.033454
0.922,77.8092,-0.033454
0.953,77.8092,-0.033454
0.984,77.8092,-0.033454
1.015,77.8092,-0.033454
1.046,77.8092,-0.033454
1.077,77.8092,-0.033454
1.108,77.8092,-0.032645
1.139,77.8092,-0.032645
1.169,77.8092,-0.032645
1.201,77.8092,-0.032645
1.233,77.8092,-0.032645
1.264,77.8092,-0.032645
1.294,77.8092,-0.032645
1.326,77.8092,-0.032645
1.359,77.8092,-0.031929
1.390,77.8092,-0.031929
1.420,77.8092,-0.031929
1.451,77.8092,-0.031929
1.482,77.8092,-0.031929
1.512,77.8092,-0.031929
1.543,77.8092,-0.031929
1.573,77.8092,-0.031929
1.605,77.8092,-0.031280
1.637,77.8092,-0.031280
1.668,77.8092,-0.031280
1.699,77.8092,-0.031280
1.730,77.8092,-0.031280
1.762,77.8092,-0.031280
1.792,77.8092,-0.031280
1.823,77.8092,-0.031280
1.854,77.8092,-0.030725
1.885,77.8092,-0.030725
1.916,77.8092,-0.030725
1.948,77.8092,-0.030725
1.978,77.8092,-0.030725
2.009,77.8092,-0.030725
2.040,77.8092,-0.030725
2.071,77.8092,-0.030725
2.102,77.8092,-0.030725
2.132,77.8092,-0.030236
2.163,77.8092,-0.030236
2.194,77.8092,-0.030236
2.226,77.8092,-0.030236
2.256,77.8092,-0.030236
2.289,77.8092,-0.030236
2.320,77.8092,-0.030236
2.350,77.8092,-0.030236
2.381,77.8092,-0.029774
2.413,77.8092,-0.029774
2.444,77.8092,-0.029774
2.475,77.8092,-0.029774
2.505,77.8092,-0.029774
2.536,77.8092,-0.029774
2.567,77.8092,-0.029774
2.598,77.8092,-0.029774
2.629,77.8092,-0.029774
2.660,77.8092,-0.029323
2.691,77.8092,-0.029323
2.722,77.8092,-0.029323
2.753,77.8092,-0.029323
2.784,77.8092,-0.029323
2.816,77.8092,-0.029323
2.845,77.8092,-0.029323
2.876,77.8092,-0.028880
2.907,77.8092,-0.028880
2.938,77.8092,-0.028880
2.969,77.8092,-0.028880
3.000,77.8092,-0.028880
3.032,77.8092,-0.028880
3.063,77.8092,-0.028880
3.093,77.8092,-0.028880
3.124,77.8092,-0.028495
3.155,77.8092,-0.028495
3.186,77.8092,-0.028495
3.216,77.8092,-0.028495
3.247,77.8092,-0.028495
3.278,77.8092,-0.028495
3.309,77.8092,-0.028495
3.341,77.8092,-0.028495
3.371,77.8092,-0.028137
3.404,77.8092,-0.028137
3.434,77.8092,-0.028137
3.465,77.8092,-0.028137
3.496,77.8092,-0.028137
3.527,77.8092,-0.028137
3.559,77.8092,-0.028137
3.590,77.8092,-0.028137
3.621,77.8092,-0.027817
3.652,77.8092,-0.027817
3.684,77.8092,-0.027817
3.715,77.8092,-0.027817
3.747,77.8092,-0.027817
3.778,77.8092,-0.027817
3.809,77.8092,-0.027817
3.840,77.8092,-0.027817
3.871,77.8092,-0.027478
3.902,77.8092,-0.027478
3.933,77.8092,-0.027478
3.965,77.8092,-0.027478
3.995,77.8092,-0.027478
4.027,77.8092,-0.027478
4.058,77.8091,-0.027478
4.089,77.8083,-0.027187
4.120,77.8070,-0.027187
4.152,77.8047,-0.027187
4.183,77.8016,-0.027187
4.213,77.7982,-0.027187
4.248,77.7931,-0.027187
4.273,77.7890,-0.027187
4.305,77.7832,-0.027187
4.335,77.7767,-0.027187
4.366,77.7698,-0.026039
4.398,77.7615,-0.026039
4.428,77.7531,-0.026039
4.460,77.7435,-0.026039
4.490,77.7338,-0.026039
4.522,77.7223,-0.026039
4.552,77.7113,-0.026039
4.582,77.6991,-0.026039
4.613,77.6864,-0.020468
4.644,77.6727,-0.020468
4.675,77.6580,-0.020468
4.708,77.6413,-0.020468
4.737,77.6269,-0.020468
4.768,77.6104,-0.020468
4.799,77.5928,-0.020468
4.830,77.5749,-0.020468
4.860,77.5568,-0.009975
4.891,77.5370,-0.009975
4.921,77.5171,-0.009975
4.956,77.4938,-0.009975
4.984,77.4742,-0.009975
5.015,77.4510,-0.009975
5.046,77.4283,-0.009975
5.077,77.4043,-0.009975
5.109,77.3791,0.001882
5.139,77.3539,0.001882
5.171,77.3279,0.001882
5.202,77.3007,0.001882
5.232,77.2743,0.001882
5.263,77.2459,0.001882
5.295,77.2156,0.001882
5.326,77.1860,0.001882
5.358,77.1549,0.011650
5.388,77.1247,0.011650
5.420,77.0935,0.011650
5.450,77.0620,0.011650
5.481,77.0315,0.011650
5.513,76.9995,0.011650
5.544,76.9687,0.011650
5.576,76.9365,0.017588
5.607,76.9063,0.017588
5.638,76.8742,0.017588
5.668,76.8444,0.017588
5.699,76.8129,0.017588
5.730,76.7827,0.017588
5.762,76.7505,0.017588
5.793,76.7202,0.017588
5.824,76.6882,0.017588
5.856,76.6572,0.021578
5.886,76.6266,0.021578
5.917,76.5963,0.021578
5.947,76.5660,0.021578
5.978,76.5341,0.021578
6.009,76.5035,0.021578
6.041,76.4716,0.021578
6.072,76.4413,0.021578
6.103,76.4095,0.025690
6.134,76.3791,0.025690
6.165,76.3477,0.025690
6.196,76.3170,0.025690
6.227,76.2858,0.025690
6.258,76.2553,0.025690
6.288,76.2244,0.025690
6.320,76.1927,0.025690
6.352,76.1616,0.029596
6.382,76.1305,0.029596
6.416,76.0963,0.029596
6.444,76.0685,0.029596
6.475,76.0375,0.029596
6.508,76.0048,0.029596
6.539,75.9739,0.029596
6.570,75.9433,0.029596
6.600,75.9128,0.032061
6.636,75.8761,0.032061
6.662,75.8506,0.032061
6.693,75.8200,0.032061
6.724,75.7889,0.032061
6.755,75.7574,0.032061
6.786,75.7266,0.032061
6.821,75.6914,0.032061
6.848,75.6640,0.032061
6.880,75.6331,0.032296
6.911,75.6020,0.032296
6.942,75.5711,0.032296
6.973,75.5397,0.032296
7.004,75.5087,0.032296
7.037,75.4756,0.032296
7.065,75.4482,0.032296
7.096,75.4167,0.032296
7.127,75.3862,0.020195
7.161,75.3521,0.020195
7.189,75.3240,0.020195
7.220,75.2926,0.020195
7.252,75.2614,0.020195
7.282,75.2300,0.020195
7.314,75.1990,0.020195
7.344,75.1680,0.020195
7.376,75.1374,0.007698
7.407,75.1052,0.007698
7.438,75.0752,0.007698
7.468,75.0445,0.007698
7.500,75.0132,0.007698
7.531,74.9826,0.007698
7.562,74.9507,0.007698
7.593,74.9198,0.007698
7.625,74.8882,0.006672
7.655,74.8576,0.006672
7.687,74.8257,0.006672
7.719,74.7938,0.006672
7.751,74.7623,0.006672
7.780,74.7321,0.006672
7.812,74.7014,0.006672
7.844,74.6689,0.006672
7.873,74.6397,0.006672
7.904,74.6079,0.006446
7.936,74.5774,0.006446
7.967,74.5458,0.006446
7.998,74.5149,0.006446
8.030,74.4825,0.006446
8.061,74.4514,0.006446
8.092,74.4208,0.006418
8.123,74.3905,0.006418
8.153,74.3595,0.006418
8.185,74.3275,0.006418
8.215,74.2979,0.006418
8.246,74.2667,0.006418
8.276,74.2366,0.006418
8.307,74.2050,0.006418
8.339,74.1742,0.006418
8.370,74.1428,0.006418
8.401,74.1122,0.006390
8.432,74.0808,0.006390
8.462,74.0498,0.006390
8.494,74.0189,0.006390
8.525,73.9878,0.006390
8.557,73.9563,0.006390
8.587,73.9258,0.006390
8.617,73.8953,0.006361
8.649,73.8639,0.006361
8.679,73.8338,0.006361
8.712,73.8010,0.006361
8.741,73.7719,0.006361
8.772,73.7407,0.006361
8.803,73.7101,0.006361
8.835,73.6781,0.006361
8.866,73.6467,0.006418
8.897,73.6163,0.006418
8.928,73.5846,0.006418
8.960,73.5525,0.006418
8.991,73.5222,0.006418
9.022,73.4910,0.006418
9.052,73.4608,0.006418
9.083,73.4293,0.006418
9.114,73.3997,0.006418
9.145,73.3684,0.006446
9.176,73.3400,0.006446
9.207,73.3110,0.006446
9.238,73.2826,0.006446
9.269,73.2549,0.006446
9.300,73.2289,0.006446
9.331,73.2032,0.006446
9.363,73.1775,0.006352
9.393,73.1537,0.006352
9.424,73.1303,0.006352
9.455,73.1074,0.006352
9.486,73.0855,0.006352
9.518,73.0636,0.006352
9.547,73.0437,0.006352
9.578,73.0241,0.006352
9.609,73.0045,0.006258
9.640,72.9858,0.006258
9.671,72.9684,0.006258
9.702,72.9513,0.006258
9.732,72.9351,0.006258
9.765,72.9190,0.006258
9.795,72.9042,0.006258
9.826,72.8901,0.006258
9.858,72.8764,0.006258
9.887,72.8644,0.006248
9.920,72.8516,0.006248
9.949,72.8409,0.006248
9.980,72.8303,0.006248
10.011,72.8207,0.006248
10.042,72.8116,0.006248
10.074,72.8030,0.006248
10.105,72.7953,0.006248
10.136,72.7885,0.006192
10.168,72.7822,0.006192
10.198,72.7768,0.006192
10.229,72.7722,0.006192
10.260,72.7683,0.006192
10.290,72.7650,0.006192
10.321,72.7626,0.006192
10.352,72.7607,0.006192
10.383,72.7596,0.006117
10.414,72.7592,0.006117
10.446,72.7592,0.006117
10.477,72.7592,0.006117
10.508,72.7592,0.006117
10.539,72.7592,0.006117
10.570,72.7592,0.006117
10.600,72.7592,0.006117
10.631,72.7592,0.006126
10.663,72.7592,0.006126
10.694,72.7592,0.006126
10.724,72.7592,0.006126
10.755,72.7592,0.006126
10.786,72.7592,0.006126
10.818,72.7592,0.006126
10.849,72.7592,0.006126
10.879,72.7592,0.006192
10.910,72.7592,0.006192
10.940,72.7592,0.006192
10.971,72.7596,0.006192
11.003,72.7607,0.006192
11.034,72.7626,0.006192
11.065,72.7652,0.006192
11.096,72.7684,0.006192
11.127,72.7724,0.006164
11.158,72.7771,0.006164
11.189,72.7827,0.006164
11.221,72.7891,0.006164
11.251,72.7957,0.006164
11.287,72.8047,0.006164
11.314,72.8122,0.006164
11.345,72.8212,0.006164
11.377,72.8312,0.006051
11.406,72.8414,0.006051
11.438,72.8531,0.006051
11.469,72.8648,0.006051
11.503,72.8790,0.006051
11.531,72.8913,0.006051
11.564,72.9067,0.006051
11.592,72.9200,0.006051
11.623,72.9360,0.005910
11.654,72.9521,0.005910
11.686,72.9699,0.005910
11.717,72.9877,0.005910
11.748,73.0059,0.005910
11.779,73.0250,0.005910
11.810,73.0456,0.005910
11.841,73.0667,0.005853
11.875,73.0897,0.005853
11.902,73.1095,0.005853
11.934,73.1324,0.005853
11.964,73.1562,0.005853
11.995,73.1808,0.005853
12.030,73.2091,0.005853
12.058,73.2320,0.005853
12.089,73.2583,0.005853
12.120,73.2856,0.005787
12.152,73.3155,0.005787
12.181,73.3421,0.005787
12.212,73.3716,0.005787
12.243,73.4015,0.005787
12.274,73.4328,0.005787
12.304,73.4628,0.005787
12.335,73.4932,0.005787
12.366,73.5239,0.005656
12.396,73.5543,0.005656
12.426,73.5841,0.005656
12.457,73.6161,0.005656
12.489,73.6470,0.005656
12.520,73.6782,0.005656
12.552,73.7100,0.005656
12.582,73.7410,0.005656
12.614,73.7719,0.005656
12.644,73.8029,0.005571
12.676,73.8339,0.005571
12.708,73.8667,0.005571
12.738,73.8963,0.005571
12.769,73.9279,0.005571
12.799,73.9572,0.005571
12.831,73.9889,0.005571
12.860,74.0192,0.005505
12.892,74.0497,0.005505
12.921,74.0792,0.005505
12.952,74.1101,0.005505
12.983,74.1411,0.005505
13.014,74.1721,0.005505
13.045,74.2030,0.005505
13.076,74.2337,0.005505
13.107,74.2657,0.005505
13.141,74.2995,0.005439
13.168,74.3261,0.005439
13.200,74.3579,0.005439
13.230,74.3886,0.005439
13.262,74.4213,0.005439
13.293,74.4514,0.005439
13.324,74.4823,0.005439
13.355,74.5138,0.005279
13.386,74.5445,0.005279
13.418,74.5768,0.005279
13.449,74.6069,0.005279
13.480,74.6380,0.005279
13.511,74.6692,0.005279
13.542,74.7001,0.005279
13.572,74.7311,0.005279
13.603,74.7617,0.005100
13.634,74.7926,0.005100
13.666,74.8240,0.005100
13.697,74.8557,0.005100
13.729,74.8870,0.005100
13.759,74.9177,0.005100
13.791,74.9486,0.005100
13.821,74.9791,0.005100
13.851,75.0093,0.004997
13.882,75.0403,0.004997
13.914,75.0719,0.004997
13.945,75.1030,0.004997
13.976,75.1351,0.004997
14.007,75.1651,0.004997
14.038,75.1955,0.004997
14.069,75.2275,0.004997
14.100,75.2577,0.004771
14.131,75.2888,0.004771
14.161,75.3192,0.004771
14.192,75.3507,0.004771
14.224,75.3816,0.004771
14.258,75.4165,0.004771
14.286,75.4444,0.004771
14.317,75.4751,0.004771
14.348,75.5058,0.004611
14.378,75.5367,0.004611
14.412,75.5707,0.004611
14.440,75.5989,0.004611
14.476,75.6346,0.004611
14.517,75.6759,0.004611
14.548,75.7061,0.004611
14.579,75.7368,0.004611
14.609,75.7675,0.004423
14.641,75.7993,0.004423
14.671,75.8294,0.004423
14.702,75.8604,0.004423
14.733,75.8911,0.004423
14.764,75.9221,0.004423
14.797,75.9558,0.004423
14.826,75.9844,0.004423
14.857,76.0155,0.004423
14.888,76.0462,0.004141
14.919,76.0771,0.004141
14.950,76.1080,0.004141
14.982,76.1397,0.004141
15.013,76.1716,0.004141
15.044,76.2030,0.004141
15.075,76.2329,0.004141
15.105,76.2636,0.004141
15.136,76.2941,0.004141
15.167,76.3250,0.003736
15.198,76.3560,0.003736
15.229,76.3868,0.003736
15.260,76.4183,0.003736
15.292,76.4502,0.003736
15.322,76.4800,0.003736
15.355,76.5125,0.003736
15.384,76.5421,0.003049
15.416,76.5741,0.003049
15.447,76.6047,0.003049
15.478,76.6363,0.003049
15.511,76.6693,0.003049
15.540,76.6976,0.003049
15.571,76.7295,0.003049
15.602,76.7601,0.001910
15.633,76.7912,0.001910
15.664,76.8219,0.001910
15.695,76.8541,0.001910
15.726,76.8842,0.001910
15.758,76.9170,0.001910
15.789,76.9470,0.001910
15.820,76.9789,0.001910
15.851,77.0090,-0.000442
15.882,77.0405,-0.000442
15.913,77.0710,-0.000442
15.945,77.1033,-0.000442
15.976,77.1330,-0.000442
16.006,77.1630,-0.000442
16.037,77.1912,-0.000442
16.068,77.2198,-0.000442
16.099,77.2477,-0.005411
16.131,77.2749,-0.005411
16.162,77.3021,-0.005411
16.193,77.3270,-0.005411
16.224,77.3519,-0.005411
16.255,77.3759,-0.005411
16.286,77.3989,-0.005411
16.317,77.4216,-0.005411
16.351,77.4457,-0.013654
16.379,77.4648,-0.013654
16.410,77.4848,-0.013654
16.443,77.5053,-0.013654
16.472,77.5236,-0.013654
16.503,77.5413,-0.013654
16.535,77.5592,-0.013654
16.565,77.5758,-0.013654
16.600,77.5935,-0.024119
16.628,77.6073,-0.024119
16.662,77.6230,-0.024119
16.690,77.6354,-0.024119
16.722,77.6487,-0.024119
16.751,77.6607,-0.024119
16.783,77.6725,-0.024119
16.814,77.6832,-0.024119
16.845,77.6936,-0.024119
16.875,77.7028,-0.034395
16.907,77.7118,-0.034395
16.941,77.7204,-0.034395
16.968,77.7267,-0.034395
17.003,77.7339,-0.034395
17.031,77.7390,-0.034395
17.061,77.7440,-0.034395
17.093,77.7486,-0.041650
17.124,77.7520,-0.041650
17.155,77.7549,-0.041650
17.187,77.7571,-0.041650
17.217,77.7585,-0.041650
17.248,77.7591,-0.041650
17.279,77.7592,-0.041650
17.309,77.7592,-0.041650
17.340,77.7592,-0.043899
17.371,77.7592,-0.043899
17.402,77.7592,-0.043899
17.433,77.7592,-0.043899
17.463,77.7592,-0.043899
17.494,77.7592,-0.043899
17.524,77.7592,-0.043899
17.555,77.7592,-0.043899
17.586,77.7592,-0.041970
17.617,77.7592,-0.041970
17.651,77.7592,-0.041970
17.679,77.7592,-0.041970
17.711,77.7592,-0.041970
17.741,77.7592,-0.041970
17.771,77.7592,-0.041970
17.802,77.7592,-0.041970
17.834,77.7592,-0.041970
17.864,77.7592,-0.039185
17.896,77.7592,-0.039185
17.925,77.7592,-0.039185
17.959,77.7592,-0.039185
17.989,77.7592,-0.039185
18.020,77.7592,-0.039185
18.051,77.7592,-0.039185
18.082,77.7592,-0.039185
18.112,77.7592,-0.037209
18.143,77.7592,-0.037209
18.174,77.7592,-0.037209
18.206,77.7592,-0.037209
18.237,77.7592,-0.037209
18.268,77.7592,-0.037209
18.299,77.7592,-0.037209
18.330,77.7592,-0.037209
18.362,77.7592,-0.037209
18.392,77.7592,-0.035712
18.424,77.7592,-0.035712
18.455,77.7592,-0.035712
18.486,77.7592,-0.035712
18.517,77.7592,-0.035712
18.548,77.7592,-0.035712
18.580,77.7592,-0.035712
18.611,77.7592,-0.034442
18.642,77.7592,-0.034442
18.672,77.7592,-0.034442
18.704,77.7592,-0.034442
18.734,77.7592,-0.034442
18.765,77.7592,-0.034442
18.797,77.7592,-0.034442
18.828,77.7592,-0.034442
18.858,77.7592,-0.033463
18.889,77.7592,-0.033463
18.921,77.7592,-0.033463
18.952,77.7592,-0.033463
18.983,77.7592,-0.033463
19.014,77.7592,-0.033463
19.045,77.7592,-0.033463
19.076,77.7592,-0.033463
19.107,77.7592,-0.032616
19.141,77.7592,-0.032616
19.170,77.7592,-0.032616
19.201,77.7592,-0.032616
19.232,77.7592,-0.032616
19.262,77.7592,-0.032616
19.293,77.7592,-0.032616
19.324,77.7592,-0.032616
19.355,77.7592,-0.031854
19.385,77.7592,-0.031854
19.415,77.7592,-0.031854
19.446,77.7592,-0.031854
19.477,77.7592,-0.031854
19.508,77.7592,-0.031854
19.539,77.7592,-0.031854
19.570,77.7592,-0.031854
19.601,77.7592,-0.031214
19.631,77.7592,-0.031214
19.662,77.7592,-0.031214
19.693,77.7592,-0.031214
19.724,77.7592,-0.031214
19.755,77.7592,-0.031214
19.787,77.7592,-0.031214
19.817,77.7592,-0.031214
19.848,77.7592,-0.030584
19.879,77.7592,-0.030584
19.910,77.7592,-0.030584
19.940,77.7592,-0.030584
19.972,77.7592,-0.030584
20.002,77.7592,-0.030584
20.033,77.7592,-0.030584
20.064,77.7592,-0.030584
20.095,77.7592,-0.030094
20.126,77.7592,-0.030094
20.157,77.7592,-0.030094
20.187,77.7592,-0.030094
20.218,77.7592,-0.030094
20.249,77.7592,-0.030094
20.280,77.7592,-0.030094
20.311,77.7592,-0.030094
20.342,77.7592,-0.029662
20.372,77.7592,-0.029662
20.404,77.7592,-0.029662
20.435,77.7592,-0.029662
20.466,77.7592,-0.029662
20.497,77.7592,-0.029662
20.528,77.7592,-0.029662
20.559,77.7592,-0.029662
20.591,77.7592,-0.029662
20.621,77.7592,-0.029191
20.652,77.7592,-0.029191
20.687,77.7592,-0.029191
20.715,77.7592,-0.029191
20.747,77.7592,-0.029191
20.778,77.7592,-0.029191
20.809,77.7592,-0.029191
20.842,77.7592,-0.029191
20.870,77.7592,-0.029191
20.902,77.7592,-0.028786
20.932,77.7592,-0.028786
20.963,77.7592,-0.028786
20.994,77.7592,-0.028786
21.025,77.7592,-0.028786
21.056,77.7592,-0.028786
21.087,77.7592,-0.028786
21.117,77.7592,-0.028786
21.148,77.7592,-0.028429
21.179,77.7592,-0.028429
21.210,77.7592,-0.028429
21.241,77.7592,-0.028429
21.272,77.7592,-0.028429
21.303,77.7592,-0.028429
21.334,77.7592,-0.028429
21.366,77.7592,-0.028015
21.396,77.7592,-0.028015
21.428,77.7592,-0.028015
21.459,77.7592,-0.028015
21.491,77.7592,-0.028015
21.523,77.7592,-0.028015
21.554,77.7592,-0.028015
21.585,77.7592,-0.028015
21.617,77.7592,-0.027667
21.647,77.7592,-0.027667
21.678,77.7592,-0.027667
21.709,77.7592,-0.027667
21.739,77.7592,-0.027667
21.771,77.7592,-0.027667
21.801,77.7592,-0.027667
21.832,77.7592,-0.027667
21.863,77.7592,-0.027667
21.894,77.7592,-0.027412
21.924,77.7592,-0.027412
21.955,77.7592,-0.027412
21.986,77.7592,-0.027412
22.019,77.7592,-0.027412
22.049,77.7592,-0.027412
22.079,77.7592,-0.027412
22.110,77.7592,-0.027111
22.141,77.7592,-0.027111
22.171,77.7592,-0.027111
22.204,77.7592,-0.027111
22.234,77.7592,-0.027111
22.264,77.7591,-0.027111
22.295,77.7582,-0.027111
22.326,77.7566,-0.027111
22.358,77.7543,-0.026782
22.389,77.7510,-0.026782
22.420,77.7474,-0.026782
22.451,77.7429,-0.026782
22.482,77.7376,-0.026782
22.512,77.7317,-0.026782
22.543,77.7250,-0.026782
22.575,77.7177,-0.026782
22.605,77.7095,-0.025050
22.636,77.7004,-0.025050
22.668,77.6909,-0.025050
22.700,77.6803,-0.025050
22.730,77.6694,-0.025050
22.762,77.6575,-0.025050
22.792,77.6452,-0.025050
22.823,77.6322,-0.025050
22.854,77.6181,-0.018444
22.885,77.6031,-0.018444
22.916,77.5878,-0.018444
22.947,77.5715,-0.018444
22.978,77.5548,-0.018444
23.009,77.5371,-0.018444
23.040,77.5187,-0.018444
23.071,77.4996,-0.018444
23.102,77.4799,-0.007359
23.138,77.4560,-0.007359
23.164,77.4379,-0.007359
23.195,77.4162,-0.007359
23.226,77.3935,-0.007359
23.256,77.3707,-0.007359
23.287,77.3466,-0.007359
23.318,77.3214,-0.007359
23.350,77.2951,0.004244
23.381,77.2696,0.004244
23.412,77.2424,0.004244
23.442,77.2146,0.004244
23.473,77.1871,0.004244
23.505,77.1566,0.004244
23.536,77.1268,0.004244
23.567,77.0950,0.004244
23.598,77.0649,0.013316
23.629,77.0336,0.013316
23.660,77.0016,0.013316
23.691,76.9717,0.013316
23.723,76.9400,0.013316
23.754,76.9095,0.013316
23.784,76.8790,0.013316
23.816,76.8469,0.013316
23.846,76.8169,0.013316
23.877,76.7856,0.018821
23.908,76.7550,0.018821
23.940,76.7229,0.018821
23.970,76.6927,0.018821
24.002,76.6607,0.018821
24.032,76.6302,0.018821
24.064,76.5984,0.018821
24.094,76.5690,0.022905
24.127,76.5351,0.022905
24.155,76.5075,0.022905
24.187,76.4757,0.022905
24.219,76.4443,0.022905
24.250,76.4131,0.022905
24.280,76.3821,0.022905
24.310,76.3525,0.022905
24.342,76.3209,0.022905
24.372,76.2905,0.022905
24.403,76.2604,0.027111
24.433,76.2299,0.027111
24.465,76.1981,0.027111
24.495,76.1679,0.027111
24.526,76.1369,0.027111
24.557,76.1052,0.027111
24.588,76.0749,0.027111
24.620,76.0430,0.030584
24.650,76.0125,0.030584
24.682,75.9806,0.030584
24.715,75.9482,0.030584
24.745,75.9172,0.030584
24.776,75.8860,0.030584
24.807,75.8557,0.030584
24.839,75.8233,0.030584
24.869,75.7944,0.030584
24.899,75.7634,0.032456
24.930,75.7329,0.032456
24.961,75.7020,0.032456
24.992,75.6703,0.032456
25.023,75.6395,0.032456
25.054,75.6092,0.032456
25.085,75.5777,0.032456
25.116,75.5466,0.031760
25.150,75.5130,0.031760
25.179,75.4839,0.031760
25.211,75.4519,0.031760
25.241,75.4218,0.031760
25.272,75.3909,0.031760
25.303,75.3600,0.031760
25.332,75.3305,0.031760
25.364,75.2993,0.019244
25.401,75.2621,0.019244
25.441,75.2217,0.019244
25.472,75.1912,0.019244
25.503,75.1598,0.019244
25.534,75.1286,0.019244
25.565,75.0978,0.019244
25.596,75.0670,0.007321
25.627,75.0357,0.007321
25.659,75.0039,0.007321
25.691,74.9714,0.007321
25.723,74.9402,0.007321
25.755,74.9083,0.007321
25.785,74.8779,0.007321
25.815,74.8478,0.007321
25.846,74.8160,0.006616
25.877,74.7861,0.006616
25.907,74.7560,0.006616
25.939,74.7241,0.006616
25.970,74.6931,0.006616
26.001,74.6616,0.006616
26.032,74.6312,0.006616
26.063,74.5996,0.006616
26.093,74.5703,0.006493
26.125,74.5382,0.006493
26.155,74.5077,0.006493
26.187,74.4756,0.006493
26.218,74.4452,0.006493
26.248,74.4142,0.006493
26.279,74.3839,0.006493
26.310,74.3535,0.006493
26.340,74.3230,0.006399
26.372,74.2914,0.006399
26.402,74.2600,0.006399
26.435,74.2277,0.006399
26.465,74.1985,0.006399
26.496,74.1669,0.006399
26.526,74.1366,0.006399
26.557,74.1062,0.006399
26.587,74.0757,0.006399
26.619,74.0440,0.006343
26.650,74.0136,0.006343
26.681,73.9821,0.006343
26.712,73.9511,0.006343
26.743,73.9193,0.006343
26.774,73.8891,0.006343
26.805,73.8578,0.006343
26.836,73.8271,0.006343
26.867,73.7959,0.006390
26.897,73.7659,0.006390
26.929,73.7343,0.006390
26.959,73.7033,0.006390
26.990,73.6725,0.006390
27.020,73.6419,0.006390
27.047,73.6155,0.006390
27.082,73.5800,0.006390
27.114,73.5485,0.006390
27.145,73.5171,0.006418
27.176,73.4869,0.006418
27.209,73.4536,0.006418
27.237,73.4258,0.006418
27.268,73.3951,0.006418
27.299,73.3635,0.006418
27.329,73.3337,0.006418
27.360,73.3036,0.006427
27.391,73.2754,0.006427
27.422,73.2474,0.006427
27.453,73.2191,0.006427
27.484,73.1927,0.006427
27.516,73.1661,0.006427
27.546,73.1412,0.006427
27.577,73.1165,0.006427
27.608,73.0927,0.006343
27.640,73.0690,0.006343
27.670,73.0466,0.006343
27.701,73.0248,0.006343
27.732,73.0037,0.006343
27.763,72.9837,0.006343
27.795,72.9635,0.006343
27.825,72.9451,0.006343
27.856,72.9265,0.006277
27.887,72.9094,0.006277
27.919,72.8924,0.006277
27.950,72.8763,0.006277
27.981,72.8607,0.006277
28.012,72.8462,0.006277
28.043,72.8325,0.006277
28.074,72.8196,0.006277
28.105,72.8076,0.006248
28.136,72.7961,0.006248
28.167,72.7849,0.006248
28.198,72.7747,0.006248
28.230,72.7653,0.006248
28.261,72.7566,0.006248
28.292,72.7484,0.006248
28.323,72.7414,0.006248
28.354,72.7348,0.006248
28.385,72.7291,0.006145
28.416,72.7240,0.006145
28.447,72.7199,0.006145
28.479,72.7162,0.006145
28.510,72.7133,0.006145
28.541,72.7112,0.006145
28.571,72.7100,0.006145
28.602,72.7092,0.006070
28.633,72.7092,0.006070
28.665,72.7092,0.006070
28.694,72.7092,0.006070
28.725,72.7092,0.006070
28.756,72.7092,0.006070
28.787,72.7092,0.006070
28.819,72.7092,0.006070
28.850,72.7092,0.006079
28.881,72.7092,0.006079
28.912,72.7092,0.006079
28.946,72.7092,0.006079
28.973,72.7092,0.006079
29.004,72.7092,0.006079
29.034,72.7092,0.006079
29.065,72.7092,0.006079
29.096,72.7092,0.006164
29.127,72.7092,0.006164
29.158,72.7092,0.006164
29.189,72.7092,0.006164
29.219,72.7092,0.006164
29.251,72.7097,0.006164
29.282,72.7108,0.006164
29.313,72.7127,0.006164
29.344,72.7153,0.006154
29.375,72.7188,0.006154
29.406,72.7229,0.006154
29.437,72.7276,0.006154
29.468,72.7330,0.006154
29.499,72.7392,0.006154
29.530,72.7463,0.006154
29.561,72.7539,0.006154
29.592,72.7623,0.006079
29.622,72.7715,0.006079
29.652,72.7809,0.006079
29.683,72.7913,0.006079
29.714,72.8027,0.006079
29.745,72.8149,0.006079
29.776,72.8274,0.006079
29.810,72.8427,0.006079
29.837,72.8545,0.006079
29.869,72.8702,0.005985
29.898,72.8850,0.005985
29.929,72.9013,0.005985
29.961,72.9188,0.005985
29.992,72.9371,0.005985
30.024,72.9562,0.005985
30.055,72.9753,0.005985
30.086,72.9959,0.005900
30.118,73.0163,0.005900
30.147,73.0368,0.005900
30.179,73.0597,0.005900
30.209,73.0821,0.005900
30.241,73.1070,0.005900
30.272,73.1305,0.005900
30.303,73.1562,0.005900
30.334,73.1818,0.005900
30.365,73.2089,0.005769
30.396,73.2352,0.005769
30.427,73.2644,0.005769
30.457,73.2918,0.005769
30.488,73.3217,0.005769
30.520,73.3520,0.005769
30.551,73.3828,0.005769
30.581,73.4134,0.005627
30.614,73.4472,0.005627
30.643,73.4746,0.005627
30.677,73.5088,0.005627
30.705,73.5375,0.005627
30.736,73.5680,0.005627
30.767,73.5996,0.005627
30.801,73.6327,0.005627
30.829,73.6609,0.005627
30.860,73.6920,0.005590
30.891,73.7230,0.005590
30.922,73.7545,0.005590
30.954,73.7860,0.005590
30.987,73.8197,0.005590
31.016,73.8478,0.005590
31.047,73.8788,0.005590
31.078,73.9099,0.005590
31.109,73.9405,0.005552
31.139,73.9713,0.005552
31.170,74.0022,0.005552
31.201,74.0327,0.005552
31.233,74.0653,0.005552
31.262,74.0937,0.005552
31.294,74.1256,0.005552
31.324,74.1561,0.005552
31.355,74.1873,0.005430
31.385,74.2170,0.005430
31.417,74.2497,0.005430
31.449,74.2810,0.005430
31.483,74.3158,0.005430
31.511,74.3437,0.005430
31.542,74.3744,0.005430
31.573,74.4048,0.005430
31.604,74.4363,0.005260
31.638,74.4699,0.005260
31.666,74.4973,0.005260
31.697,74.5289,0.005260
31.729,74.5603,0.005260
31.758,74.5899,0.005260
31.789,74.6217,0.005260
31.820,74.6519,0.005260
31.851,74.6826,0.005260
31.882,74.7141,0.005157
31.913,74.7441,0.005157
31.946,74.7778,0.005157
31.975,74.8068,0.005157
32.005,74.8367,0.005157
32.036,74.8681,0.005157
32.070,74.9022,0.005157
32.098,74.9300,0.005157
32.130,74.9625,0.005016
32.161,74.9933,0.005016
32.192,75.0244,0.005016
32.223,75.0549,0.005016
32.254,75.0861,0.005016
32.286,75.1174,0.005016
32.317,75.1487,0.005016
32.348,75.1797,0.005016
32.379,75.2109,0.004790
32.410,75.2413,0.004790
32.441,75.2730,0.004790
32.471,75.3031,0.004790
32.503,75.3351,0.004790
32.529,75.3618,0.004790
32.566,75.3979,0.004790
32.597,75.4285,0.004790
32.627,75.4592,0.004620
32.659,75.4910,0.004620
32.690,75.5213,0.004620
32.720,75.5528,0.004620
32.752,75.5834,0.004620
32.782,75.6141,0.004620
32.815,75.6478,0.004620
32.844,75.6753,0.004620
32.874,75.7066,0.004470
32.906,75.7376,0.004470
32.937,75.7701,0.004470
32.969,75.8014,0.004470
33.000,75.8323,0.004470
33.031,75.8625,0.004470
33.062,75.8943,0.004470
33.093,75.9252,0.004169
33.125,75.9570,0.004169
33.156,75.9875,0.004169
33.186,76.0178,0.004169
33.217,76.0484,0.004169
33.249,76.0817,0.004169
33.278,76.1103,0.004169
33.309,76.1408,0.004169
33.340,76.1723,0.003745
33.371,76.2031,0.003745
33.403,76.2342,0.003745
33.433,76.2654,0.003745
33.465,76.2962,0.003745
33.496,76.3284,0.003745
33.527,76.3581,0.003745
33.558,76.3907,0.003745
33.589,76.4208,0.003745
33.619,76.4518,0.003162
33.651,76.4824,0.003162
33.681,76.5130,0.003162
33.712,76.5435,0.003162
33.743,76.5754,0.003162
33.774,76.6057,0.003162
33.806,76.6379,0.003162
33.836,76.6678,0.002089
33.866,76.6988,0.002089
33.897,76.7287,0.002089
33.928,76.7601,0.002089
33.959,76.7905,0.002089
33.989,76.8206,0.002089
34.020,76.8525,0.002089
34.051,76.8830,0.002089
34.082,76.9150,0.002089
34.114,76.9455,-0.000132
34.145,76.9775,-0.000132
34.177,77.0090,-0.000132
34.208,77.0395,-0.000132
34.239,77.0705,-0.000132
34.270,77.1005,-0.000132
34.301,77.1299,-0.000132
34.332,77.1587,-0.000132
34.363,77.1866,-0.004724
34.394,77.2143,-0.004724
34.425,77.2403,-0.004724
34.456,77.2664,-0.004724
34.487,77.2917,-0.004724
34.519,77.3167,-0.004724
34.550,77.3398,-0.004724
34.583,77.3642,-0.004724
34.611,77.3841,-0.004724
34.642,77.4055,-0.012563
34.673,77.4257,-0.012563
34.704,77.4463,-0.012563
34.734,77.4645,-0.012563
34.766,77.4839,-0.012563
34.797,77.5014,-0.012563
34.831,77.5200,-0.012563
34.858,77.5340,-0.012563
34.889,77.5499,-0.022924
34.921,77.5651,-0.022924
34.952,77.5790,-0.022924
34.982,77.5923,-0.022924
35.013,77.6048,-0.022924
35.044,77.6170,-0.022924
35.075,77.6283,-0.022924
35.107,77.6389,-0.033303
35.138,77.6485,-0.033303
35.169,77.6575,-0.033303
35.200,77.6660,-0.033303
35.230,77.6735,-0.033303
35.261,77.6801,-0.033303
35.292,77.6863,-0.033303
35.324,77.6920,-0.033303
35.355,77.6967,-0.040850
35.386,77.7004,-0.040850
35.417,77.7037,-0.040850
35.448,77.7061,-0.040850
35.479,77.7080,-0.040850
35.510,77.7090,-0.040850
35.541,77.7092,-0.040850
35.572,77.7092,-0.040850
35.602,77.7092,-0.040850
35.633,77.7092,-0.043627
35.666,77.7092,-0.043627
35.694,77.7092,-0.043627
35.726,77.7092,-0.043627
35.755,77.7092,-0.043627
35.786,77.7092,-0.043627
35.817,77.7092,-0.043627
35.843,77.7092,-0.043627
35.879,77.7092,-0.042055
35.909,77.7092,-0.042055
35.941,77.7092,-0.042055
35.972,77.7092,-0.042055
36.003,77.7092,-0.042055
36.034,77.7092,-0.042055
36.065,77.7092,-0.042055
36.097,77.7092,-0.042055
36.128,77.7092,-0.039213
36.159,77.7092,-0.039213
36.191,77.7092,-0.039213
36.221,77.7092,-0.039213
36.252,77.7092,-0.039213
36.284,77.7092,-0.039213
36.317,77.7092,-0.039213
36.344,77.7092,-0.039213
36.377,77.7092,-0.037124
36.408,77.7092,-0.037124
36.441,77.7092,-0.037124
36.470,77.7092,-0.037124
36.502,77.7092,-0.037124
36.533,77.7092,-0.037124
36.565,77.7092,-0.037124
36.595,77.7092,-0.035618
36.626,77.7092,-0.035618
36.657,77.7092,-0.035618
36.688,77.7092,-0.035618
36.719,77.7092,-0.035618
36.750,77.7092,-0.035618
36.781,77.7092,-0.035618
36.812,77.7092,-0.035618
36.844,77.7092,-0.035618
36.873,77.7092,-0.034395
36.904,77.7092,-0.034395
36.934,77.7092,-0.034395
36.965,77.7092,-0.034395
36.998,77.7092,-0.034395
37.028,77.7092,-0.034395
37.059,77.7092,-0.034395
37.090,77.7092,-0.033350
37.120,77.7092,-0.033350
37.151,77.7092,-0.033350
37.181,77.7092,-0.033350
37.213,77.7092,-0.033350
37.245,77.7092,-0.033350
37.275,77.7092,-0.033350
37.307,77.7092,-0.033350
37.338,77.7092,-0.032532
37.369,77.7092,-0.032532
37.399,77.7092,-0.032532
37.431,77.7092,-0.032532
37.462,77.7092,-0.032532
37.493,77.7092,-0.032532
37.524,77.7092,-0.032532
37.556,77.7092,-0.032532
37.589,77.7092,-0.032532
37.619,77.7092,-0.031779
37.650,77.7092,-0.031779
37.681,77.7092,-0.031779
37.712,77.7092,-0.031779
37.743,77.7092,-0.031779
37.775,77.7092,-0.031779
37.806,77.7092,-0.031779
37.838,77.7092,-0.031779
37.868,77.7092,-0.031083
37.899,77.7092,-0.031083
37.930,77.7092,-0.031083
37.961,77.7092,-0.031083
37.992,77.7092,-0.031083
38.023,77.7092,-0.031083
38.054,77.7092,-0.031083
38.088,77.7092,-0.031083
38.116,77.7092,-0.031083
38.147,77.7092,-0.030556
38.178,77.7092,-0.030556
38.208,77.7092,-0.030556
38.240,77.7092,-0.030556
38.270,77.7092,-0.030556
38.304,77.7092,-0.030556
38.331,77.7092,-0.030556
38.362,77.7092,-0.030019
38.394,77.7092,-0.030019
38.425,77.7092,-0.030019
38.456,77.7092,-0.030019
38.487,77.7092,-0.030019
38.518,77.7092,-0.030019
38.549,77.7092,-0.030019
38.580,77.7092,-0.030019
38.611,77.7092,-0.030019
38.642,77.7092,-0.029483
38.673,77.7092,-0.029483
38.704,77.7092,-0.029483
38.736,77.7092,-0.029483
38.766,77.7092,-0.029483
38.796,77.7092,-0.029483
38.827,77.7092,-0.029483
38.859,77.7092,-0.029483
38.889,77.7092,-0.029031
38.920,77.7092,-0.029031
38.951,77.7092,-0.029031
38.982,77.7092,-0.029031
39.012,77.7092,-0.029031
39.042,77.7092,-0.029031
39.074,77.7092,-0.029031
39.105,77.7092,-0.029031
39.138,77.7092,-0.028598
39.167,77.7092,-0.028598
39.200,77.7092,-0.028598
39.229,77.7092,-0.028598
39.262,77.7092,-0.028598
39.292,77.7092,-0.028598
39.323,77.7092,-0.028598
39.354,77.7092,-0.028259
39.384,77.7092,-0.028259
39.416,77.7092,-0.028259
39.447,77.7092,-0.028259
39.477,77.7092,-0.028259
39.508,77.7092,-0.028259
39.539,77.7092,-0.028259
39.571,77.7092,-0.028259
39.601,77.7092,-0.027949
39.632,77.7092,-0.027949
39.664,77.7092,-0.027949
39.694,77.7092,-0.027949
39.726,77.7092,-0.027949
39.757,77.7092,-0.027949
39.787,77.7092,-0.027949
39.818,77.7092,-0.027949
39.850,77.7092,-0.027629
39.880,77.7092,-0.027629
39.911,77.7092,-0.027629
39.942,77.7092,-0.027629
39.973,77.7092,-0.027629
40.004,77.7092,-0.027629
40.036,77.7092,-0.027629
40.065,77.7092,-0.027629
40.096,77.7092,-0.027629
40.127,77.7092,-0.027328
40.157,77.7092,-0.027328
40.188,77.7092,-0.027328
40.219,77.7092,-0.027328
40.250,77.7092,-0.027328
40.283,77.7092,-0.027328
40.311,77.7092,-0.027328
40.343,77.7092,-0.027328
40.374,77.7092,-0.026970
40.405,77.7092,-0.026970
40.436,77.7092,-0.026970
40.467,77.7092,-0.026970
40.498,77.7092,-0.026970
40.529,77.7092,-0.026970
40.558,77.7092,-0.026970
40.589,77.7092,-0.026970
40.620,77.7092,-0.026970
40.652,77.7091,-0.026613
40.683,77.7085,-0.026613
40.714,77.7070,-0.026613
40.745,77.7049,-0.026613
40.776,77.7020,-0.026613
40.807,77.6983,-0.026613
40.839,77.6940,-0.026613
40.869,77.6889,-0.026274
40.907,77.6817,-0.026274
40.947,77.6730,-0.026274
40.977,77.6656,-0.026274
41.009,77.6569,-0.026274
41.040,77.6478,-0.026274
41.072,77.6378,-0.026274
41.103,77.6271,-0.026274
41.135,77.6152,-0.022830
41.165,77.6041,-0.022830
41.196,77.5914,-0.022830
41.228,77.5775,-0.022830
41.261,77.5620,-0.022830
41.289,77.5485,-0.022830
41.321,77.5324,-0.022830
41.352,77.5160,-0.022830
41.383,77.4990,-0.013843
41.414,77.4812,-0.013843
41.447,77.4612,-0.013843
41.476,77.4436,-0.013843
41.507,77.4231,-0.013843
41.538,77.4027,-0.013843
41.568,77.3810,-0.013843
41.593,77.3631,-0.013843
41.631,77.3356,-0.002089
41.661,77.3125,-0.002089
41.692,77.2884,-0.002089
41.723,77.2634,-0.002089
41.757,77.2352,-0.002089
41.785,77.2113,-0.002089
41.816,77.1835,-0.002089
41.846,77.1567,0.008723
41.878,77.1260,0.008723
41.909,77.0978,0.008723
41.940,77.0674,0.008723
41.970,77.0369,0.008723
42.006,77.0011,0.008723
42.032,76.9749,0.008723
42.063,76.9445,0.008723
42.094,76.9128,0.016120
42.128,76.8790,0.016120
42.155,76.8514,0.016120
42.187,76.8199,0.016120
42.217,76.7894,0.016120
42.249,76.7588,0.016120
42.280,76.7269,0.016120
42.311,76.6965,0.016120
42.343,76.6635,0.016120
42.374,76.6332,0.020628
42.405,76.6022,0.020628
42.436,76.5716,0.020628
42.467,76.5409,0.020628
42.498,76.5092,0.020628
42.529,76.4786,0.020628
42.560,76.4472,0.020628
42.591,76.4160,0.020628
42.622,76.3857,0.024702
42.654,76.3534,0.024702
42.684,76.3238,0.024702
42.715,76.2919,0.024702
42.746,76.2619,0.024702
42.777,76.2301,0.024702
42.809,76.1988,0.024702
42.840,76.1674,0.024702
42.870,76.1374,0.028786
42.903,76.1039,0.028786
42.932,76.0750,0.028786
42.964,76.0437,0.028786
42.994,76.0138,0.028786
43.025,75.9818,0.028786
43.055,75.9521,0.028786
43.093,75.9152,0.028786
43.133,75.8746,0.031704
43.165,75.8424,0.031704
43.196,75.8113,0.031704
43.227,75.7803,0.031704
43.259,75.7486,0.031704
43.290,75.7172,0.031704
43.321,75.6863,0.031704
43.351,75.6565,0.032776
43.383,75.6244,0.032776
43.413,75.5948,0.032776
43.445,75.5628,0.032776
43.475,75.5325,0.032776
43.507,75.4996,0.032776
43.538,75.4695,0.032776
43.570,75.4373,0.032776
43.601,75.4071,0.024288
43.631,75.3761,0.024288
43.662,75.3455,0.024288
43.693,75.3150,0.024288
43.723,75.2837,0.024288
43.754,75.2533,0.024288
43.785,75.2222,0.024288
43.817,75.1898,0.024288
43.848,75.1597,0.024288
43.879,75.1287,0.011452
43.910,75.0977,0.011452
43.941,75.0658,0.011452
43.971,75.0364,0.011452
44.003,75.0042,0.011452
44.034,74.9735,0.011452
44.065,74.9427,0.011452
44.095,74.9126,0.006870
44.128,74.8790,0.006870
44.158,74.8495,0.006870
44.189,74.8183,0.006870
44.220,74.7872,0.006870
44.254,74.7513,0.006870
44.282,74.7255,0.006870
44.314,74.6936,0.006870
44.345,74.6617,0.006550
44.376,74.6316,0.006550
44.406,74.6006,0.006550
44.438,74.5700,0.006550
44.469,74.5382,0.006550
44.499,74.5083,0.006550
44.530,74.4766,0.006550
44.562,74.4462,0.006550
44.593,74.4141,0.006550
44.623,74.3843,0.006437
44.654,74.3528,0.006437
44.685,74.3227,0.006437
44.717,74.2912,0.006437
44.750,74.2572,0.006437
44.779,74.2277,0.006437
44.811,74.1962,0.006437
44.841,74.1668,0.006333
44.872,74.1358,0.006333
44.902,74.1056,0.006333
44.934,74.0736,0.006333
44.964,74.0425,0.006333
44.996,74.0120,0.006333
45.027,73.9804,0.006333
45.058,73.9496,0.006333
45.089,73.9185,0.006333
45.121,73.8866,0.006380
45.151,73.8567,0.006380
45.182,73.8256,0.006380
45.213,73.7941,0.006380
45.244,73.7637,0.006380
45.274,73.7326,0.006380
45.305,73.7027,0.006380
45.336,73.6713,0.006380
45.367,73.6408,0.006427
45.398,73.6092,0.006427
45.428,73.5783,0.006427
45.460,73.5473,0.006427
45.491,73.5164,0.006427
45.522,73.4857,0.006427
45.554,73.4537,0.006427
45.584,73.4229,0.006427
45.615,73.3916,0.006352
45.645,73.3622,0.006352
45.676,73.3305,0.006352
45.712,73.2960,0.006352
45.739,73.2699,0.006352
45.769,73.2408,0.006352
45.800,73.2126,0.006352
45.834,73.1811,0.006352
45.861,73.1578,0.006286
45.892,73.1315,0.006286
45.923,73.1057,0.006286
45.955,73.0798,0.006286
45.985,73.0563,0.006286
46.015,73.0329,0.006286
46.045,73.0109,0.006286
46.077,72.9878,0.006286
46.107,72.9670,0.006314
46.138,72.9462,0.006314
46.169,72.9263,0.006314
46.200,72.9067,0.006314
46.231,72.8885,0.006314
46.261,72.8706,0.006314
46.293,72.8535,0.006314
46.323,72.8371,0.006314
46.355,72.8207,0.006286
46.386,72.8059,0.006286
46.417,72.7921,0.006286
46.448,72.7783,0.006286
46.478,72.7658,0.006286
46.509,72.7535,0.006286
46.539,72.7426,0.006286
46.570,72.7318,0.006286
46.602,72.7220,0.006286
46.632,72.7128,0.006164
46.663,72.7045,0.006164
46.694,72.6965,0.006164
46.726,72.6895,0.006164
46.757,72.6831,0.006164
46.788,72.6777,0.006164
46.819,72.6728,0.006164
46.850,72.6687,0.006136
46.881,72.6652,0.006136
46.913,72.6626,0.006136
46.944,72.6607,0.006136
46.976,72.6595,0.006136
47.007,72.6591,0.006136
47.038,72.6591,0.006136
47.069,72.6591,0.006136
47.100,72.6591,0.006079
47.131,72.6591,0.006079
47.162,72.6591,0.006079
47.193,72.6591,0.006079
47.224,72.6591,0.006079
47.255,72.6591,0.006079
47.287,72.6591,0.006079
47.317,72.6591,0.006079
47.348,72.6591,0.006079
47.378,72.6591,0.006041
47.410,72.6591,0.006041
47.442,72.6591,0.006041
47.473,72.6595,0.006041
47.504,72.6606,0.006041
47.535,72.6624,0.006041
47.565,72.6648,0.006041
47.597,72.6682,0.006126
47.628,72.6722,0.006126
47.659,72.6769,0.006126
47.689,72.6823,0.006126
47.720,72.6883,0.006126
47.751,72.6955,0.006126
47.782,72.7028,0.006126
47.813,72.7113,0.006126
47.843,72.7200,0.006070
47.874,72.7298,0.006070
47.905,72.7405,0.006070
47.938,72.7525,0.006070
47.967,72.7637,0.006070
47.999,72.7763,0.006070
48.030,72.7896,0.006070
48.062,72.8049,0.006070
48.092,72.8192,0.005957
48.124,72.8349,0.005957
48.155,72.8514,0.005957
48.186,72.8686,0.005957
48.213,72.8837,0.005957
48.247,72.9047,0.005957
48.278,72.9239,0.005957
48.310,72.9445,0.005957
48.340,72.9646,0.005957
48.374,72.9884,0.005806
48.401,73.0074,0.005806
48.433,73.0314,0.005806
48.465,73.0554,0.005806
48.496,73.0799,0.005806
48.526,73.1041,0.005806
48.557,73.1294,0.005806
48.588,73.1562,0.005656
48.619,73.1839,0.005656
48.649,73.2113,0.005656
48.681,73.2393,0.005656
48.712,73.2697,0.005656
48.743,73.3000,0.005656
48.774,73.3313,0.005656
48.804,73.3610,0.005656
48.836,73.3931,0.005656
48.872,73.4296,0.005722
48.898,73.4551,0.005722
48.930,73.4862,0.005722
48.962,73.5190,0.005722
48.992,73.5485,0.005722
49.023,73.5791,0.005722
49.054,73.6099,0.005722
49.084,73.6404,0.005722
49.115,73.6715,0.005684
49.148,73.7050,0.005684
49.177,73.7332,0.005684
49.208,73.7653,0.005684
49.239,73.7957,0.005684
49.270,73.8263,0.005684
49.301,73.8574,0.005684
49.331,73.8878,0.005684
49.362,73.9187,0.005496
49.394,73.9507,0.005496
49.425,73.9816,0.005496
49.458,74.0141,0.005496
49.488,74.0450,0.005496
49.521,74.0771,0.005496
49.550,74.1070,0.005496
49.580,74.1372,0.005496
49.611,74.1676,0.005449
49.643,74.1995,0.005449
49.674,74.2306,0.005449
49.705,74.2615,0.005449
49.736,74.2930,0.005449
49.767,74.3232,0.005449
49.798,74.3544,0.005449
49.830,74.3865,0.005449
49.861,74.4169,0.005289
49.891,74.4477,0.005289
49.922,74.4781,0.005289
49.956,74.5122,0.005289
49.984,74.5401,0.005289
50.014,74.5706,0.005289
50.047,74.6036,0.005289
50.077,74.6335,0.005289
50.107,74.6635,0.005110
50.138,74.6945,0.005110
50.172,74.7285,0.005110
50.200,74.7569,0.005110
50.232,74.7884,0.005110
50.262,74.8190,0.005110
50.297,74.8534,0.005110
50.325,74.8816,0.005110
50.356,74.9133,0.004978
50.387,74.9434,0.004978
50.418,74.9753,0.004978
50.449,75.0057,0.004978
50.480,75.0369,0.004978
50.512,75.0680,0.004978
50.543,75.0997,0.004978
50.574,75.1305,0.004978
50.605,75.1623,0.004677
50.636,75.1926,0.004677
50.668,75.2255,0.004677
50.699,75.2549,0.004677
50.731,75.2873,0.004677
50.760,75.3162,0.004677
50.792,75.3477,0.004677
50.822,75.3781,0.004677
50.853,75.4094,0.004677
50.884,75.4405,0.004677
50.915,75.4719,0.004479
50.946,75.5024,0.004479
50.976,75.5331,0.004479
51.007,75.5635,0.004479
51.038,75.5946,0.004479
51.070,75.6264,0.004479
51.100,75.6565,0.004319
51.131,75.6875,0.004319
51.162,75.7188,0.004319
51.194,75.7503,0.004319
51.227,75.7834,0.004319
51.255,75.8108,0.004319
51.286,75.8429,0.004319
51.317,75.8733,0.004319
51.349,75.9053,0.003990
51.379,75.9356,0.003990
51.411,75.9673,0.003990
51.442,75.9987,0.003990
51.472,76.0287,0.003990
51.503,76.0601,0.003990
51.534,76.0909,0.003990
51.566,76.1217,0.003990
51.596,76.1523,0.003990
51.627,76.1833,0.003557
51.658,76.2148,0.003557
51.688,76.2449,0.003557
51.719,76.2757,0.003557
51.750,76.3063,0.003557
51.781,76.3377,0.003557
51.811,76.3673,0.003557
51.843,76.3993,0.003557
51.874,76.4303,0.002945
51.905,76.4612,0.002945
51.936,76.4933,0.002945
51.967,76.5232,0.002945
51.998,76.5543,0.002945
52.030,76.5867,0.002945
52.060,76.6159,0.002945
52.090,76.6466,0.002945
52.121,76.6777,0.001826
52.153,76.7095,0.001826
52.184,76.7406,0.001826
52.216,76.7727,0.001826
52.246,76.8028,0.001826
52.278,76.8340,0.001826
52.310,76.8658,0.001826
52.342,76.8978,0.001826
52.372,76.9280,-0.000499
52.402,76.9589,-0.000499
52.433,76.9893,-0.000499
52.463,77.0202,-0.000499
52.494,77.0494,-0.000499
52.525,77.0783,-0.000499
52.556,77.1074,-0.000499
52.588,77.1360,-0.005336
52.618,77.1625,-0.005336
52.649,77.1893,-0.005336
52.680,77.2146,-0.005336
52.711,77.2396,-0.005336
52.741,77.2635,-0.005336
52.773,77.2881,-0.005336
52.804,77.3111,-0.005336
52.836,77.3335,-0.013579
52.867,77.3549,-0.013579
52.898,77.3759,-0.013579
52.928,77.3957,-0.013579
52.959,77.4146,-0.013579
52.990,77.4329,-0.013579
53.022,77.4510,-0.013579
53.053,77.4681,-0.013579
53.084,77.4849,-0.013579
53.111,77.4980,-0.023996
53.147,77.5151,-0.023996
53.178,77.5294,-0.023996
53.210,77.5432,-0.023996
53.241,77.5557,-0.023996
53.272,77.5677,-0.023996
53.301,77.5786,-0.023996
53.333,77.5889,-0.034131
53.364,77.5987,-0.034131
53.395,77.6078,-0.034131
53.426,77.6162,-0.034131
53.457,77.6237,-0.034131
53.487,77.6302,-0.034131
53.519,77.6366,-0.034131
53.551,77.6421,-0.034131
53.582,77.6467,-0.034131
53.613,77.6506,-0.041312
53.644,77.6538,-0.041312
53.674,77.6562,-0.041312
53.705,77.6579,-0.041312
53.737,77.6589,-0.041312
53.769,77.6591,-0.041312
53.800,77.6591,-0.041312
53.831,77.6591,-0.041312
53.862,77.6591,-0.043504
53.893,77.6591,-0.043504
53.925,77.6591,-0.043504
53.955,77.6591,-0.043504
53.986,77.6591,-0.043504
54.017,77.6591,-0.043504
54.048,77.6591,-0.043504
54.079,77.6591,-0.043504
54.109,77.6591,-0.041735
54.140,77.6591,-0.041735
54.172,77.6591,-0.041735
54.203,77.6591,-0.041735
54.233,77.6591,-0.041735
54.263,77.6591,-0.041735
54.294,77.6591,-0.041735
54.325,77.6591,-0.041735
54.356,77.6591,-0.039119
54.388,77.6591,-0.039119
54.419,77.6591,-0.039119
54.449,77.6591,-0.039119
54.480,77.6591,-0.039119
54.510,77.6591,-0.039119
54.542,77.6591,-0.039119
54.574,77.6591,-0.039119
54.605,77.6591,-0.037199
54.636,77.6591,-0.037199
54.667,77.6591,-0.037199
54.699,77.6591,-0.037199
54.728,77.6591,-0.037199
54.759,77.6591,-0.037199
54.791,77.6591,-0.037199
54.824,77.6591,-0.037199
54.853,77.6591,-0.035694
54.884,77.6591,-0.035694
54.915,77.6591,-0.035694
54.945,77.6591,-0.035694
54.975,77.6591,-0.035694
55.007,77.6591,-0.035694
55.037,77.6591,-0.035694
55.068,77.6591,-0.035694
55.100,77.6591,-0.034470
55.130,77.6591,-0.034470
55.161,77.6591,-0.034470
55.192,77.6591,-0.034470
55.223,77.6591,-0.034470
55.255,77.6591,-0.034470
55.286,77.6591,-0.034470
55.318,77.6591,-0.034470
55.348,77.6591,-0.033492
55.379,77.6591,-0.033492
55.409,77.6591,-0.033492
55.442,77.6591,-0.033492
55.472,77.6591,-0.033492
55.504,77.6591,-0.033492
55.535,77.6591,-0.033492
55.565,77.6591,-0.033492
55.598,77.6591,-0.032645
55.628,77.6591,-0.032645
55.658,77.6591,-0.032645
55.692,77.6591,-0.032645
55.720,77.6591,-0.032645
55.751,77.6591,-0.032645
55.785,77.6591,-0.032645
55.813,77.6591,-0.032645
55.845,77.6591,-0.031807
55.875,77.6591,-0.031807
55.906,77.6591,-0.031807
55.937,77.6591,-0.031807
55.968,77.6591,-0.031807
55.999,77.6591,-0.031807
56.030,77.6591,-0.031807
56.062,77.6591,-0.031807
56.091,77.6591,-0.031807
56.122,77.6591,-0.031092
56.154,77.6591,-0.031092
56.187,77.6591,-0.031092
56.217,77.6591,-0.031092
56.249,77.6591,-0.031092
56.280,77.6591,-0.031092
56.310,77.6591,-0.031092
56.341,77.6591,-0.031092
56.372,77.6591,-0.031092
56.404,77.6591,-0.030584
56.435,77.6591,-0.030584
56.466,77.6591,-0.030584
56.497,77.6591,-0.030584
56.528,77.6591,-0.030584
56.559,77.6591,-0.030584
56.590,77.6591,-0.030584
56.622,77.6591,-0.029991
56.653,77.6591,-0.029991
56.685,77.6591,-0.029991
56.715,77.6591,-0.029991
56.746,77.6591,-0.029991
56.777,77.6591,-0.029991
56.808,77.6591,-0.029991
56.840,77.6591,-0.029991
56.871,77.6591,-0.029991
56.903,77.6591,-0.029520
56.934,77.6591,-0.029520
56.965,77.6591,-0.029520
56.996,77.6591,-0.029520
57.027,77.6591,-0.029520
57.058,77.6591,-0.029520
57.089,77.6591,-0.029520
57.120,77.6591,-0.029153
57.152,77.6591,-0.029153
57.182,77.6591,-0.029153
57.214,77.6591,-0.029153
57.246,77.6591,-0.029153
57.278,77.6591,-0.029153
57.309,77.6591,-0.029153
57.340,77.6591,-0.029153
57.372,77.6591,-0.028721
57.402,77.6591,-0.028721
57.433,77.6591,-0.028721
57.464,77.6591,-0.028721
57.495,77.6591,-0.028721
57.526,77.6591,-0.028721
57.557,77.6591,-0.028721
57.588,77.6591,-0.028721
57.619,77.6591,-0.028297
57.651,77.6591,-0.028297
57.681,77.6591,-0.028297
57.712,77.6591,-0.028297
57.742,77.6591,-0.028297
57.775,77.6591,-0.028297
57.804,77.6591,-0.028297
57.836,77.6591,-0.028297
57.866,77.6591,-0.027864
57.897,77.6591,-0.027864
57.929,77.6591,-0.027864
57.960,77.6591,-0.027864
57.990,77.6591,-0.027864
58.022,77.6591,-0.027864
58.053,77.6584,-0.027864
58.083,77.6572,-0.027864
58.113,77.6552,-0.027864
58.144,77.6523,-0.027478
58.175,77.6487,-0.027478
58.206,77.6446,-0.027478
58.238,77.6394,-0.027478
58.270,77.6337,-0.027478
58.301,77.6271,-0.027478
58.331,77.6202,-0.027478
58.363,77.6121,-0.026368
58.393,77.6038,-0.026368
58.425,77.5943,-0.026368
58.455,77.5843,-0.026368
58.486,77.5733,-0.026368
58.517,77.5617,-0.026368
58.548,77.5497,-0.026368
58.580,77.5364,-0.026368
58.610,77.5231,-0.020223
58.642,77.5081,-0.020223
58.673,77.4932,-0.020223
58.704,77.4767,-0.020223
58.735,77.4608,-0.020223
58.766,77.4430,-0.020223
58.797,77.4251,-0.020223
58.828,77.4059,-0.020223
58.859,77.3870,-0.008921
58.890,77.3658,-0.008921
58.921,77.3457,-0.008921
58.952,77.3238,-0.008921
58.984,77.3007,-0.008921
59.015,77.2773,-0.008921
59.046,77.2532,-0.008921
59.077,77.2287,0.002908
59.108,77.2024,0.002908
59.139,77.1772,0.002908
59.169,77.1504,0.002908
59.200,77.1232,0.002908
59.231,77.0942,0.002908
59.262,77.0661,0.002908
59.293,77.0358,0.002908
59.324,77.0065,0.002908
59.355,76.9743,0.012281
59.386,76.9445,0.012281
59.417,76.9138,0.012281
59.447,76.8836,0.012281
59.481,76.8493,0.012281
59.508,76.8216,0.012281
59.539,76.7910,0.012281
59.571,76.7592,0.012281
59.602,76.7278,0.012281
59.633,76.6968,0.017852
59.664,76.6660,0.017852
59.695,76.6346,0.017852
59.726,76.6036,0.017852
59.757,76.5723,0.017852
59.788,76.5414,0.017852
59.820,76.5098,0.017852
59.850,76.4800,0.017852
59.881,76.4494,0.021804
59.911,76.4185,0.021804
59.943,76.3873,0.021804
59.974,76.3553,0.021804
60.005,76.3258,0.021804
60.035,76.2949,0.021804
60.066,76.2642,0.021804
60.097,76.2336,0.021804
60.128,76.2020,0.021804
60.159,76.1706,0.026001
60.190,76.1405,0.026001
60.221,76.1092,0.026001
60.252,76.0781,0.026001
60.283,76.0463,0.026001
60.313,76.0172,0.026001
60.344,75.9864,0.026001
60.375,75.9552,0.029793
60.406,75.9245,0.029793
60.436,75.8937,0.029793
60.467,75.8627,0.029793
60.497,75.8335,0.029793
60.528,75.8023,0.029793
60.559,75.7715,0.029793
60.590,75.7404,0.029793
60.621,75.7090,0.031948
60.653,75.6772,0.031948
60.684,75.6461,0.031948
60.716,75.6136,0.031948
60.748,75.5827,0.031948
60.779,75.5514,0.031948
60.810,75.5205,0.031948
60.840,75.4907,0.031948
60.870,75.4600,0.031506
60.901,75.4296,0.031506
60.932,75.3983,0.031506
60.962,75.3677,0.031506
60.992,75.3379,0.031506
61.024,75.3063,0.031506
61.055,75.2758,0.031506
61.085,75.2448,0.031506
61.117,75.2130,0.019197
61.147,75.1829,0.019197
61.177,75.1529,0.019197
61.208,75.1221,0.019197
61.239,75.0904,0.019197
61.271,75.0590,0.019197
61.302,75.0288,0.019197
61.333,74.9973,0.019197
61.364,74.9668,0.007255
61.394,74.9363,0.007255
61.425,74.9052,0.007255
61.456,74.8744,0.007255
61.486,74.8444,0.007255
61.517,74.8129,0.007255
61.549,74.7814,0.007255
61.580,74.7499,0.006456
61.610,74.7205,0.006456
61.641,74.6890,0.006456
61.678,74.6523,0.006456
61.719,74.6116,0.006456
61.750,74.5803,0.006456
61.780,74.5502,0.006456
61.811,74.5194,0.006456
61.841,74.4882,0.006456
61.872,74.4583,0.006361
61.903,74.4277,0.006361
61.934,74.3963,0.006361
61.965,74.3653,0.006361
61.999,74.3306,0.006361
62.029,74.3019,0.006361
62.061,74.2690,0.006361
62.092,74.2379,0.006361
62.123,74.2064,0.006361
62.154,74.1762,0.006361
62.188,74.1420,0.006361
62.217,74.1129,0.006361
62.247,74.0827,0.006361
62.278,74.0520,0.006361
62.309,74.0212,0.006361
62.341,73.9892,0.006361
62.372,73.9584,0.006230
62.403,73.9268,0.006230
62.434,73.8963,0.006230
62.466,73.8646,0.006230
62.496,73.8344,0.006230
62.527,73.8026,0.006230
62.557,73.7729,0.006230
62.589,73.7414,0.006230
62.619,73.7117,0.006192
62.649,73.6808,0.006192
62.680,73.6500,0.006192
62.710,73.6201,0.006192
62.742,73.5887,0.006192
62.773,73.5571,0.006192
62.804,73.5267,0.006192
62.835,73.4952,0.006192
62.866,73.4645,0.006192
62.897,73.4330,0.006314
62.928,73.4027,0.006314
62.959,73.3711,0.006314
62.989,73.3408,0.006314
63.020,73.3105,0.006314
63.051,73.2791,0.006314
63.083,73.2474,0.006314
63.114,73.2174,0.006314
63.145,73.1878,0.006314
63.176,73.1591,0.006314
63.208,73.1305,0.006314
63.238,73.1043,0.006314
63.270,73.0770,0.006314
63.301,73.0514,0.006314
63.332,73.0264,0.006314
63.364,73.0006,0.006164
63.396,72.9766,0.006164
63.427,72.9539,0.006164
63.458,72.9324,0.006164
63.488,72.9113,0.006164
63.518,72.8912,0.006164
63.552,72.8691,0.006164
63.580,72.8524,0.006164
63.611,72.8340,0.006041
63.642,72.8161,0.006041
63.673,72.7992,0.006041
63.704,72.7830,0.006041
63.734,72.7680,0.006041
63.765,72.7531,0.006041
63.795,72.7391,0.006041
63.826,72.7259,0.006004
63.857,72.7128,0.006004
63.888,72.7013,0.006004
63.920,72.6898,0.006004
63.949,72.6800,0.006004
63.980,72.6702,0.006004
64.011,72.6611,0.006004
64.043,72.6526,0.006004
64.077,72.6444,0.006004
64.104,72.6382,0.006041
64.135,72.6321,0.006041
64.167,72.6265,0.006041
64.197,72.6220,0.006041
64.228,72.6181,0.006041
64.259,72.6149,0.006041
64.290,72.6124,0.006041
64.322,72.6105,0.006041
64.352,72.6095,0.006041
64.383,72.6091,0.005994
64.409,72.6091,0.005994
64.445,72.6091,0.005994
64.477,72.6091,0.005994
64.507,72.6091,0.005994
64.532,72.6091,0.005994
64.568,72.6091,0.005994
64.602,72.6091,0.005957
64.630,72.6091,0.005957
64.661,72.6091,0.005957
64.692,72.6091,0.005957
64.723,72.6091,0.005957
64.754,72.6091,0.005957
64.785,72.6091,0.005957
64.817,72.6091,0.005957
64.849,72.6091,0.005957
64.879,72.6098,0.006154
64.911,72.6113,0.006154
64.942,72.6132,0.006154
64.973,72.6161,0.006154
65.004,72.6197,0.006154
65.035,72.6240,0.006154
65.066,72.6289,0.006154
65.098,72.6348,0.006154
65.128,72.6410,0.006051
65.159,72.6482,0.006051
65.190,72.6562,0.006051
65.222,72.6650,0.006051
65.252,72.6741,0.006051
65.283,72.6841,0.006051
65.313,72.6946,0.006051
65.343,72.7060,0.006051
65.375,72.7188,0.005797
65.410,72.7332,0.005797
65.438,72.7457,0.005797
65.469,72.7601,0.005797
65.500,72.7751,0.005797
65.531,72.7912,0.005797
65.560,72.8067,0.005797
65.594,72.8261,0.005797
65.621,72.8417,0.005797
65.652,72.8607,0.005759
65.683,72.8801,0.005759
65.715,72.9009,0.005759
65.746,72.9213,0.005759
65.778,72.9441,0.005759
65.809,72.9665,0.005759
65.840,72.9904,0.005759
65.870,73.0125,0.005674
65.902,73.0379,0.005674
65.933,73.0634,0.005674
65.965,73.0902,0.005674
65.995,73.1170,0.005674
66.026,73.1441,0.005674
66.057,73.1720,0.005674
66.088,73.2010,0.005674
66.119,73.2310,0.005674
66.150,73.2614,0.005665
66.181,73.2920,0.005665
66.212,73.3233,0.005665
66.243,73.3537,0.005665
66.274,73.3850,0.005665
66.305,73.4159,0.005665
66.336,73.4467,0.005514
66.367,73.4786,0.005514
66.401,73.5124,0.005514
66.429,73.5404,0.005514
66.460,73.5712,0.005514
66.491,73.6023,0.005514
66.523,73.6337,0.005514
66.553,73.6641,0.005514
66.584,73.6946,0.005514
66.614,73.7255,0.005514
66.644,73.7551,0.005402
66.676,73.7871,0.005402
66.706,73.8176,0.005402
66.738,73.8493,0.005402
66.769,73.8800,0.005402
66.800,73.9121,0.005402
66.831,73.9422,0.005402
66.862,73.9734,0.005336
66.893,74.0044,0.005336
66.924,74.0353,0.005336
66.956,74.0672,0.005336
66.987,74.0979,0.005336
67.023,74.1356,0.005336
67.049,74.1597,0.005336
67.080,74.1907,0.005336
67.110,74.2216,0.005223
67.142,74.2537,0.005223
67.173,74.2837,0.005223
67.205,74.3153,0.005223
67.235,74.3456,0.005223
67.265,74.3769,0.005223
67.296,74.4065,0.005223
67.327,74.4384,0.005223
67.358,74.4686,0.005091
67.391,74.5022,0.005091
67.420,74.5304,0.005091
67.450,74.5619,0.005091
67.481,74.5917,0.005091
67.512,74.6232,0.005091
67.543,74.6548,0.005091
67.580,74.6915,0.005091
67.621,74.7322,0.004969
67.652,74.7623,0.004969
67.686,74.7970,0.004969
67.714,74.8251,0.004969
67.748,74.8589,0.004969
67.776,74.8865,0.004969
67.807,74.9195,0.004969
67.833,74.9441,0.004969
67.870,74.9810,0.004828
67.903,75.0141,0.004828
67.932,75.0436,0.004828
67.963,75.0744,0.004828
67.994,75.1049,0.004828
68.025,75.1359,0.004828
68.058,75.1699,0.004828
68.087,75.1983,0.004828
68.117,75.2284,0.004620
68.148,75.2594,0.004620
68.179,75.2900,0.004620
68.210,75.3203,0.004620
68.241,75.3528,0.004620
68.272,75.3826,0.004620
68.303,75.4146,0.004620
68.337,75.4479,0.004620
68.365,75.4761,0.004620
68.390,75.5006,0.004423
68.427,75.5382,0.004423
68.458,75.5688,0.004423
68.490,75.6006,0.004423
68.521,75.6316,0.004423
68.551,75.6619,0.004423
68.582,75.6936,0.004423
68.612,75.7233,0.004178
68.644,75.7551,0.004178
68.675,75.7860,0.004178
68.706,75.8171,0.004178
68.736,75.8478,0.004178
68.768,75.8789,0.004178
68.799,75.9107,0.004178
68.831,75.9424,0.004178
68.861,75.9729,0.003858
68.894,76.0052,0.003858
68.923,76.0348,0.003858
68.954,76.0651,0.003858
68.986,76.0971,0.003858
69.017,76.1276,0.003858
69.048,76.1583,0.003858
69.079,76.1898,0.003858
69.109,76.2196,0.003312
69.141,76.2517,0.003312
69.171,76.2821,0.003312
69.202,76.3131,0.003312
69.234,76.3447,0.003312
69.266,76.3764,0.003312
69.297,76.4085,0.003312
69.329,76.4394,0.003312
69.360,76.4707,0.002466
69.392,76.5025,0.002466
69.423,76.5336,0.002466
69.454,76.5650,0.002466
69.484,76.5948,0.002466
69.515,76.6260,0.002466
69.545,76.6558,0.002466
69.576,76.6869,0.002466
69.605,76.7161,0.001016
69.639,76.7502,0.001016
69.666,76.7768,0.001016
69.698,76.8090,0.001016
69.728,76.8387,0.001016
69.759,76.8703,0.001016
69.791,76.9022,0.001016
69.823,76.9332,0.001016
69.853,76.9644,-0.002155
69.884,76.9937,-0.002155
69.914,77.0233,-0.002155
69.946,77.0520,-0.002155
69.976,77.0797,-0.002155
70.007,77.1067,-0.002155
70.037,77.1328,-0.002155
70.068,77.1593,-0.002155
70.100,77.1852,-0.002155
70.131,77.2091,-0.008451
70.162,77.2327,-0.008451
70.193,77.2562,-0.008451
70.223,77.2773,-0.008451
70.254,77.2988,-0.008451
70.285,77.3199,-0.008451
70.316,77.3398,-0.008451
70.353,77.3630,-0.008451
70.393,77.3878,-0.017889
70.424,77.4049,-0.017889
70.457,77.4232,-0.017889
70.487,77.4382,-0.017889
70.520,77.4550,-0.017889
70.549,77.4681,-0.017889
70.579,77.4820,-0.017889
70.611,77.4954,-0.028551
70.642,77.5080,-0.028551
70.673,77.5200,-0.028551
70.704,77.5309,-0.028551
70.735,77.5411,-0.028551
70.767,77.5510,-0.028551
70.798,77.5599,-0.028551
70.830,77.5685,-0.037802
70.862,77.5757,-0.037802
70.893,77.5824,-0.037802
70.924,77.5883,-0.037802
70.955,77.5934,-0.037802
70.987,77.5980,-0.037802
71.017,77.6016,-0.037802
71.049,77.6046,-0.037802
71.079,77.6068,-0.037802
71.111,77.6083,-0.043128
71.142,77.6090,-0.043128
71.173,77.6092,-0.043128
71.204,77.6092,-0.043128
71.234,77.6092,-0.043128
71.265,77.6092,-0.043128
71.297,77.6092,-0.043128
71.329,77.6092,-0.043128
71.359,77.6092,-0.043128
71.391,77.6092,-0.043307
71.421,77.6092,-0.043307
71.453,77.6092,-0.043307
71.484,77.6092,-0.043307
71.515,77.6092,-0.043307
71.545,77.6092,-0.043307
71.576,77.6092,-0.043307
71.608,77.6092,-0.043307
71.639,77.6092,-0.040700
71.669,77.6092,-0.040700
71.700,77.6092,-0.040700
71.730,77.6092,-0.040700
71.761,77.6092,-0.040700
71.792,77.6092,-0.040700
71.824,77.6092,-0.040700
71.855,77.6092,-0.038300
71.887,77.6092,-0.038300
71.918,77.6092,-0.038300
71.948,77.6092,-0.038300
71.979,77.6092,-0.038300
72.011,77.6092,-0.038300
72.041,77.6092,-0.038300
72.072,77.6092,-0.038300
72.103,77.6092,-0.036541
72.134,77.6092,-0.036541
72.165,77.6092,-0.036541
72.197,77.6092,-0.036541
72.227,77.6092,-0.036541
72.259,77.6092,-0.036541
72.290,77.6092,-0.036541
72.322,77.6092,-0.036541
72.353,77.6092,-0.035148
72.386,77.6092,-0.035148
72.414,77.6092,-0.035148
72.445,77.6092,-0.035148
72.478,77.6092,-0.035148
72.509,77.6092,-0.035148
72.538,77.6092,-0.035148
72.570,77.6092,-0.035148
72.600,77.6092,-0.035148
72.631,77.6092,-0.034047
72.662,77.6092,-0.034047
72.693,77.6092,-0.034047
72.724,77.6092,-0.034047
72.756,77.6092,-0.034047
72.787,77.6092,-0.034047
72.818,77.6092,-0.034047
72.849,77.6092,-0.033078
72.880,77.6092,-0.033078
72.911,77.6092,-0.033078
72.942,77.6092,-0.033078
72.974,77.6092,-0.033078
73.005,77.6092,-0.033078
73.036,77.6092,-0.033078
73.068,77.6092,-0.033078
73.098,77.6092,-0.033078
73.130,77.6092,-0.032325
73.161,77.6092,-0.032325
73.192,77.6092,-0.032325
73.223,77.6092,-0.032325
73.254,77.6092,-0.032325
73.286,77.6092,-0.032325
73.318,77.6092,-0.032325
73.348,77.6092,-0.032325
73.378,77.6092,-0.031657
73.409,77.6092,-0.031657
73.440,77.6092,-0.031657
73.471,77.6092,-0.031657
73.501,77.6092,-0.031657
73.532,77.6092,-0.031657
73.564,77.6092,-0.031657
73.594,77.6092,-0.031657
73.626,77.6092,-0.031017
73.658,77.6092,-0.031017
73.688,77.6092,-0.031017
73.721,77.6092,-0.031017
73.750,77.6092,-0.031017
73.782,77.6092,-0.031017
73.812,77.6092,-0.031017
73.844,77.6092,-0.031017
73.875,77.6092,-0.030490
73.906,77.6092,-0.030490
73.937,77.6092,-0.030490
73.968,77.6092,-0.030490
74.000,77.6092,-0.030490
74.030,77.6092,-0.030490
74.061,77.6092,-0.030490
74.093,77.6092,-0.030490
74.124,77.6092,-0.029906
74.156,77.6092,-0.029906
74.186,77.6092,-0.029906
74.216,77.6092,-0.029906
74.247,77.6092,-0.029906
74.278,77.6092,-0.029906
74.309,77.6092,-0.029906
74.340,77.6092,-0.029906
74.371,77.6092,-0.029906
74.401,77.6092,-0.029379
74.432,77.6092,-0.029379
74.463,77.6092,-0.029379
74.494,77.6092,-0.029379
74.525,77.6092,-0.029379
74.555,77.6092,-0.029379
74.587,77.6092,-0.029379
74.617,77.6092,-0.029003
74.648,77.6092,-0.029003
74.679,77.6092,-0.029003
74.711,77.6092,-0.029003
74.742,77.6092,-0.029003
74.773,77.6092,-0.029003
74.803,77.6092,-0.029003
74.835,77.6092,-0.029003
74.865,77.6092,-0.028636
74.899,77.6092,-0.028636
74.928,77.6092,-0.028636
74.959,77.6092,-0.028636
74.992,77.6092,-0.028636
75.021,77.6092,-0.028636
75.053,77.6092,-0.028636
75.084,77.6092,-0.028636
75.115,77.6092,-0.028636
75.145,77.6092,-0.028259
75.176,77.6092,-0.028259
75.207,77.6092,-0.028259
75.238,77.6092,-0.028259
75.270,77.6092,-0.028259
75.301,77.6092,-0.028259
75.332,77.6092,-0.028259
75.364,77.6092,-0.027855
75.395,77.6092,-0.027855
75.426,77.6092,-0.027855
75.456,77.6092,-0.027855
75.487,77.6087,-0.027855
75.517,77.6075,-0.027855
75.549,77.6056,-0.027855
75.579,77.6031,-0.027855
75.611,77.5996,-0.027488
75.641,77.5956,-0.027488
75.673,77.5907,-0.027488
75.704,77.5852,-0.027488
75.736,77.5788,-0.027488
75.766,77.5718,-0.027488
75.801,77.5629,-0.027488
75.828,77.5558,-0.027488
75.858,77.5468,-0.027488
75.889,77.5368,-0.025380
75.920,77.5262,-0.025380
75.951,77.5146,-0.025380
75.983,77.5026,-0.025380
76.014,77.4897,-0.025380
76.045,77.4762,-0.025380
76.076,77.4621,-0.025380
76.107,77.4471,-0.025380
76.138,77.4313,-0.017899
76.169,77.4146,-0.017899
76.201,77.3971,-0.017899
76.231,77.3798,-0.017899
76.262,77.3611,-0.017899
76.293,77.3413,-0.017899
76.324,77.3215,-0.017899
76.355,77.3005,-0.017899
76.387,77.2789,-0.006145
76.417,77.2566,-0.006145
76.448,77.2340,-0.006145
76.479,77.2104,-0.006145
76.510,77.1857,-0.006145
76.542,77.1601,-0.006145
76.573,77.1340,-0.006145
76.602,77.1083,-0.006145
76.633,77.0813,0.005496
76.664,77.0532,0.005496
76.695,77.0246,0.005496
76.726,76.9951,0.005496
76.757,76.9653,0.005496
76.788,76.9338,0.005496
76.819,76.9031,0.005496
76.849,76.8730,0.005496
76.880,76.8424,0.014125
76.918,76.8040,0.014125
76.957,76.7647,0.014125
76.988,76.7337,0.014125
77.018,76.7035,0.014125
77.050,76.6719,0.014125
77.080,76.6419,0.014125
77.113,76.6092,0.014125
77.143,76.5786,0.019404
77.175,76.5474,0.019404
77.206,76.5160,0.019404
77.237,76.4848,0.019404
77.268,76.4538,0.019404
77.300,76.4224,0.019404
77.330,76.3915,0.019404
77.361,76.3607,0.023714
77.392,76.3296,0.023714
77.424,76.2986,0.023714
77.454,76.2676,0.023714
77.485,76.2366,0.023714
77.517,76.2048,0.023714
77.548,76.1745,0.023714
77.578,76.1439,0.023714
77.610,76.1118,0.028099
77.641,76.0814,0.028099
77.672,76.0499,0.028099
77.703,76.0189,0.028099
77.734,75.9878,0.028099
77.765,75.9570,0.028099
77.796,75.9265,0.028099
77.827,75.8950,0.028099
77.858,75.8645,0.031591
77.888,75.8336,0.031591
77.920,75.8020,0.031591
77.952,75.7696,0.031591
77.983,75.7393,0.031591
78.015,75.7074,0.031591
78.046,75.6764,0.031591
78.076,75.6459,0.031591
78.108,75.6145,0.033228
78.140,75.5819,0.033228
78.170,75.5519,0.033228
78.202,75.5202,0.033228
78.232,75.4897,0.033228
78.264,75.4577,0.033228
78.295,75.4263,0.033228
78.326,75.3958,0.033228
78.357,75.3653,0.031308
78.388,75.3346,0.031308
78.418,75.3038,0.031308
78.450,75.2719,0.031308
78.480,75.2419,0.031308
78.511,75.2107,0.031308
78.542,75.1797,0.031308
78.574,75.1484,0.031308
78.605,75.1173,0.018331
78.638,75.0842,0.018331
78.668,75.0548,0.018331
78.699,75.0231,0.018331
78.730,74.9921,0.018331
78.761,74.9601,0.018331
78.793,74.9295,0.018331
78.824,74.8975,0.018331
78.855,74.8666,0.007086
78.887,74.8347,0.007086
78.918,74.8035,0.007086
78.950,74.7720,0.007086
78.981,74.7405,0.007086
79.014,74.7069,0.007086
79.043,74.6782,0.007086
79.075,74.6467,0.007086
79.106,74.6150,0.007086
79.139,74.5817,0.006568
79.169,74.5528,0.006568
79.200,74.5221,0.006568
79.230,74.4916,0.006568
79.261,74.4611,0.006568
79.291,74.4306,0.006568
79.322,74.3996,0.006568
79.354,74.3680,0.006568
79.384,74.3378,0.006427
79.417,74.3052,0.006427
79.446,74.2761,0.006427
79.477,74.2449,0.006427
79.508,74.2143,0.006427
79.538,74.1838,0.006427
79.570,74.1516,0.006427
79.600,74.1216,0.006371
79.631,74.0914,0.006371
79.661,74.0611,0.006371
79.692,74.0300,0.006371
79.725,73.9967,0.006371
79.754,73.9686,0.006371
79.785,73.9372,0.006371
79.815,73.9074,0.006371
79.845,73.8765,0.006371
79.875,73.8470,0.006371
79.906,73.8156,0.006371
79.941,73.7807,0.006371
79.969,73.7525,0.006371
80.000,73.7216,0.006371
80.031,73.6903,0.006371
80.063,73.6588,0.006371
80.090,73.6317,0.006371
80.124,73.5976,0.006371
80.155,73.5674,0.006371
80.188,73.5331,0.006371
80.217,73.5045,0.006371
80.248,73.4731,0.006371
80.278,73.4446,0.006371
80.308,73.4139,0.006371
80.338,73.3840,0.006371
80.370,73.3517,0.006361
80.401,73.3207,0.006361
80.433,73.2883,0.006361
80.463,73.2590,0.006361
80.494,73.2274,0.006361
80.526,73.1963,0.006361
80.557,73.1655,0.006361
80.588,73.1365,0.006324
80.620,73.1067,0.006324
80.652,73.0790,0.006324
80.683,73.0513,0.006324
80.715,73.0241,0.006324
80.744,72.9997,0.006324
80.775,72.9751,0.006324
80.807,72.9501,0.006324
80.838,72.9269,0.006324
80.868,72.9042,0.006324
80.899,72.8821,0.006230
80.931,72.8599,0.006230
80.962,72.8397,0.006230
80.993,72.8197,0.006230
81.024,72.8014,0.006230
81.056,72.7823,0.006230
81.086,72.7650,0.006230
81.118,72.7476,0.006145
81.149,72.7314,0.006145
81.180,72.7158,0.006145
81.210,72.7014,0.006145
81.241,72.6875,0.006145
81.272,72.6743,0.006145
81.302,72.6620,0.006145
81.333,72.6502,0.006145
81.363,72.6394,0.006145
81.394,72.6289,0.006126
81.426,72.6189,0.006126
81.457,72.6101,0.006126
81.488,72.6020,0.006126
81.521,72.5939,0.006126
81.551,72.5874,0.006126
81.582,72.5811,0.006126
81.613,72.5758,0.006117
81.644,72.5713,0.006117
81.676,72.5675,0.006117
81.707,72.5643,0.006117
81.737,72.5620,0.006117
81.768,72.5603,0.006117
81.799,72.5594,0.006117
81.830,72.5592,0.006117
81.860,72.5592,0.006117
81.891,72.5592,0.006079
81.922,72.5592,0.006079
81.954,72.5592,0.006079
81.984,72.5592,0.006079
82.014,72.5592,0.006079
82.046,72.5592,0.006079
82.076,72.5592,0.006079
82.107,72.5592,0.006098
82.137,72.5592,0.006098
82.168,72.5592,0.006098
82.198,72.5592,0.006098
82.229,72.5592,0.006098
82.260,72.5592,0.006098
82.291,72.5592,0.006098
82.323,72.5592,0.006098
82.354,72.5593,0.006117
82.385,72.5602,0.006117
82.416,72.5616,0.006117
82.446,72.5639,0.006117
82.478,72.5669,0.006117
82.508,72.5706,0.006117
82.540,72.5752,0.006117
82.570,72.5803,0.006117
82.602,72.5863,0.006117
82.634,72.5930,0.006004
82.665,72.6003,0.006004
82.696,72.6085,0.006004
82.728,72.6178,0.006004
82.759,72.6273,0.006004
82.789,72.6374,0.006004
82.820,72.6483,0.006004
82.852,72.6604,0.006004
82.882,72.6725,0.005891
82.913,72.6862,0.005891
82.944,72.6998,0.005891
82.975,72.7146,0.005891
83.006,72.7302,0.005891
83.039,72.7469,0.005891
83.070,72.7638,0.005891
83.102,72.7824,0.005834
83.134,72.8010,0.005834
83.165,72.8205,0.005834
83.198,72.8409,0.005834
83.226,72.8602,0.005834
83.257,72.8818,0.005834
83.288,72.9038,0.005834
83.320,72.9264,0.005834
83.351,72.9503,0.005769
83.381,72.9735,0.005769
83.412,72.9983,0.005769
83.443,73.0243,0.005769
83.474,73.0503,0.005769
83.505,73.0783,0.005769
83.535,73.1045,0.005769
83.568,73.1351,0.005769
83.597,73.1629,0.005769
83.628,73.1928,0.005646
83.659,73.2234,0.005646
83.691,73.2549,0.005646
83.721,73.2851,0.005646
83.752,73.3160,0.005646
83.783,73.3463,0.005646
83.813,73.3777,0.005646
83.844,73.4080,0.005580
83.876,73.4397,0.005580
83.906,73.4700,0.005580
83.938,73.5027,0.005580
83.968,73.5320,0.005580
84.001,73.5646,0.005580
84.032,73.5954,0.005580
84.064,73.6279,0.005580
84.094,73.6579,0.005543
84.125,73.6903,0.005543
84.155,73.7190,0.005543
84.186,73.7503,0.005543
84.220,73.7835,0.005543
84.248,73.8119,0.005543
84.279,73.8436,0.005543
84.310,73.8743,0.005543
84.341,73.9059,0.005543
84.373,73.9366,0.005486
84.404,73.9688,0.005486
84.435,73.9988,0.005486
84.466,74.0307,0.005486
84.497,74.0605,0.005486
84.528,74.0928,0.005486
84.559,74.1235,0.005486
84.591,74.1552,0.005336
84.622,74.1859,0.005336
84.654,74.2182,0.005336
84.686,74.2497,0.005336
84.718,74.2821,0.005336
84.749,74.3125,0.005336
84.780,74.3434,0.005336
84.811,74.3746,0.005336
84.842,74.4059,0.005157
84.875,74.4386,0.005157
84.905,74.4688,0.005157
84.937,74.5008,0.005157
84.967,74.5304,0.005157
84.998,74.5619,0.005157
85.029,74.5930,0.005157
85.060,74.6248,0.005157
85.092,74.6554,0.005157
85.122,74.6869,0.005044
85.153,74.7171,0.005044
85.184,74.7484,0.005044
85.215,74.7787,0.005044
85.246,74.8101,0.005044
85.277,74.8410,0.005044
85.309,74.8731,0.005044
85.340,74.9037,0.004875
85.371,74.9352,0.004875
85.402,74.9657,0.004875
85.433,74.9977,0.004875
85.464,75.0282,0.004875
85.495,75.0587,0.004875
85.526,75.0902,0.004875
85.556,75.1199,0.004875
85.587,75.1509,0.004875
85.618,75.1821,0.004875
85.649,75.2129,0.004658
85.680,75.2443,0.004658
85.711,75.2752,0.004658
85.742,75.3062,0.004658
85.772,75.3357,0.004658
85.803,75.3676,0.004658
85.834,75.3973,0.004658
85.864,75.4277,0.004451
85.896,75.4598,0.004451
85.926,75.4898,0.004451
85.957,75.5216,0.004451
85.989,75.5530,0.004451
86.020,75.5840,0.004451
86.051,75.6149,0.004451
86.082,75.6460,0.004451
86.113,75.6764,0.004197
86.144,75.7075,0.004197
86.173,75.7371,0.004197
86.205,75.7686,0.004197
86.236,75.7999,0.004197
86.266,75.8297,0.004197
86.296,75.8596,0.004197
86.329,75.8932,0.004197
86.358,75.9226,0.003839
86.392,75.9560,0.003839
86.421,75.9849,0.003839
86.452,76.0162,0.003839
86.483,76.0468,0.003839
86.515,76.0787,0.003839
86.546,76.1102,0.003839
86.576,76.1400,0.003839
86.608,76.1717,0.003839
86.637,76.2002,0.003331
86.668,76.2313,0.003331
86.699,76.2639,0.003331
86.730,76.2935,0.003331
86.760,76.3246,0.003331
86.792,76.3552,0.003331
86.823,76.3864,0.003331
86.854,76.4177,0.003331
86.886,76.4492,0.002550
86.918,76.4815,0.002550
86.948,76.5118,0.002550
86.979,76.5429,0.002550
87.009,76.5732,0.002550
87.040,76.6039,0.002550
87.071,76.6347,0.002550
87.101,76.6651,0.002550
87.132,76.6966,0.000979
87.164,76.7278,0.000979
87.194,76.7580,0.000979
87.225,76.7891,0.000979
87.256,76.8205,0.000979
87.287,76.8504,0.000979
87.318,76.8814,0.000979
87.349,76.9125,0.000979
87.380,76.9428,-0.002343
87.411,76.9733,-0.002343
87.442,77.0012,-0.002343
87.473,77.0293,-0.002343
87.504,77.0570,-0.002343
87.535,77.0844,-0.002343
87.566,77.1090,-0.002343
87.598,77.1355,-0.002343
87.629,77.1598,-0.008705
87.661,77.1854,-0.008705
87.692,77.2073,-0.008705
87.722,77.2295,-0.008705
87.753,77.2504,-0.008705
87.784,77.2714,-0.008705
87.815,77.2914,-0.008705
87.846,77.3111,-0.008705
87.877,77.3291,-0.018266
87.908,77.3473,-0.018266
87.939,77.3645,-0.018266
87.970,77.3811,-0.018266
88.001,77.3966,-0.018266
88.032,77.4122,-0.018266
88.062,77.4255,-0.018266
88.094,77.4399,-0.018266
88.125,77.4524,-0.029059
88.157,77.4649,-0.029059
88.187,77.4761,-0.029059
88.217,77.4865,-0.029059
88.252,77.4974,-0.029059
88.280,77.5056,-0.029059
88.309,77.5137,-0.029059
88.340,77.5215,-0.029059
88.372,77.5285,-0.038291
88.402,77.5347,-0.038291
88.434,77.5406,-0.038291
88.464,77.5453,-0.038291
88.497,77.5496,-0.038291
88.527,77.5528,-0.038291
88.560,77.5557,-0.038291
88.589,77.5574,-0.043523
88.620,77.5587,-0.043523
88.651,77.5592,-0.043523
88.681,77.5592,-0.043523
88.712,77.5592,-0.043523
88.748,77.5592,-0.043523
88.774,77.5592,-0.043523
88.805,77.5592,-0.043523
88.836,77.5592,-0.043523
88.867,77.5592,-0.043598
88.898,77.5592,-0.043598
88.928,77.5592,-0.043598
88.962,77.5592,-0.043598
88.994,77.5592,-0.043598
89.022,77.5592,-0.043598
89.053,77.5592,-0.043598
89.084,77.5592,-0.043598
89.117,77.5592,-0.043598
89.147,77.5592,-0.040954
89.178,77.5592,-0.040954
89.209,77.5592,-0.040954
89.240,77.5592,-0.040954
89.271,77.5592,-0.040954
89.302,77.5592,-0.040954
89.334,77.5592,-0.040954
89.365,77.5592,-0.038583
89.396,77.5592,-0.038583
89.426,77.5592,-0.038583
89.459,77.5592,-0.038583
89.489,77.5592,-0.038583
89.520,77.5592,-0.038583
89.551,77.5592,-0.038583
89.582,77.5592,-0.038583
89.613,77.5592,-0.036851
89.644,77.5592,-0.036851
89.675,77.5592,-0.036851
89.705,77.5592,-0.036851
89.736,77.5592,-0.036851
89.767,77.5592,-0.036851
89.799,77.5592,-0.036851
89.830,77.5592,-0.036851
89.861,77.5592,-0.035505
89.892,77.5592,-0.035505
89.921,77.5592,-0.035505
89.953,77.5592,-0.035505
89.983,77.5592,-0.035505
90.014,77.5592,-0.035505
90.046,77.5592,-0.035505
90.076,77.5592,-0.035505
90.107,77.5592,-0.035505
90.138,77.5592,-0.034395
90.170,77.5592,-0.034395
90.201,77.5592,-0.034395
90.231,77.5592,-0.034395
90.263,77.5592,-0.034395
90.292,77.5592,-0.034395
90.323,77.5592,-0.034395
90.354,77.5592,-0.034395
90.383,77.5592,-0.033445
90.414,77.5592,-0.033445
90.446,77.5592,-0.033445
90.478,77.5592,-0.033445
90.509,77.5592,-0.033445
90.539,77.5592,-0.033445
90.570,77.5592,-0.033445
90.601,77.5592,-0.033445
90.632,77.5592,-0.032626
90.663,77.5592,-0.032626
90.693,77.5592,-0.032626
90.724,77.5592,-0.032626
90.755,77.5592,-0.032626
90.786,77.5592,-0.032626
90.818,77.5592,-0.032626
90.849,77.5592,-0.031948
90.881,77.5592,-0.031948
90.912,77.5592,-0.031948
90.943,77.5592,-0.031948
90.974,77.5592,-0.031948
91.006,77.5592,-0.031948
91.036,77.5592,-0.031948
91.067,77.5592,-0.031948
91.100,77.5592,-0.031261
91.130,77.5592,-0.031261
91.161,77.5592,-0.031261
91.191,77.5592,-0.031261
91.222,77.5592,-0.031261
91.254,77.5592,-0.031261
91.284,77.5592,-0.031261
91.315,77.5592,-0.031261
91.347,77.5592,-0.030650
91.378,77.5592,-0.030650
91.409,77.5592,-0.030650
91.440,77.5592,-0.030650
91.470,77.5592,-0.030650
91.501,77.5592,-0.030650
91.532,77.5592,-0.030650
91.563,77.5592,-0.030650
91.594,77.5592,-0.030650
91.624,77.5592,-0.030198
91.656,77.5592,-0.030198
91.686,77.5592,-0.030198
91.717,77.5592,-0.030198
91.749,77.5592,-0.030198
91.778,77.5592,-0.030198
91.809,77.5592,-0.030198
91.840,77.5592,-0.029756
91.870,77.5592,-0.029756
91.902,77.5592,-0.029756
91.932,77.5592,-0.029756
91.963,77.5592,-0.029756
91.994,77.5592,-0.029756
92.025,77.5592,-0.029756
92.056,77.5592,-0.029756
92.087,77.5592,-0.029756
92.118,77.5592,-0.029756
92.148,77.5592,-0.029304
92.180,77.5592,-0.029304
92.211,77.5592,-0.029304
92.242,77.5592,-0.029304
92.273,77.5592,-0.029304
92.304,77.5592,-0.029304
92.335,77.5592,-0.029304
92.365,77.5592,-0.028899
92.398,77.5592,-0.028899
92.427,77.5592,-0.028899
92.458,77.5592,-0.028899
92.491,77.5592,-0.028899
92.520,77.5592,-0.028899
92.551,77.5592,-0.028899
92.581,77.5592,-0.028899
92.612,77.5592,-0.028542
92.643,77.5592,-0.028542
92.675,77.5592,-0.028542
92.706,77.5592,-0.028542
92.736,77.5592,-0.028542
92.767,77.5592,-0.028542
92.798,77.5592,-0.028542
92.830,77.5592,-0.028156
92.862,77.5592,-0.028156
92.892,77.5592,-0.028156
92.923,77.5592,-0.028156
92.953,77.5586,-0.028156
92.984,77.5572,-0.028156
93.015,77.5551,-0.028156
93.045,77.5524,-0.028156
93.077,77.5488,-0.028156
93.108,77.5444,-0.027779
93.139,77.5395,-0.027779
93.171,77.5336,-0.027779
93.202,77.5271,-0.027779
93.234,77.5197,-0.027779
93.264,77.5120,-0.027779
93.295,77.5034,-0.027779
93.327,77.4934,-0.027779
93.358,77.4834,-0.024947
93.389,77.4726,-0.024947
93.420,77.4609,-0.024947
93.451,77.4485,-0.024947
93.481,77.4360,-0.024947
93.512,77.4223,-0.024947
93.544,77.4075,-0.024947
93.575,77.3925,-0.016468
93.607,77.3756,-0.016468
93.638,77.3591,-0.016468
93.670,77.3411,-0.016468
93.701,77.3229,-0.016468
93.731,77.3044,-0.016468
93.764,77.2838,-0.016468
93.794,77.2636,-0.016468
93.826,77.2427,-0.016468
93.856,77.2213,-0.004385
93.887,77.1984,-0.004385
93.919,77.1747,-0.004385
93.949,77.1508,-0.004385
93.980,77.1262,-0.004385
94.012,77.1002,-0.004385
94.041,77.0754,-0.004385
94.072,77.0479,-0.004385
94.104,77.0204,0.006964
94.134,76.9924,0.006964
94.165,76.9645,0.006964
94.196,76.9346,0.006964
94.226,76.9046,0.006964
94.257,76.8741,0.006964
94.288,76.8421,0.006964
94.320,76.8112,0.006964
94.350,76.7803,0.006964
94.381,76.7494,0.014840
94.412,76.7183,0.014840
94.443,76.6877,0.014840
94.474,76.6563,0.014840
94.505,76.6254,0.014840
94.536,76.5944,0.014840
94.567,76.5639,0.014840
94.599,76.5310,0.014840
94.630,76.5008,0.019508
94.661,76.4694,0.019508
94.693,76.4378,0.019508
94.724,76.4072,0.019508
94.755,76.3749,0.019508
94.786,76.3452,0.019508
94.816,76.3145,0.019508
94.847,76.2831,0.019508
94.878,76.2525,0.023535
94.909,76.2211,0.023535
94.940,76.1903,0.023535
94.972,76.1588,0.023535
95.003,76.1276,0.023535
95.034,76.0968,0.023535
95.065,76.0659,0.023535
95.096,76.0348,0.023535
95.128,76.0028,0.027714
95.159,75.9717,0.027714
95.190,75.9408,0.027714
95.220,75.9098,0.027714
95.252,75.8788,0.027714
95.283,75.8475,0.027714
95.314,75.8168,0.027714
95.345,75.7855,0.027714
95.376,75.7544,0.027714
95.408,75.7231,0.030970
95.438,75.6931,0.030970
95.469,75.6617,0.030970
95.500,75.6306,0.030970
95.531,75.5997,0.030970
95.561,75.5693,0.030970
95.592,75.5383,0.030970
95.623,75.5078,0.032315
95.655,75.4758,0.032315
95.686,75.4447,0.032315
95.717,75.4139,0.032315
95.748,75.3829,0.032315
95.778,75.3518,0.032315
95.810,75.3213,0.032315
95.840,75.2902,0.032315
95.872,75.2583,0.025916
95.903,75.2277,0.025916
95.934,75.1970,0.025916
95.965,75.1661,0.025916
95.997,75.1341,0.025916
96.028,75.1031,0.025916
96.059,75.0720,0.025916
96.092,75.0388,0.025916
96.119,75.0112,0.025916
96.150,74.9804,0.013250
96.181,74.9496,0.013250
96.212,74.9190,0.013250
96.243,74.8877,0.013250
96.273,74.8570,0.013250
96.305,74.8257,0.013250
96.335,74.7952,0.006879
96.366,74.7646,0.006879
96.396,74.7342,0.006879
96.428,74.7028,0.006879
96.458,74.6727,0.006879
96.490,74.6402,0.006879
96.522,74.6093,0.006879
96.552,74.5788,0.006879
96.582,74.5489,0.006879
96.614,74.5163,0.006568
96.645,74.4857,0.006568
96.676,74.4539,0.006568
96.707,74.4239,0.006568
96.737,74.3932,0.006568
96.769,74.3620,0.006568
96.800,74.3302,0.006568
96.833,74.2975,0.006568
96.862,74.2691,0.006427
96.896,74.2347,0.006427
96.923,74.2073,0.006427
96.954,74.1768,0.006427
96.985,74.1457,0.006427
97.018,74.1121,0.006427
97.048,74.0829,0.006427
97.078,74.0522,0.006427
97.109,74.0213,0.006427
97.140,73.9903,0.006352
97.172,73.9583,0.006352
97.203,73.9279,0.006352
97.235,73.8954,0.006352
97.267,73.8643,0.006352
97.299,73.8324,0.006352
97.328,73.8020,0.006352
97.360,73.7701,0.006352
97.391,73.7395,0.006324
97.423,73.7075,0.006324
97.453,73.6775,0.006324
97.484,73.6467,0.006324
97.515,73.6156,0.006324
97.546,73.5847,0.006324
97.577,73.5543,0.006324
97.608,73.5231,0.006324
97.641,73.4896,0.006371
97.669,73.4618,0.006371
97.700,73.4308,0.006371
97.731,73.3996,0.006371
97.762,73.3688,0.006371
97.794,73.3365,0.006371
97.825,73.3055,0.006371
97.856,73.2747,0.006352
97.887,73.2434,0.006352
97.919,73.2118,0.006352
97.949,73.1819,0.006352
97.980,73.1505,0.006352
98.011,73.1205,0.006352
98.042,73.0911,0.006352
98.073,73.0622,0.006352
98.104,73.0348,0.006352
98.134,73.0074,0.006296
98.165,72.9815,0.006296
98.196,72.9553,0.006296
98.227,72.9300,0.006296
98.259,72.9053,0.006296
98.290,72.8813,0.006296
98.322,72.8578,0.006296
98.352,72.8366,0.006230
98.383,72.8153,0.006230
98.415,72.7942,0.006230
98.445,72.7746,0.006230
98.477,72.7546,0.006230
98.508,72.7363,0.006230
98.539,72.7179,0.006230
98.570,72.7009,0.006230
98.601,72.6848,0.006173
98.633,72.6686,0.006173
98.662,72.6547,0.006173
98.693,72.6407,0.006173
98.725,72.6268,0.006173
98.757,72.6136,0.006173
98.787,72.6017,0.006173
98.818,72.5903,0.006173
98.850,72.5801,0.006173
98.881,72.5700,0.006173
98.912,72.5609,0.006173
98.943,72.5526,0.006173
98.974,72.5450,0.006173
99.005,72.5382,0.006173
99.036,72.5320,0.006173
99.068,72.5267,0.006173
99.099,72.5218,0.006173
99.129,72.5180,0.006117
99.161,72.5146,0.006117
99.192,72.5122,0.006117
99.223,72.5104,0.006117
99.254,72.5094,0.006117
99.285,72.5092,0.006117
99.317,72.5092,0.006117
99.348,72.5092,0.006060
99.378,72.5092,0.006060
99.409,72.5092,0.006060
99.439,72.5092,0.006060
99.470,72.5092,0.006060
99.502,72.5092,0.006060
99.533,72.5092,0.006060
99.565,72.5092,0.006060
99.595,72.5092,0.006060
99.625,72.5092,0.006070
99.656,72.5092,0.006070
99.688,72.5092,0.006070
99.718,72.5097,0.006070
99.749,72.5110,0.006070
99.780,72.5130,0.006070
99.812,72.5159,0.006070
99.843,72.5192,0.006041
99.873,72.5234,0.006041
99.904,72.5283,0.006041
99.936,72.5341,0.006041
99.967,72.5404,0.006041
99.998,72.5476,0.006041
100.029,72.5556,0.006041
100.060,72.5640,0.006041
100.091,72.5731,0.005985
100.121,72.5830,0.005985
100.153,72.5939,0.005985
100.183,72.6052,0.005985
100.214,72.6176,0.005985
100.245,72.6301,0.005985
100.275,72.6434,0.005985
100.306,72.6580,0.005985
100.337,72.6726,0.005844
100.368,72.6888,0.005844
100.399,72.7049,0.005844
100.429,72.7218,0.005844
100.460,72.7392,0.005844
100.490,72.7582,0.005844
100.523,72.7781,0.005844
100.553,72.7983,0.005844
100.585,72.8196,0.005844
100.616,72.8414,0.005769
100.647,72.8634,0.005769
100.678,72.8867,0.005769
100.709,72.9097,0.005769
100.739,72.9346,0.005769
100.770,72.9598,0.005769
100.802,72.9862,0.005769
100.833,73.0128,0.005769
100.864,73.0400,0.005712
100.895,73.0685,0.005712
100.926,73.0968,0.005712
100.956,73.1261,0.005712
100.988,73.1572,0.005712
101.019,73.1880,0.005712
101.050,73.2186,0.005712
101.080,73.2494,0.005712
101.111,73.2799,0.005562
101.143,73.3117,0.005562
101.173,73.3418,0.005562
101.205,73.3735,0.005562
101.235,73.4041,0.005562
101.266,73.4353,0.005562
101.297,73.4660,0.005562
101.328,73.4977,0.005562
101.358,73.5270,0.005496
101.389,73.5589,0.005496
101.421,73.5896,0.005496
101.451,73.6209,0.005496
101.483,73.6514,0.005496
101.514,73.6834,0.005496
101.545,73.7140,0.005496
101.576,73.7469,0.005496
101.607,73.7765,0.005496
101.638,73.8086,0.005458
101.669,73.8377,0.005458
101.700,73.8689,0.005458
101.731,73.9000,0.005458
101.762,73.9304,0.005458
101.792,73.9619,0.005458
101.822,73.9909,0.005458
101.853,74.0223,0.005458
101.885,74.0532,0.005307
101.916,74.0849,0.005307
101.946,74.1148,0.005307
101.977,74.1460,0.005307
102.009,74.1779,0.005307
102.039,74.2082,0.005307
102.070,74.2387,0.005307
102.101,74.2693,0.005147
102.131,74.3005,0.005147
102.162,74.3312,0.005147
102.193,74.3620,0.005147
102.224,74.3930,0.005147
102.255,74.4234,0.005147
102.286,74.4560,0.005147
102.318,74.4877,0.005147
102.350,74.5192,0.005082
102.380,74.5488,0.005082
102.411,74.5804,0.005082
102.442,74.6105,0.005082
102.472,74.6410,0.005082
102.503,74.6729,0.005082
102.534,74.7028,0.005082
102.565,74.7345,0.005082
102.597,74.7658,0.004950
102.628,74.7972,0.004950
102.659,74.8273,0.004950
102.689,74.8587,0.004950
102.720,74.8891,0.004950
102.752,74.9218,0.004950
102.782,74.9511,0.004950
102.818,74.9873,0.004950
102.844,75.0133,0.004762
102.875,75.0432,0.004762
102.906,75.0756,0.004762
102.943,75.1116,0.004762
102.968,75.1375,0.004762
103.001,75.1702,0.004762
103.030,75.1998,0.004762
103.061,75.2300,0.004762
103.092,75.2614,0.004583
103.123,75.2919,0.004583
103.153,75.3215,0.004583
103.184,75.3528,0.004583
103.215,75.3833,0.004583
103.245,75.4146,0.004583
103.276,75.4449,0.004583
103.307,75.4758,0.004583
103.338,75.5071,0.004583
103.370,75.5385,0.004357
103.402,75.5703,0.004357
103.432,75.6011,0.004357
103.463,75.6320,0.004357
103.496,75.6653,0.004357
103.525,75.6937,0.004357
103.556,75.7241,0.004357
103.587,75.7554,0.004056
103.617,75.7864,0.004056
103.647,75.8166,0.004056
103.678,75.8475,0.004056
103.710,75.8788,0.004056
103.740,75.9093,0.004056
103.772,75.9403,0.004056
103.802,75.9717,0.004056
103.834,76.0022,0.004056
103.864,76.0334,0.003623
103.894,76.0631,0.003623
103.925,76.0946,0.003623
103.956,76.1247,0.003623
103.988,76.1571,0.003623
104.019,76.1878,0.003623
104.051,76.2200,0.003623
104.082,76.2504,0.003623
104.113,76.2827,0.002974
104.143,76.3124,0.002974
104.174,76.3429,0.002974
104.206,76.3747,0.002974
104.237,76.4063,0.002974
104.269,76.4376,0.002974
104.299,76.4681,0.002974
104.330,76.4990,0.001732
104.361,76.5302,0.001732
104.392,76.5615,0.001732
104.423,76.5923,0.001732
104.456,76.6249,0.001732
104.486,76.6548,0.001732
104.517,76.6858,0.001732
104.549,76.7177,0.001732
104.581,76.7497,0.001732
104.611,76.7804,-0.000781
104.643,76.8118,-0.000781
104.673,76.8416,-0.000781
104.706,76.8742,-0.000781
104.736,76.9040,-0.000781
104.767,76.9326,-0.000781
104.797,76.9605,-0.000781
104.828,76.9884,-0.005900
104.859,77.0162,-0.005900
104.890,77.0417,-0.005900
104.920,77.0669,-0.005900
104.951,77.0925,-0.005900
104.981,77.1158,-0.005900
105.013,77.1398,-0.005900
105.045,77.1633,-0.005900
105.074,77.1840,-0.005900
105.105,77.2055,-0.014379
105.136,77.2262,-0.014379
105.167,77.2460,-0.014379
105.198,77.2654,-0.014379
105.230,77.2845,-0.014379
105.261,77.3017,-0.014379
105.293,77.3198,-0.014379
105.323,77.3349,-0.014379
105.354,77.3504,-0.014379
105.385,77.3659,-0.025041
105.417,77.3801,-0.025041
105.447,77.3934,-0.025041
105.478,77.4058,-0.025041
105.509,77.4178,-0.025041
105.540,77.4288,-0.025041
105.572,77.4397,-0.025041
105.603,77.4494,-0.025041
105.633,77.4582,-0.035223
105.664,77.4664,-0.035223
105.695,77.4737,-0.035223
105.725,77.4804,-0.035223
105.756,77.4865,-0.035223
105.787,77.4920,-0.035223
105.817,77.4964,-0.035223
105.848,77.5004,-0.035223
105.879,77.5036,-0.042215
105.910,77.5061,-0.042215
105.940,77.5078,-0.042215
105.972,77.5088,-0.042215
106.003,77.5092,-0.042215
106.033,77.5092,-0.042215
106.063,77.5092,-0.042215
106.094,77.5092,-0.042215
106.125,77.5092,-0.044229
106.157,77.5092,-0.044229
