Elapsed Time (s),Position (mm),Force (N)
-0.016,53.2001,0.001864
0.001,53.2001,0.001864
0.016,53.2001,0.001864
0.032,53.2001,0.001864
0.048,53.2001,0.001864
0.064,53.2001,0.001864
0.090,53.2001,0.002118
0.106,53.2001,0.002118
0.122,53.2001,0.002118
0.138,53.2001,0.002118
0.154,53.2001,0.002118
0.170,53.2001,0.002118
0.186,53.2001,0.002118
0.202,53.2001,0.002118
0.218,53.2001,0.002118
0.234,53.2001,0.002118
0.250,53.2001,0.002118
0.266,53.2001,0.002118
0.282,53.2001,0.002118
0.298,53.2001,0.002118
0.314,53.2001,0.002118
0.332,53.2001,0.002118
0.362,53.2001,0.002918
0.379,53.2001,0.002918
0.394,53.2001,0.002918
0.410,53.2001,0.002918
0.426,53.2001,0.002918
0.442,53.2001,0.002918
0.458,53.2001,0.002918
0.474,53.2001,0.002918
0.490,53.2001,0.002918
0.506,53.2001,0.002918
0.522,53.2001,0.002918
0.538,53.2001,0.002918
0.554,53.2001,0.002918
0.570,53.2001,0.002918
0.586,53.2001,0.002918
0.602,53.2001,0.002918
0.625,53.2001,0.003313
0.640,53.2001,0.003313
0.656,53.2001,0.003313
0.672,53.2001,0.003313
0.688,53.2001,0.003313
0.704,53.2001,0.003313
0.720,53.2001,0.003313
0.736,53.2001,0.003313
0.754,53.2001,0.003313
0.778,53.2001,0.003313
0.809,53.2001,0.003313
0.840,53.2001,0.003313
0.871,53.2001,0.003483
0.902,53.2001,0.003483
0.918,53.2001,0.003483
0.934,53.2001,0.003483
0.965,53.2001,0.003483
0.996,53.2001,0.003483
1.026,53.2001,0.003483
1.042,53.2001,0.003483
1.073,53.2001,0.003483
1.104,53.2001,0.003549
1.120,53.2001,0.003549
1.137,53.2001,0.003549
1.165,53.2001,0.003549
1.184,53.2001,0.003549
1.200,53.2001,0.003549
1.216,53.2001,0.003549
1.234,53.2001,0.003549
1.258,53.2001,0.003549
1.274,53.2001,0.003549
1.305,53.2001,0.003549
1.336,53.2001,0.003624
1.366,53.2001,0.003624
1.382,53.2001,0.003624
1.413,53.2001,0.003624
1.433,53.2001,0.003624
1.459,53.2001,0.003624
1.477,53.2001,0.003624
1.506,53.2001,0.003624
1.522,53.2001,0.003624
1.553,53.2001,0.003624
1.583,53.2001,0.003615
1.601,53.2001,0.003615
1.616,53.2001,0.003615
1.645,53.2001,0.003615
1.666,53.2001,0.003615
1.691,53.2001,0.003615
1.712,53.2001,0.003615
1.728,53.2001,0.003615
1.743,53.2001,0.003615
1.759,53.2001,0.003615
1.776,53.2001,0.003615
1.791,53.2001,0.003615
1.808,53.2001,0.003615
1.824,53.2001,0.003577
1.840,53.2001,0.003577
1.856,53.2001,0.003577
1.871,53.2001,0.003577
1.888,53.2001,0.003577
1.904,53.2001,0.003577
1.920,53.2001,0.003577
1.935,53.2001,0.003577
1.952,53.2001,0.003577
1.967,53.2001,0.003577
1.983,53.2001,0.003577
2.000,53.2001,0.003577
2.015,53.2001,0.003577
2.033,53.2001,0.003577
2.048,53.2001,0.003577
2.063,53.2001,0.003577
2.080,53.2001,0.003624
2.097,53.2001,0.003624
2.126,53.2001,0.003624
2.143,53.2001,0.003624
2.160,53.2001,0.003624
2.175,53.2001,0.003624
2.192,53.2001,0.003624
2.208,53.2001,0.003624
2.225,53.2001,0.003624
2.250,53.2001,0.003624
2.265,53.2001,0.003624
2.282,53.2001,0.003624
2.298,53.2001,0.003624
2.313,53.2001,0.003624
2.329,53.2001,0.003662
2.345,53.2001,0.003662
2.363,53.2001,0.003662
2.391,53.2001,0.003662
2.410,53.2001,0.003662
2.425,53.2001,0.003662
2.441,53.2001,0.003662
2.457,53.2001,0.003662
2.474,53.2001,0.003662
2.490,53.2001,0.003662
2.506,53.2001,0.003662
2.521,53.2001,0.003662
2.537,53.2001,0.003662
2.553,53.2001,0.003662
2.569,53.2001,0.003652
2.586,53.2001,0.003652
2.601,53.2001,0.003652
2.618,53.2001,0.003652
2.633,53.2001,0.003652
2.649,53.2001,0.003652
2.665,53.2001,0.003652
2.681,53.2001,0.003652
2.698,53.2001,0.003652
2.713,53.2001,0.003652
2.730,53.2001,0.003652
2.746,53.2001,0.003652
2.762,53.2001,0.003652
2.791,53.2001,0.003652
2.807,53.2001,0.003652
2.823,53.2001,0.003662
2.839,53.2001,0.003662
2.856,53.2001,0.003662
2.886,53.2001,0.003662
2.903,53.2001,0.003662
2.919,53.2001,0.003662
2.935,53.2001,0.003662
2.952,53.2001,0.003662
2.967,53.2001,0.003662
2.983,53.2001,0.003662
2.999,53.2001,0.003662
3.015,53.2001,0.003662
3.031,53.2001,0.003662
3.047,53.2001,0.003662
3.063,53.2001,0.003662
3.079,53.2001,0.003662
3.095,53.2001,0.003662
3.112,53.2001,0.003662
3.134,53.2001,0.003662
3.165,53.2001,0.003662
3.181,53.2001,0.003662
3.212,53.2001,0.003662
3.243,53.2001,0.003662
3.258,53.2001,0.003662
3.274,53.2001,0.003662
3.291,53.2001,0.003662
3.315,53.2001,0.003662
3.331,53.2001,0.003662
3.347,53.2001,0.003662
3.363,53.2001,0.003662
3.379,53.2001,0.003662
3.395,53.2001,0.003662
3.411,53.2001,0.003662
3.427,53.2001,0.003662
3.443,53.2001,0.003662
3.459,53.2001,0.003662
3.476,53.2001,0.003662
3.492,53.2001,0.003662
3.520,53.2001,0.003662
3.539,53.2001,0.003662
3.555,53.2001,0.003662
3.571,53.2001,0.003605
3.587,53.2001,0.003605
3.605,53.2001,0.003605
3.627,53.2001,0.003605
3.658,53.2001,0.003605
3.690,53.2001,0.003605
3.721,53.2001,0.003605
3.737,53.2001,0.003605
3.766,53.2001,0.003605
3.781,53.2001,0.003605
3.797,53.2001,0.003605
3.812,53.2001,0.003605
3.840,53.2001,0.003483
3.856,53.2001,0.003483
3.872,53.2001,0.003483
3.888,53.2001,0.003483
3.904,53.2001,0.003483
3.920,53.2001,0.003483
3.936,53.2001,0.003483
3.952,53.2001,0.003483
3.970,53.2001,0.003483
3.997,53.2001,0.003483
4.016,53.2001,0.003483
4.032,53.2001,0.003483
4.049,53.2001,0.003483
4.076,53.2001,0.003332
4.096,53.1999,0.003332
4.112,53.1995,0.003332
4.128,53.1990,0.003332
4.144,53.1981,0.003332
4.160,53.1972,0.003332
4.176,53.1961,0.003332
4.192,53.1948,0.003332
4.208,53.1932,0.003332
4.224,53.1914,0.003332
4.240,53.1896,0.003332
4.256,53.1875,0.003332
4.272,53.1851,0.003332
4.287,53.1827,0.003332
4.303,53.1800,0.003332
4.320,53.1770,0.003332
4.336,53.1739,0.003332
4.351,53.1708,0.003332
4.368,53.1672,0.003332
4.383,53.1636,0.003464
4.399,53.1598,0.003464
4.416,53.1556,0.003464
4.431,53.1515,0.003464
4.455,53.1447,0.003464
4.478,53.1381,0.003464
4.495,53.1325,0.003464
4.512,53.1271,0.003464
4.527,53.1220,0.003464
4.544,53.1161,0.003464
4.560,53.1106,0.003464
4.576,53.1044,0.003464
4.591,53.0984,0.003464
4.608,53.0918,0.008302
4.623,53.0855,0.008302
4.641,53.0778,0.008302
4.664,53.0679,0.008302
4.680,53.0608,0.008302
4.696,53.0530,0.008302
4.711,53.0459,0.008302
4.741,53.0312,0.008302
4.757,53.0226,0.008302
4.788,53.0066,0.008302
4.804,52.9978,0.008302
4.819,52.9888,0.008302
4.835,52.9805,0.008302
4.850,52.9715,0.012275
4.880,52.9535,0.012275
4.911,52.9343,0.012275
4.938,52.9168,0.012275
4.954,52.9063,0.012275
4.970,52.8950,0.012275
4.987,52.8842,0.012275
5.002,52.8733,0.012275
5.019,52.8618,0.012275
5.035,52.8502,0.012275
5.050,52.8386,0.012275
5.066,52.8267,0.012275
5.083,52.8145,0.012275
5.098,52.8022,0.007945
5.114,52.7897,0.007945
5.131,52.7767,0.007945
5.146,52.7643,0.007945
5.163,52.7505,0.007945
5.179,52.7375,0.007945
5.194,52.7240,0.007945
5.211,52.7098,0.007945
5.227,52.6967,0.007945
5.242,52.6828,0.007945
5.259,52.6675,0.007945
5.274,52.6542,0.007945
5.290,52.6395,0.007945
5.306,52.6243,0.007945
5.323,52.6091,0.007945
5.339,52.5940,0.004179
5.354,52.5791,0.004179
5.370,52.5631,0.004179
5.387,52.5466,0.004179
5.402,52.5317,0.004179
5.418,52.5150,0.004179
5.434,52.4991,0.004179
5.461,52.4706,0.004179
5.477,52.4536,0.004179
5.494,52.4354,0.004179
5.509,52.4192,0.004179
5.525,52.4023,0.004179
5.541,52.3845,0.004179
5.557,52.3668,0.004179
5.573,52.3487,0.004179
5.589,52.3304,0.004123
5.605,52.3120,0.004123
5.621,52.2929,0.004123
5.637,52.2741,0.004123
5.653,52.2544,0.004123
5.669,52.2357,0.004123
5.685,52.2162,0.004123
5.701,52.1971,0.004123
5.717,52.1770,0.004123
5.733,52.1568,0.004123
5.749,52.1368,0.004123
5.765,52.1165,0.004123
5.781,52.0958,0.004123
5.797,52.0750,0.004123
5.814,52.0528,0.004123
5.841,52.0167,0.004189
5.862,51.9883,0.004189
5.877,51.9677,0.004189
5.893,51.9462,0.004189
5.909,51.9248,0.004189
5.925,51.9023,0.004189
5.941,51.8789,0.004189
5.957,51.8564,0.004189
5.973,51.8329,0.004189
5.997,51.7994,0.004189
6.013,51.7758,0.004189
6.029,51.7524,0.004189
6.045,51.7286,0.004189
6.061,51.7044,0.004189
6.077,51.6797,0.004189
6.094,51.6545,0.004292
6.109,51.6317,0.004292
6.129,51.6004,0.004292
6.152,51.5630,0.004292
6.173,51.5302,0.004292
6.189,51.5056,0.004292
6.205,51.4796,0.004292
6.221,51.4543,0.004292
6.238,51.4261,0.004292
6.253,51.4014,0.004292
6.269,51.3753,0.004292
6.285,51.3481,0.004292
6.301,51.3211,0.004292
6.317,51.2936,0.004292
6.333,51.2665,0.004424
6.349,51.2404,0.004424
6.366,51.2103,0.004424
6.389,51.1698,0.004424
6.416,51.1233,0.004424
6.446,51.0693,0.004424
6.461,51.0416,0.004424
6.477,51.0125,0.004424
6.493,50.9838,0.004424
6.509,50.9538,0.004424
6.526,50.9224,0.004424
6.551,50.8744,0.004424
6.571,50.8386,0.004424
6.601,50.7819,0.004612
6.631,50.7225,0.004612
6.647,50.6920,0.004612
6.662,50.6625,0.004612
6.682,50.6243,0.004612
6.708,50.5719,0.004612
6.727,50.5352,0.004612
6.743,50.5028,0.004612
6.759,50.4690,0.004612
6.774,50.4381,0.004612
6.791,50.4047,0.004612
6.808,50.3688,0.004612
6.832,50.3202,0.004612
6.847,50.2860,0.004848
6.878,50.2229,0.004848
6.908,50.1566,0.004848
6.939,50.0906,0.004848
6.970,50.0266,0.004848
7.000,49.9656,0.004848
7.016,49.9332,0.004848
7.031,49.9015,0.004848
7.047,49.8690,0.004848
7.062,49.8373,0.004848
7.079,49.8055,0.004848
7.107,49.7488,0.004989
7.122,49.7189,0.004989
7.138,49.6876,0.004989
7.153,49.6575,0.004989
7.169,49.6262,0.004989
7.185,49.5956,0.004989
7.202,49.5634,0.004989
7.217,49.5343,0.004989
7.241,49.4894,0.004989
7.264,49.4469,0.004989
7.281,49.4140,0.004989
7.299,49.3827,0.004989
7.325,49.3331,0.005130
7.346,49.2949,0.005130
7.364,49.2626,0.005130
7.380,49.2353,0.005130
7.402,49.1958,0.005130
7.433,49.1427,0.005130
7.449,49.1145,0.005130
7.479,49.0612,0.005130
7.510,49.0097,0.005130
7.526,48.9839,0.005130
7.557,48.9332,0.005130
7.572,48.9075,0.005403
7.602,48.8584,0.005403
7.618,48.8339,0.005403
7.634,48.8081,0.005403
7.663,48.7619,0.005403
7.679,48.7366,0.005403
7.695,48.7126,0.005403
7.711,48.6878,0.005403
7.728,48.6636,0.005403
7.744,48.6393,0.005403
7.760,48.6156,0.005403
7.776,48.5905,0.005403
7.797,48.5603,0.005403
7.818,48.5289,0.005403
7.839,48.4990,0.005742
7.856,48.4751,0.005742
7.871,48.4540,0.005742
7.887,48.4316,0.005742
7.903,48.4093,0.005742
7.920,48.3866,0.005742
7.935,48.3655,0.005742
7.951,48.3433,0.005742
7.967,48.3225,0.005742
7.983,48.3006,0.005742
7.999,48.2805,0.005742
8.015,48.2595,0.005742
8.031,48.2389,0.005742
8.047,48.2182,0.005742
8.063,48.1982,0.005742
8.079,48.1781,0.006043
8.095,48.1584,0.006043
8.112,48.1378,0.006043
8.127,48.1192,0.006043
8.144,48.0985,0.006043
8.161,48.0776,0.006043
8.188,48.0458,0.006043
8.205,48.0278,0.006043
8.220,48.0098,0.006043
8.237,47.9912,0.006043
8.252,47.9739,0.006043
8.268,47.9560,0.006043
8.284,47.9382,0.006043
8.300,47.9212,0.006043
8.316,47.9039,0.006043
8.333,47.8852,0.006288
8.356,47.8615,0.006288
8.375,47.8419,0.006288
8.396,47.8208,0.006288
8.415,47.8011,0.006288
8.437,47.7804,0.006288
8.467,47.7501,0.006288
8.483,47.7362,0.006288
8.498,47.7219,0.006288
8.528,47.6931,0.006288
8.545,47.6793,0.006288
8.575,47.6530,0.006552
8.605,47.6259,0.006552
8.636,47.6011,0.006552
8.652,47.5877,0.006552
8.668,47.5745,0.006552
8.684,47.5621,0.006552
8.708,47.5434,0.006552
8.725,47.5301,0.006552
8.740,47.5190,0.006552
8.756,47.5072,0.006552
8.772,47.4951,0.006552
8.788,47.4837,0.006552
8.804,47.4729,0.006552
8.821,47.4609,0.006552
8.837,47.4501,0.006552
8.852,47.4398,0.006778
8.869,47.4292,0.006778
8.891,47.4149,0.006778
8.913,47.4008,0.006778
8.932,47.3892,0.006778
8.948,47.3801,0.006778
8.964,47.3704,0.006778
8.980,47.3616,0.006778
8.996,47.3526,0.006778
9.012,47.3436,0.006778
9.028,47.3349,0.006778
9.044,47.3270,0.006778
9.060,47.3188,0.006778
9.078,47.3095,0.006778
9.093,47.3023,0.006778
9.116,47.2913,0.006778
9.146,47.2779,0.006909
9.177,47.2646,0.006909
9.207,47.2526,0.006909
9.238,47.2405,0.006909
9.269,47.2297,0.006909
9.284,47.2247,0.006909
9.300,47.2193,0.006909
9.316,47.2142,0.006909
9.332,47.2093,0.006909
9.348,47.2046,0.006985
9.364,47.2001,0.006985
9.380,47.1959,0.006985
9.396,47.1918,0.006985
9.412,47.1877,0.006985
9.428,47.1841,0.006985
9.444,47.1805,0.006985
9.460,47.1772,0.006985
9.476,47.1741,0.006985
9.492,47.1711,0.006985
9.508,47.1682,0.006985
9.524,47.1657,0.006985
9.540,47.1634,0.006985
9.556,47.1613,0.006985
9.572,47.1593,0.006985
9.588,47.1574,0.007069
9.604,47.1559,0.007069
9.620,47.1545,0.007069
9.636,47.1532,0.007069
9.652,47.1522,0.007069
9.668,47.1515,0.007069
9.684,47.1509,0.007069
9.701,47.1504,0.007069
9.716,47.1501,0.007069
9.732,47.1501,0.007069
9.748,47.1501,0.007069
9.773,47.1501,0.007069
9.791,47.1501,0.007069
9.807,47.1501,0.007069
9.826,47.1501,0.007069
9.856,47.1501,0.007173
9.872,47.1501,0.007173
9.901,47.1502,0.007173
9.917,47.1506,0.007173
9.948,47.1519,0.007173
9.972,47.1533,0.007173
9.987,47.1543,0.007173
10.010,47.1564,0.007173
10.029,47.1584,0.007173
10.056,47.1616,0.007173
10.075,47.1645,0.007258
10.092,47.1670,0.007258
10.107,47.1696,0.007258
10.124,47.1726,0.007258
10.139,47.1754,0.007258
10.155,47.1788,0.007258
10.172,47.1821,0.007258
10.188,47.1857,0.007258
10.204,47.1898,0.007258
10.220,47.1938,0.007258
10.241,47.1992,0.007258
10.272,47.2079,0.007258
10.296,47.2152,0.007258
10.312,47.2207,0.007258
10.328,47.2260,0.007211
10.344,47.2313,0.007211
10.359,47.2368,0.007211
10.376,47.2428,0.007211
10.391,47.2488,0.007211
10.407,47.2550,0.007211
10.424,47.2617,0.007211
10.440,47.2683,0.007211
10.455,47.2750,0.007211
10.472,47.2824,0.007211
10.487,47.2894,0.007211
10.503,47.2971,0.007211
10.523,47.3065,0.007211
10.550,47.3197,0.007211
10.568,47.3287,0.007211
10.584,47.3378,0.007211
10.612,47.3526,0.007116
10.632,47.3636,0.007116
10.648,47.3727,0.007116
10.663,47.3818,0.007116
10.680,47.3918,0.007116
10.695,47.4013,0.007116
10.712,47.4117,0.007116
10.727,47.4215,0.007116
10.743,47.4315,0.007116
10.759,47.4421,0.007116
10.775,47.4534,0.007116
10.791,47.4639,0.007116
10.807,47.4749,0.007116
10.823,47.4863,0.007116
10.839,47.4980,0.007116
10.855,47.5094,0.007022
10.871,47.5213,0.007022
10.887,47.5333,0.007022
10.903,47.5457,0.007022
10.919,47.5586,0.007022
10.935,47.5708,0.007022
10.951,47.5839,0.007022
10.968,47.5973,0.007022
10.984,47.6105,0.007022
10.999,47.6235,0.007022
11.016,47.6377,0.007022
11.031,47.6510,0.007022
11.049,47.6662,0.007022
11.076,47.6912,0.007022
11.096,47.7088,0.007022
11.112,47.7237,0.006843
11.127,47.7385,0.006843
11.144,47.7539,0.006843
11.160,47.7690,0.006843
11.175,47.7840,0.006843
11.191,47.8001,0.006843
11.208,47.8165,0.006843
11.224,47.8324,0.006843
11.239,47.8487,0.006843
11.255,47.8652,0.006843
11.272,47.8823,0.006843
11.287,47.8985,0.006843
11.303,47.9161,0.006843
11.319,47.9331,0.006843
11.346,47.9631,0.006843
11.362,47.9809,0.006843
11.378,47.9987,0.006665
11.396,48.0187,0.006665
11.417,48.0430,0.006665
11.432,48.0612,0.006665
11.468,48.1041,0.006665
11.495,48.1361,0.006665
11.526,48.1752,0.006665
11.556,48.2125,0.006665
11.587,48.2523,0.006665
11.617,48.2917,0.006467
11.635,48.3151,0.006467
11.650,48.3359,0.006467
11.666,48.3564,0.006467
11.682,48.3779,0.006467
11.698,48.4014,0.006467
11.714,48.4219,0.006467
11.730,48.4444,0.006467
11.747,48.4689,0.006467
11.767,48.4969,0.006467
11.789,48.5284,0.006467
11.811,48.5601,0.006467
11.826,48.5835,0.006467
11.842,48.6068,0.006467
11.858,48.6295,0.006467
11.881,48.6656,0.006109
11.897,48.6887,0.006109
11.913,48.7133,0.006109
11.929,48.7381,0.006109
11.945,48.7635,0.006109
11.962,48.7900,0.006109
11.990,48.8348,0.006109
12.010,48.8664,0.006109
12.029,48.8959,0.006109
12.053,48.9349,0.006109
12.073,48.9698,0.006109
12.089,48.9952,0.006109
12.105,49.0221,0.005770
12.121,49.0500,0.005770
12.137,49.0779,0.005770
12.153,49.1055,0.005770
12.169,49.1315,0.005770
12.185,49.1595,0.005770
12.201,49.1888,0.005770
12.217,49.2152,0.005770
12.233,49.2438,0.005770
12.249,49.2753,0.005770
12.265,49.3013,0.005770
12.281,49.3301,0.005770
12.297,49.3591,0.005770
12.314,49.3911,0.005770
12.333,49.4271,0.005770
12.362,49.4809,0.005591
12.393,49.5400,0.005591
12.410,49.5701,0.005591
12.435,49.6193,0.005591
12.451,49.6509,0.005591
12.467,49.6809,0.005591
12.483,49.7119,0.005591
12.499,49.7453,0.005591
12.515,49.7773,0.005591
12.531,49.8076,0.005591
12.547,49.8399,0.005591
12.563,49.8732,0.005591
12.579,49.9055,0.005591
12.595,49.9385,0.005337
12.612,49.9734,0.005337
12.627,50.0046,0.005337
12.643,50.0374,0.005337
12.659,50.0702,0.005337
12.675,50.1068,0.005337
12.695,50.1473,0.005337
12.717,50.1946,0.005337
12.739,50.2402,0.005337
12.755,50.2748,0.005337
12.771,50.3064,0.005337
12.787,50.3407,0.005337
12.803,50.3726,0.005337
12.819,50.4070,0.005337
12.835,50.4396,0.005337
12.850,50.4700,0.005083
12.867,50.5022,0.005083
12.883,50.5352,0.005083
12.898,50.5663,0.005083
12.914,50.5971,0.005083
12.932,50.6318,0.005083
12.948,50.6644,0.005083
12.979,50.7227,0.005083
12.995,50.7549,0.005083
13.011,50.7840,0.005083
13.041,50.8404,0.005083
13.066,50.8862,0.005083
13.088,50.9268,0.005083
13.106,50.9606,0.004895
13.123,50.9912,0.004895
13.139,51.0199,0.004895
13.154,51.0482,0.004895
13.171,51.0769,0.004895
13.187,51.1048,0.004895
13.202,51.1324,0.004895
13.218,51.1598,0.004895
13.234,51.1874,0.004895
13.251,51.2163,0.004895
13.273,51.2536,0.004895
13.289,51.2800,0.004895
13.320,51.3322,0.004895
13.351,51.3828,0.004707
13.382,51.4335,0.004707
13.397,51.4582,0.004707
13.413,51.4836,0.004707
13.444,51.5322,0.004707
13.474,51.5784,0.004707
13.490,51.6048,0.004707
13.513,51.6377,0.004707
13.529,51.6627,0.004707
13.545,51.6858,0.004707
13.560,51.7090,0.004707
13.577,51.7346,0.004707
13.596,51.7620,0.004556
13.627,51.8072,0.004556
13.643,51.8287,0.004556
13.658,51.8506,0.004556
13.674,51.8724,0.004556
13.690,51.8967,0.004556
13.721,51.9367,0.004556
13.737,51.9579,0.004556
13.754,51.9819,0.004556
13.783,52.0189,0.004556
13.801,52.0422,0.004556
13.817,52.0638,0.004556
13.832,52.0825,0.004556
13.849,52.1039,0.004349
13.864,52.1228,0.004349
13.881,52.1444,0.004349
13.896,52.1626,0.004349
13.913,52.1822,0.004349
13.928,52.2017,0.004349
13.945,52.2209,0.004349
13.961,52.2402,0.004349
13.976,52.2578,0.004349
13.993,52.2779,0.004349
14.017,52.3044,0.004349
14.044,52.3358,0.004349
14.060,52.3526,0.004349
14.076,52.3701,0.004349
14.107,52.4040,0.004151
14.138,52.4359,0.004151
14.154,52.4524,0.004151
14.183,52.4823,0.004151
14.200,52.4992,0.004151
14.217,52.5155,0.004151
14.232,52.5307,0.004151
14.248,52.5462,0.004151
14.265,52.5620,0.004151
14.280,52.5763,0.004151
14.296,52.5919,0.004151
14.312,52.6059,0.004151
14.332,52.6239,0.004151
14.354,52.6430,0.004151
14.385,52.6703,0.004067
14.416,52.6962,0.004067
14.432,52.7087,0.004067
14.448,52.7226,0.004067
14.464,52.7345,0.004067
14.480,52.7472,0.004067
14.495,52.7593,0.004067
14.511,52.7716,0.004067
14.529,52.7844,0.004067
14.558,52.8057,0.004067
14.588,52.8274,0.004067
14.604,52.8386,0.003916
14.620,52.8497,0.003916
14.636,52.8603,0.003916
14.667,52.8800,0.003916
14.697,52.8991,0.003916
14.713,52.9086,0.003916
14.728,52.9177,0.003916
14.744,52.9272,0.003916
14.761,52.9368,0.003916
14.791,52.9537,0.003916
14.808,52.9628,0.003916
14.824,52.9718,0.003916
14.840,52.9793,0.003916
14.856,52.9878,0.003728
14.872,52.9955,0.003728
14.889,53.0034,0.003728
14.904,53.0105,0.003728
14.920,53.0179,0.003728
14.936,53.0251,0.003728
14.952,53.0317,0.003728
14.968,53.0384,0.003728
14.984,53.0447,0.003728
15.000,53.0510,0.003728
15.016,53.0574,0.003728
15.032,53.0631,0.003728
15.048,53.0689,0.003728
15.065,53.0745,0.003728
15.084,53.0809,0.003728
15.099,53.0859,0.003728
15.115,53.0910,0.003728
15.138,53.0973,0.003370
15.154,53.1016,0.003370
15.170,53.1060,0.003370
15.186,53.1101,0.003370
15.202,53.1140,0.003370
15.218,53.1174,0.003370
15.234,53.1210,0.003370
15.250,53.1242,0.003370
15.266,53.1273,0.003370
15.282,53.1302,0.003370
15.298,53.1329,0.003370
15.314,53.1354,0.003370
15.330,53.1376,0.003370
15.346,53.1397,0.002513
15.363,53.1418,0.002513
15.382,53.1437,0.002513
15.410,53.1463,0.002513
15.426,53.1474,0.002513
15.443,53.1484,0.002513
15.459,53.1490,0.002513
15.488,53.1499,0.002513
15.508,53.1501,0.002513
15.534,53.1501,0.002513
15.554,53.1501,0.002513
15.570,53.1501,0.002513
15.586,53.1501,0.002513
15.602,53.1501,0.001892
15.618,53.1501,0.001892
15.635,53.1501,0.001892
15.658,53.1501,0.001892
15.673,53.1501,0.001892
15.694,53.1501,0.001892
15.720,53.1501,0.001892
15.741,53.1501,0.001892
15.758,53.1501,0.001892
15.774,53.1501,0.001892
15.797,53.1501,0.001892
15.828,53.1501,0.001892
15.859,53.1501,0.002410
15.891,53.1501,0.002410
15.921,53.1501,0.002410
15.952,53.1501,0.002410
15.967,53.1501,0.002410
15.983,53.1501,0.002410
15.999,53.1501,0.002410
16.029,53.1501,0.002410
16.045,53.1501,0.002410
16.067,53.1501,0.002410
16.082,53.1501,0.002410
16.105,53.1501,0.003153
16.125,53.1501,0.003153
16.141,53.1501,0.003153
16.157,53.1501,0.003153
16.173,53.1501,0.003153
16.190,53.1501,0.003153
16.205,53.1501,0.003153
16.229,53.1501,0.003153
16.250,53.1501,0.003153
16.265,53.1501,0.003153
16.282,53.1501,0.003153
16.298,53.1501,0.003153
16.314,53.1501,0.003153
16.331,53.1501,0.003153
16.353,53.1501,0.003379
16.371,53.1501,0.003379
16.401,53.1501,0.003379
16.416,53.1501,0.003379
16.433,53.1501,0.003379
16.463,53.1501,0.003379
16.478,53.1501,0.003379
16.509,53.1501,0.003379
16.524,53.1501,0.003379
16.540,53.1501,0.003379
16.571,53.1501,0.003379
16.586,53.1501,0.003492
16.602,53.1501,0.003492
16.619,53.1501,0.003492
16.649,53.1501,0.003492
16.665,53.1501,0.003492
16.681,53.1501,0.003492
16.697,53.1501,0.003492
16.714,53.1501,0.003492
16.729,53.1501,0.003492
16.748,53.1501,0.003492
16.773,53.1501,0.003492
16.794,53.1501,0.003492
16.809,53.1501,0.003492
16.826,53.1501,0.003492
16.841,53.1501,0.003596
16.858,53.1501,0.003596
16.877,53.1501,0.003596
16.897,53.1501,0.003596
16.928,53.1501,0.003596
16.944,53.1501,0.003596
16.959,53.1501,0.003596
16.975,53.1501,0.003596
17.005,53.1501,0.003596
17.037,53.1501,0.003596
17.067,53.1501,0.003596
17.098,53.1501,0.003652
17.114,53.1501,0.003652
17.145,53.1501,0.003652
17.161,53.1501,0.003652
17.178,53.1501,0.003652
17.194,53.1501,0.003652
17.210,53.1501,0.003652
17.226,53.1501,0.003652
17.242,53.1501,0.003652
17.268,53.1501,0.003652
17.290,53.1501,0.003652
17.313,53.1501,0.003652
17.346,53.1501,0.003652
17.376,53.1501,0.003662
17.407,53.1501,0.003662
17.422,53.1501,0.003662
17.439,53.1501,0.003662
17.469,53.1501,0.003662
17.485,53.1501,0.003662
17.515,53.1501,0.003662
17.545,53.1501,0.003662
17.562,53.1501,0.003662
17.577,53.1501,0.003662
17.593,53.1501,0.003643
17.610,53.1501,0.003643
17.628,53.1501,0.003643
17.652,53.1501,0.003643
17.673,53.1501,0.003643
17.690,53.1501,0.003643
17.707,53.1501,0.003643
17.731,53.1501,0.003643
17.761,53.1501,0.003643
17.777,53.1501,0.003643
17.808,53.1501,0.003643
17.839,53.1501,0.003643
17.854,53.1501,0.003643
17.875,53.1501,0.003605
17.891,53.1501,0.003605
17.907,53.1501,0.003605
17.923,53.1501,0.003605
17.939,53.1501,0.003605
17.955,53.1501,0.003605
17.971,53.1501,0.003605
17.987,53.1501,0.003605
18.004,53.1501,0.003605
18.024,53.1501,0.003605
18.040,53.1501,0.003605
18.070,53.1501,0.003605
18.086,53.1501,0.003624
18.101,53.1501,0.003624
18.132,53.1501,0.003624
18.147,53.1501,0.003624
18.163,53.1501,0.003624
18.186,53.1501,0.003624
18.211,53.1501,0.003624
18.227,53.1501,0.003624
18.243,53.1501,0.003624
18.260,53.1501,0.003624
18.275,53.1501,0.003624
18.291,53.1501,0.003624
18.308,53.1501,0.003624
18.333,53.1501,0.003624
18.349,53.1501,0.003681
18.380,53.1501,0.003681
18.411,53.1501,0.003681
18.432,53.1501,0.003681
18.448,53.1501,0.003681
18.464,53.1501,0.003681
18.481,53.1501,0.003681
18.496,53.1501,0.003681
18.513,53.1501,0.003681
18.528,53.1501,0.003681
18.544,53.1501,0.003681
18.560,53.1501,0.003681
18.576,53.1501,0.003690
18.592,53.1501,0.003690
18.608,53.1501,0.003690
18.624,53.1501,0.003690
18.640,53.1501,0.003690
18.656,53.1501,0.003690
18.675,53.1501,0.003690
18.704,53.1501,0.003690
18.720,53.1501,0.003690
18.736,53.1501,0.003690
18.752,53.1501,0.003690
18.768,53.1501,0.003690
18.784,53.1501,0.003690
18.802,53.1501,0.003690
18.829,53.1501,0.003681
18.848,53.1501,0.003681
18.866,53.1501,0.003681
18.891,53.1501,0.003681
18.912,53.1501,0.003681
18.928,53.1501,0.003681
18.944,53.1501,0.003681
18.959,53.1501,0.003681
18.983,53.1501,0.003681
19.001,53.1501,0.003681
19.029,53.1501,0.003681
19.048,53.1501,0.003681
19.076,53.1501,0.003681
19.095,53.1501,0.003681
19.111,53.1501,0.003681
19.126,53.1501,0.003681
19.143,53.1501,0.003681
19.159,53.1501,0.003681
19.175,53.1501,0.003681
19.191,53.1501,0.003681
19.215,53.1501,0.003681
19.232,53.1501,0.003681
19.262,53.1501,0.003681
19.278,53.1501,0.003681
19.309,53.1501,0.003681
19.340,53.1501,0.003633
19.370,53.1501,0.003633
19.401,53.1501,0.003633
19.418,53.1501,0.003633
19.448,53.1501,0.003633
19.479,53.1501,0.003633
19.495,53.1501,0.003633
19.510,53.1501,0.003633
19.538,53.1501,0.003633
19.554,53.1501,0.003633
19.569,53.1501,0.003492
19.586,53.1501,0.003492
19.618,53.1501,0.003492
19.633,53.1501,0.003492
19.649,53.1501,0.003492
19.666,53.1501,0.003492
19.681,53.1501,0.003492
19.698,53.1501,0.003492
19.713,53.1501,0.003492
19.731,53.1501,0.003492
19.756,53.1501,0.003492
19.772,53.1501,0.003492
19.794,53.1501,0.003492
19.809,53.1501,0.003492
19.826,53.1501,0.003342
19.841,53.1501,0.003342
19.859,53.1499,0.003342
19.881,53.1493,0.003342
19.912,53.1476,0.003342
19.942,53.1454,0.003342
19.974,53.1424,0.003342
19.989,53.1407,0.003342
20.004,53.1388,0.003342
20.036,53.1342,0.003342
20.059,53.1305,0.003342
20.082,53.1263,0.003342
20.099,53.1231,0.003492
20.129,53.1168,0.003492
20.145,53.1130,0.003492
20.160,53.1092,0.003492
20.177,53.1050,0.003492
20.207,53.0969,0.003492
20.242,53.0862,0.003492
20.269,53.0778,0.003492
20.299,53.0671,0.003492
20.315,53.0618,0.003492
20.330,53.0560,0.008246
20.347,53.0494,0.008246
20.376,53.0379,0.008246
20.394,53.0302,0.008246
20.411,53.0230,0.008246
20.426,53.0164,0.008246
20.442,53.0090,0.008246
20.458,53.0015,0.008246
20.475,52.9937,0.008246
20.490,52.9855,0.008246
20.506,52.9780,0.008246
20.523,52.9694,0.008246
20.539,52.9609,0.008246
20.554,52.9526,0.008246
20.570,52.9435,0.008246
20.591,52.9313,0.012284
20.608,52.9223,0.012284
20.623,52.9127,0.012284
20.640,52.9026,0.012284
20.670,52.8840,0.012284
20.687,52.8732,0.012284
20.703,52.8625,0.012284
20.719,52.8518,0.012284
20.735,52.8409,0.012284
20.751,52.8299,0.012284
20.767,52.8190,0.012284
20.783,52.8071,0.012284
20.799,52.7950,0.012284
20.815,52.7843,0.012284
20.831,52.7718,0.008086
20.847,52.7596,0.008086
20.863,52.7468,0.008086
20.879,52.7346,0.008086
20.895,52.7214,0.008086
20.912,52.7087,0.008086
20.927,52.6961,0.008086
20.943,52.6827,0.008086
20.959,52.6692,0.008086
20.975,52.6554,0.008086
20.991,52.6414,0.008086
21.007,52.6269,0.008086
21.023,52.6130,0.008086
21.039,52.5980,0.008086
21.055,52.5838,0.008086
21.073,52.5668,0.008086
21.102,52.5393,0.008086
21.130,52.5119,0.004227
21.147,52.4955,0.004227
21.165,52.4769,0.004227
21.195,52.4457,0.004227
21.218,52.4227,0.004227
21.241,52.3982,0.004227
21.258,52.3791,0.004227
21.274,52.3623,0.004227
21.290,52.3452,0.004227
21.306,52.3272,0.004227
21.322,52.3080,0.004227
21.338,52.2914,0.004227
21.355,52.2713,0.004123
21.382,52.2408,0.004123
21.402,52.2167,0.004123
21.418,52.1979,0.004123
21.434,52.1783,0.004123
21.450,52.1578,0.004123
21.467,52.1381,0.004123
21.490,52.1086,0.004123
21.521,52.0699,0.004123
21.551,52.0313,0.004123
21.583,51.9880,0.004123
21.613,51.9483,0.004189
21.629,51.9259,0.004189
21.652,51.8962,0.004189
21.668,51.8738,0.004189
21.684,51.8512,0.004189
21.700,51.8287,0.004189
21.716,51.8066,0.004189
21.732,51.7835,0.004189
21.748,51.7604,0.004189
21.764,51.7375,0.004189
21.780,51.7132,0.004189
21.796,51.6895,0.004189
21.812,51.6661,0.004189
21.828,51.6416,0.004189
21.844,51.6168,0.004255
21.860,51.5935,0.004255
21.875,51.5691,0.004255
21.892,51.5440,0.004255
21.908,51.5178,0.004255
21.924,51.4939,0.004255
21.939,51.4680,0.004255
21.956,51.4416,0.004255
21.972,51.4160,0.004255
21.989,51.3881,0.004255
22.004,51.3637,0.004255
22.020,51.3379,0.004255
22.036,51.3106,0.004255
22.052,51.2846,0.004255
22.068,51.2572,0.004255
22.084,51.2302,0.004255
22.099,51.2037,0.004424
22.117,51.1736,0.004424
22.132,51.1468,0.004424
22.147,51.1201,0.004424
22.164,51.0916,0.004424
22.188,51.0485,0.004424
22.204,51.0189,0.004424
22.219,50.9920,0.004424
22.235,50.9630,0.004424
22.252,50.9327,0.004424
22.268,50.9034,0.004424
22.283,50.8750,0.004424
22.300,50.8443,0.004424
22.316,50.8134,0.004424
22.331,50.7850,0.004424
22.347,50.7546,0.004660
22.364,50.7234,0.004660
22.380,50.6926,0.004660
22.395,50.6623,0.004660
22.412,50.6311,0.004660
22.427,50.6000,0.004660
22.444,50.5666,0.004660
22.459,50.5365,0.004660
22.476,50.5040,0.004660
22.491,50.4722,0.004660
22.507,50.4401,0.004660
22.524,50.4061,0.004660
22.540,50.3741,0.004660
22.555,50.3420,0.004660
22.571,50.3086,0.004660
22.587,50.2745,0.004914
22.604,50.2413,0.004914
22.621,50.2057,0.004914
22.637,50.1723,0.004914
22.652,50.1395,0.004914
22.667,50.1060,0.004914
22.684,50.0706,0.004914
22.700,50.0379,0.004914
22.716,50.0044,0.004914
22.741,49.9509,0.004914
22.757,49.9184,0.004914
22.773,49.8863,0.004914
22.788,49.8542,0.004914
22.805,49.8191,0.004914
22.828,49.7731,0.004914
22.852,49.7266,0.005055
22.869,49.6916,0.005055
22.884,49.6616,0.005055
22.900,49.6302,0.005055
22.916,49.5993,0.005055
22.932,49.5682,0.005055
22.948,49.5376,0.005055
22.964,49.5067,0.005055
22.981,49.4739,0.005055
22.997,49.4449,0.005055
23.013,49.4148,0.005055
23.028,49.3861,0.005055
23.044,49.3559,0.005055
23.063,49.3228,0.005055
23.084,49.2834,0.005055
23.114,49.2287,0.005196
23.144,49.1752,0.005196
23.175,49.1217,0.005196
23.190,49.0943,0.005196
23.206,49.0680,0.005196
23.221,49.0409,0.005196
23.252,48.9874,0.005196
23.268,48.9614,0.005196
23.296,48.9151,0.005196
23.312,48.8874,0.005196
23.328,48.8624,0.005544
23.344,48.8360,0.005544
23.360,48.8098,0.005544
23.376,48.7849,0.005544
23.392,48.7583,0.005544
23.408,48.7343,0.005544
23.431,48.6959,0.005544
23.454,48.6618,0.005544
23.472,48.6339,0.005544
23.489,48.6090,0.005544
23.516,48.5688,0.005544
23.536,48.5387,0.005544
23.553,48.5134,0.005544
23.577,48.4784,0.005544
23.593,48.4553,0.005827
23.624,48.4112,0.005827
23.654,48.3693,0.005827
23.669,48.3474,0.005827
23.686,48.3262,0.005827
23.717,48.2842,0.005827
23.732,48.2625,0.005827
23.748,48.2423,0.005827
23.764,48.2222,0.005827
23.780,48.2018,0.005827
23.810,48.1619,0.005827
23.841,48.1243,0.006062
23.857,48.1035,0.006062
23.887,48.0679,0.006062
23.904,48.0468,0.006062
23.920,48.0283,0.006062
23.936,48.0092,0.006062
23.952,47.9900,0.006062
23.969,47.9705,0.006062
23.984,47.9535,0.006062
24.000,47.9358,0.006062
24.016,47.9177,0.006062
24.032,47.9000,0.006062
24.048,47.8821,0.006062
24.064,47.8650,0.006062
24.080,47.8485,0.006288
24.096,47.8313,0.006288
24.112,47.8140,0.006288
24.128,47.7980,0.006288
24.144,47.7809,0.006288
24.160,47.7656,0.006288
24.177,47.7489,0.006288
24.192,47.7338,0.006288
24.208,47.7181,0.006288
24.224,47.7029,0.006288
24.240,47.6875,0.006288
24.256,47.6729,0.006288
24.272,47.6576,0.006288
24.288,47.6425,0.006288
24.304,47.6287,0.006288
24.320,47.6145,0.006552
24.336,47.6006,0.006552
24.352,47.5863,0.006552
24.376,47.5661,0.006552
24.392,47.5527,0.006552
24.408,47.5394,0.006552
24.424,47.5266,0.006552
24.439,47.5144,0.006552
24.456,47.5018,0.006552
24.472,47.4892,0.006552
24.488,47.4770,0.006552
24.504,47.4650,0.006552
24.520,47.4530,0.006552
24.536,47.4414,0.006552
24.552,47.4300,0.006552
24.567,47.4187,0.006552
24.584,47.4080,0.006806
24.601,47.3963,0.006806
24.631,47.3770,0.006806
24.648,47.3660,0.006806
24.664,47.3554,0.006806
24.680,47.3459,0.006806
24.695,47.3364,0.006806
24.712,47.3270,0.006806
24.727,47.3177,0.006806
24.744,47.3082,0.006806
24.759,47.2997,0.006806
24.775,47.2910,0.006806
24.792,47.2823,0.006806
24.807,47.2741,0.006806
24.824,47.2658,0.006956
24.840,47.2576,0.006956
24.856,47.2501,0.006956
24.871,47.2429,0.006956
24.896,47.2315,0.006956
24.913,47.2238,0.006956
24.937,47.2139,0.006956
24.968,47.2013,0.006956
24.998,47.1900,0.006956
25.013,47.1843,0.006956
25.030,47.1786,0.006956
25.060,47.1686,0.006956
25.076,47.1635,0.006956
25.092,47.1584,0.006956
25.124,47.1496,0.007013
25.139,47.1455,0.007013
25.155,47.1412,0.007013
25.171,47.1375,0.007013
25.201,47.1306,0.007013
25.217,47.1274,0.007013
25.232,47.1242,0.007013
25.248,47.1213,0.007013
25.271,47.1175,0.007013
25.296,47.1137,0.007013
25.312,47.1114,0.007013
25.329,47.1093,0.007013
25.345,47.1075,0.007013
25.371,47.1050,0.007098
25.393,47.1032,0.007098
25.409,47.1022,0.007098
25.424,47.1015,0.007098
25.448,47.1005,0.007098
25.464,47.1001,0.007098
25.480,47.1000,0.007098
25.495,47.1000,0.007098
25.517,47.1000,0.007098
25.541,47.1000,0.007098
25.559,47.1000,0.007098
25.576,47.1000,0.007098
25.592,47.1000,0.007098
25.608,47.1000,0.007220
25.623,47.1000,0.007220
25.639,47.1003,0.007220
25.655,47.1006,0.007220
25.672,47.1012,0.007220
25.688,47.1020,0.007220
25.704,47.1031,0.007220
25.727,47.1048,0.007220
25.757,47.1078,0.007220
25.788,47.1114,0.007220
25.803,47.1135,0.007220
25.819,47.1160,0.007220
25.850,47.1210,0.007229
25.881,47.1269,0.007229
25.896,47.1303,0.007229
25.912,47.1335,0.007229
25.928,47.1372,0.007229
25.944,47.1411,0.007229
25.959,47.1453,0.007229
25.975,47.1492,0.007229
26.003,47.1574,0.007229
26.027,47.1646,0.007229
26.050,47.1718,0.007229
26.067,47.1774,0.007229
26.082,47.1829,0.007229
26.098,47.1888,0.007182
26.114,47.1944,0.007182
26.131,47.2010,0.007182
26.157,47.2116,0.007182
26.178,47.2203,0.007182
26.195,47.2275,0.007182
26.210,47.2346,0.007182
26.226,47.2415,0.007182
26.243,47.2495,0.007182
26.258,47.2569,0.007182
26.274,47.2650,0.007182
26.290,47.2726,0.007182
26.307,47.2817,0.007182
26.322,47.2895,0.007182
26.338,47.2982,0.007116
26.354,47.3069,0.007116
26.371,47.3167,0.007116
26.389,47.3270,0.007116
26.419,47.3452,0.007116
26.435,47.3551,0.007116
26.466,47.3745,0.007116
26.482,47.3850,0.007116
26.500,47.3967,0.007116
26.530,47.4176,0.007116
26.555,47.4351,0.007116
26.571,47.4467,0.007116
26.587,47.4581,0.007013
26.603,47.4698,0.007013
26.619,47.4824,0.007013
26.635,47.4940,0.007013
26.651,47.5066,0.007013
26.668,47.5206,0.007013
26.687,47.5353,0.007013
26.702,47.5481,0.007013
26.719,47.5614,0.007013
26.734,47.5754,0.007013
26.750,47.5889,0.007013
26.765,47.6019,0.007013
26.796,47.6287,0.007013
26.818,47.6487,0.007013
26.842,47.6708,0.006872
26.860,47.6871,0.006872
26.875,47.7019,0.006872
26.891,47.7164,0.006872
26.907,47.7320,0.006872
26.927,47.7521,0.006872
26.952,47.7775,0.006872
26.971,47.7963,0.006872
26.987,47.8134,0.006872
27.003,47.8296,0.006872
27.019,47.8466,0.006872
27.035,47.8635,0.006872
27.051,47.8812,0.006872
27.067,47.8985,0.006872
27.083,47.9163,0.006872
27.106,47.9423,0.006646
27.136,47.9760,0.006646
27.153,47.9960,0.006646
27.168,48.0144,0.006646
27.185,48.0337,0.006646
27.201,48.0526,0.006646
27.217,48.0720,0.006646
27.233,48.0918,0.006646
27.248,48.1108,0.006646
27.265,48.1314,0.006646
27.280,48.1505,0.006646
27.299,48.1762,0.006646
27.321,48.2033,0.006646
27.351,48.2429,0.006646
27.382,48.2833,0.006382
27.413,48.3250,0.006382
27.444,48.3670,0.006382
27.460,48.3894,0.006382
27.491,48.4331,0.006382
27.521,48.4765,0.006382
27.552,48.5217,0.006382
27.568,48.5461,0.006100
27.585,48.5694,0.006100
27.601,48.5952,0.006100
27.631,48.6390,0.006100
27.658,48.6812,0.006100
27.674,48.7067,0.006100
27.691,48.7314,0.006100
27.706,48.7562,0.006100
27.722,48.7818,0.006100
27.738,48.8074,0.006100
27.754,48.8331,0.006100
27.771,48.8604,0.006100
27.787,48.8859,0.006100
27.802,48.9119,0.006100
27.819,48.9392,0.005846
27.834,48.9653,0.005846
27.851,48.9936,0.005846
27.866,49.0196,0.005846
27.883,49.0485,0.005846
27.899,49.0748,0.005846
27.915,49.1029,0.005846
27.930,49.1299,0.005846
27.946,49.1579,0.005846
27.963,49.1873,0.005846
27.979,49.2158,0.005846
27.995,49.2442,0.005846
28.010,49.2724,0.005846
28.027,49.3040,0.005846
28.052,49.3494,0.005846
28.078,49.3977,0.005639
28.110,49.4579,0.005639
28.141,49.5162,0.005639
28.171,49.5782,0.005639
28.187,49.6058,0.005639
28.215,49.6611,0.005639
28.231,49.6911,0.005639
28.246,49.7225,0.005639
28.262,49.7551,0.005639
28.278,49.7860,0.005639
28.295,49.8190,0.005639
28.311,49.8558,0.005639
28.326,49.8843,0.005356
28.343,49.9178,0.005356
28.358,49.9491,0.005356
28.374,49.9824,0.005356
28.391,50.0185,0.005356
28.406,50.0503,0.005356
28.423,50.0843,0.005356
28.439,50.1205,0.005356
28.465,50.1754,0.005356
28.486,50.2186,0.005356
28.502,50.2529,0.005356
28.518,50.2879,0.005356
28.534,50.3185,0.005356
28.550,50.3507,0.005356
28.566,50.3843,0.005356
28.583,50.4176,0.005356
28.598,50.4498,0.005149
28.614,50.4796,0.005149
28.630,50.5125,0.005149
28.647,50.5443,0.005149
28.662,50.5750,0.005149
28.678,50.6058,0.005149
28.695,50.6389,0.005149
28.710,50.6680,0.005149
28.726,50.6985,0.005149
28.757,50.7576,0.005149
28.773,50.7885,0.005149
28.789,50.8169,0.005149
28.805,50.8470,0.005149
28.821,50.8765,0.005149
28.837,50.9067,0.005149
28.854,50.9352,0.005017
28.869,50.9638,0.005017
28.886,50.9943,0.005017
28.916,51.0471,0.005017
28.933,51.0771,0.005017
28.949,51.1062,0.005017
28.965,51.1325,0.005017
28.981,51.1607,0.005017
28.997,51.1873,0.005017
29.014,51.2160,0.005017
29.040,51.2599,0.005017
29.061,51.2951,0.005017
29.077,51.3219,0.005017
29.093,51.3476,0.005017
29.109,51.3725,0.004820
29.125,51.3988,0.004820
29.141,51.4251,0.004820
29.157,51.4498,0.004820
29.173,51.4753,0.004820
29.189,51.4996,0.004820
29.205,51.5257,0.004820
29.221,51.5501,0.004820
29.242,51.5817,0.004820
29.273,51.6284,0.004820
29.289,51.6522,0.004820
29.305,51.6749,0.004820
29.320,51.6988,0.004820
29.343,51.7304,0.004820
29.367,51.7650,0.004594
29.383,51.7874,0.004594
29.398,51.8092,0.004594
29.429,51.8516,0.004594
29.446,51.8769,0.004594
29.476,51.9151,0.004594
29.493,51.9378,0.004594
29.509,51.9604,0.004594
29.525,51.9805,0.004594
29.541,52.0009,0.004594
29.557,52.0216,0.004594
29.573,52.0422,0.004594
29.589,52.0614,0.004594
29.605,52.0815,0.004358
29.621,52.1022,0.004358
29.637,52.1213,0.004358
29.653,52.1414,0.004358
29.668,52.1594,0.004358
29.685,52.1783,0.004358
29.712,52.2104,0.004358
29.733,52.2341,0.004358
29.749,52.2524,0.004358
29.766,52.2719,0.004358
29.785,52.2944,0.004358
29.813,52.3239,0.004358
29.832,52.3445,0.004358
29.848,52.3608,0.004161
29.878,52.3932,0.004161
29.901,52.4165,0.004161
29.924,52.4397,0.004161
29.940,52.4558,0.004161
29.956,52.4707,0.004161
29.972,52.4865,0.004161
29.988,52.5015,0.004161
30.010,52.5237,0.004161
30.031,52.5422,0.004161
30.051,52.5608,0.004161
30.068,52.5753,0.004161
30.084,52.5905,0.004161
30.100,52.6031,0.004038
30.116,52.6173,0.004038
30.132,52.6311,0.004038
30.148,52.6441,0.004038
30.164,52.6575,0.004038
30.179,52.6703,0.004038
30.197,52.6840,0.004038
30.218,52.7009,0.004038
30.250,52.7253,0.004038
30.280,52.7480,0.004038
30.296,52.7592,0.004038
30.312,52.7706,0.004038
30.336,52.7870,0.004038
30.352,52.7980,0.004038
30.368,52.8087,0.003935
30.384,52.8195,0.003935
30.399,52.8293,0.003935
30.416,52.8397,0.003935
30.432,52.8496,0.003935
30.447,52.8592,0.003935
30.464,52.8691,0.003935
30.480,52.8783,0.003935
30.496,52.8874,0.003935
30.512,52.8966,0.003935
30.527,52.9053,0.003935
30.544,52.9139,0.003935
30.561,52.9227,0.003935
30.590,52.9375,0.003784
30.607,52.9461,0.003784
30.626,52.9547,0.003784
30.652,52.9669,0.003784
30.671,52.9754,0.003784
30.687,52.9823,0.003784
30.704,52.9891,0.003784
30.719,52.9952,0.003784
30.736,53.0022,0.003784
30.752,53.0081,0.003784
30.767,53.0136,0.003784
30.783,53.0192,0.003784
30.800,53.0249,0.003784
30.816,53.0302,0.003784
30.831,53.0352,0.003784
30.847,53.0400,0.003784
30.863,53.0448,0.003351
30.879,53.0493,0.003351
30.895,53.0536,0.003351
30.911,53.0578,0.003351
30.928,53.0621,0.003351
30.944,53.0657,0.003351
30.959,53.0690,0.003351
30.976,53.0727,0.003351
30.992,53.0757,0.003351
31.008,53.0788,0.003351
31.023,53.0814,0.003351
31.040,53.0840,0.003351
31.056,53.0865,0.003351
31.084,53.0902,0.002476
31.103,53.0923,0.002476
31.124,53.0946,0.002476
31.146,53.0963,0.002476
31.162,53.0974,0.002476
31.184,53.0987,0.002476
31.200,53.0993,0.002476
31.215,53.0996,0.002476
31.232,53.0999,0.002476
31.247,53.1000,0.002476
31.263,53.1000,0.002476
31.279,53.1000,0.002476
31.296,53.1000,0.002476
31.311,53.1000,0.002476
31.327,53.1000,0.001996
31.343,53.1000,0.001996
31.359,53.1000,0.001996
31.384,53.1000,0.001996
31.400,53.1000,0.001996
31.416,53.1000,0.001996
31.433,53.1000,0.001996
31.449,53.1000,0.001996
31.464,53.1000,0.001996
31.481,53.1000,0.001996
31.496,53.1000,0.001996
31.512,53.1000,0.001996
31.529,53.1000,0.001996
31.545,53.1000,0.001996
31.565,53.1000,0.001996
31.580,53.1000,0.002466
31.614,53.1000,0.002466
31.643,53.1000,0.002466
31.659,53.1000,0.002466
31.690,53.1000,0.002466
31.720,53.1000,0.002466
31.736,53.1000,0.002466
31.752,53.1000,0.002466
31.769,53.1000,0.002466
31.785,53.1000,0.002466
31.801,53.1000,0.002466
31.816,53.1000,0.002466
31.833,53.1000,0.002466
31.859,53.1000,0.002466
31.889,53.1000,0.003144
31.920,53.1000,0.003144
31.952,53.1000,0.003144
31.982,53.1000,0.003144
31.998,53.1000,0.003144
32.030,53.1000,0.003144
32.060,53.1000,0.003144
32.076,53.1000,0.003144
32.092,53.1000,0.003144
32.122,53.1000,0.003445
32.153,53.1000,0.003445
32.185,53.1000,0.003445
32.202,53.1000,0.003445
32.231,53.1000,0.003445
32.248,53.1000,0.003445
32.264,53.1000,0.003445
32.280,53.1000,0.003445
32.296,53.1000,0.003445
32.312,53.1000,0.003445
32.328,53.1000,0.003445
32.344,53.1000,0.003445
32.360,53.1000,0.003530
32.376,53.1000,0.003530
32.393,53.1000,0.003530
32.419,53.1000,0.003530
32.440,53.1000,0.003530
32.456,53.1000,0.003530
32.472,53.1000,0.003530
32.488,53.1000,0.003530
32.506,53.1000,0.003530
32.527,53.1000,0.003530
32.557,53.1000,0.003530
32.574,53.1000,0.003530
32.604,53.1000,0.003577
32.635,53.1000,0.003577
32.666,53.1000,0.003577
32.681,53.1000,0.003577
32.712,53.1000,0.003577
32.728,53.1000,0.003577
32.744,53.1000,0.003577
32.761,53.1000,0.003577
32.776,53.1000,0.003577
32.792,53.1000,0.003577
32.811,53.1000,0.003577
32.836,53.1000,0.003605
32.856,53.1000,0.003605
32.872,53.1000,0.003605
32.888,53.1000,0.003605
32.904,53.1000,0.003605
32.920,53.1000,0.003605
32.936,53.1000,0.003605
32.952,53.1000,0.003605
32.968,53.1000,0.003605
32.991,53.1000,0.003605
33.007,53.1000,0.003605
33.023,53.1000,0.003605
33.038,53.1000,0.003605
33.055,53.1000,0.003605
33.071,53.1000,0.003605
33.088,53.1000,0.003671
33.103,53.1000,0.003671
33.119,53.1000,0.003671
33.135,53.1000,0.003671
33.151,53.1000,0.003671
33.167,53.1000,0.003671
33.183,53.1000,0.003671
33.199,53.1000,0.003671
33.214,53.1000,0.003671
33.231,53.1000,0.003671
33.247,53.1000,0.003671
33.263,53.1000,0.003671
33.279,53.1000,0.003671
33.295,53.1000,0.003671
33.311,53.1000,0.003671
33.326,53.1000,0.003718
33.343,53.1000,0.003718
33.359,53.1000,0.003718
33.375,53.1000,0.003718
33.391,53.1000,0.003718
33.406,53.1000,0.003718
33.423,53.1000,0.003718
33.441,53.1000,0.003718
33.470,53.1000,0.003718
33.488,53.1000,0.003718
33.517,53.1000,0.003718
33.546,53.1000,0.003718
33.561,53.1000,0.003718
33.577,53.1000,0.003737
33.594,53.1000,0.003737
33.610,53.1000,0.003737
33.625,53.1000,0.003737
33.641,53.1000,0.003737
33.657,53.1000,0.003737
33.674,53.1000,0.003737
33.703,53.1000,0.003737
33.722,53.1000,0.003737
33.737,53.1000,0.003737
33.753,53.1000,0.003737
33.770,53.1000,0.003737
33.785,53.1000,0.003737
33.801,53.1000,0.003737
33.817,53.1000,0.003737
33.833,53.1000,0.003737
33.850,53.1000,0.003737
33.866,53.1000,0.003737
33.881,53.1000,0.003737
33.897,53.1000,0.003737
33.914,53.1000,0.003737
33.938,53.1000,0.003737
33.965,53.1000,0.003737
33.981,53.1000,0.003737
33.997,53.1000,0.003737
34.013,53.1000,0.003737
34.044,53.1000,0.003737
34.074,53.1000,0.003728
34.091,53.1000,0.003728
34.106,53.1000,0.003728
34.136,53.1000,0.003728
34.154,53.1000,0.003728
34.170,53.1000,0.003728
34.185,53.1000,0.003728
34.201,53.1000,0.003728
34.218,53.1000,0.003728
34.233,53.1000,0.003728
34.250,53.1000,0.003728
34.265,53.1000,0.003728
34.282,53.1000,0.003728
34.298,53.1000,0.003728
34.313,53.1000,0.003728
34.331,53.1000,0.003728
34.346,53.1000,0.003728
34.361,53.1000,0.003746
34.377,53.1000,0.003746
34.394,53.1000,0.003746
34.410,53.1000,0.003746
34.425,53.1000,0.003746
34.441,53.1000,0.003746
34.458,53.1000,0.003746
34.473,53.1000,0.003746
34.489,53.1000,0.003746
34.505,53.1000,0.003746
34.521,53.1000,0.003746
34.537,53.1000,0.003746
34.553,53.1000,0.003746
34.570,53.1000,0.003746
34.586,53.1000,0.003746
34.601,53.1000,0.003746
34.630,53.1000,0.003756
34.646,53.1000,0.003756
34.661,53.1000,0.003756
34.677,53.1000,0.003756
34.695,53.1000,0.003756
34.724,53.1000,0.003756
34.741,53.1000,0.003756
34.758,53.1000,0.003756
34.787,53.1000,0.003756
34.805,53.1000,0.003756
34.821,53.1000,0.003756
34.837,53.1000,0.003756
34.853,53.1000,0.003728
34.869,53.1000,0.003728
34.887,53.1000,0.003728
34.910,53.1000,0.003728
34.941,53.1000,0.003728
34.971,53.1000,0.003728
34.987,53.1000,0.003728
35.003,53.1000,0.003728
35.018,53.1000,0.003728
35.034,53.1000,0.003728
35.065,53.1000,0.003728
35.080,53.1000,0.003728
35.096,53.1000,0.003615
35.127,53.1000,0.003615
35.143,53.1000,0.003615
35.173,53.1000,0.003615
35.189,53.1000,0.003615
35.205,53.1000,0.003615
35.221,53.1000,0.003615
35.237,53.1000,0.003615
35.253,53.1000,0.003615
35.269,53.1000,0.003615
35.285,53.1000,0.003615
35.301,53.1000,0.003615
35.320,53.1000,0.003615
35.344,53.1000,0.003615
35.359,53.1000,0.003426
35.375,53.1000,0.003426
35.407,53.1000,0.003426
35.422,53.1000,0.003426
35.453,53.1000,0.003426
35.469,53.1000,0.003426
35.500,53.1000,0.003426
35.531,53.1000,0.003426
35.562,53.0999,0.003426
35.593,53.0991,0.003313
35.624,53.0977,0.003313
35.639,53.0967,0.003313
35.655,53.0955,0.003313
35.671,53.0941,0.003313
35.687,53.0922,0.003313
35.710,53.0897,0.003313
35.733,53.0867,0.003313
35.748,53.0845,0.003313
35.779,53.0794,0.003313
35.809,53.0737,0.003313
35.840,53.0673,0.003313
35.855,53.0638,0.003775
35.871,53.0600,0.003775
35.902,53.0518,0.003775
35.917,53.0477,0.003775
35.933,53.0431,0.003775
35.952,53.0375,0.003775
35.979,53.0287,0.003775
35.997,53.0230,0.003775
36.013,53.0172,0.003775
36.029,53.0118,0.003775
36.045,53.0056,0.003775
36.062,52.9992,0.003775
36.078,52.9930,0.003775
36.094,52.9863,0.003775
36.109,52.9798,0.008971
36.126,52.9728,0.008971
36.141,52.9661,0.008971
36.157,52.9588,0.008971
36.172,52.9514,0.008971
36.190,52.9430,0.008971
36.205,52.9356,0.008971
36.220,52.9277,0.008971
36.237,52.9193,0.008971
36.260,52.9069,0.008971
36.277,52.8976,0.008971
36.305,52.8819,0.008971
36.323,52.8711,0.008971
36.339,52.8619,0.008971
36.356,52.8518,0.012209
36.384,52.8342,0.012209
36.403,52.8218,0.012209
36.419,52.8114,0.012209
36.434,52.8012,0.012209
36.451,52.7900,0.012209
36.467,52.7787,0.012209
36.491,52.7609,0.012209
36.524,52.7381,0.012209
36.554,52.7149,0.012209
36.571,52.7019,0.012209
36.600,52.6793,0.007484
36.631,52.6540,0.007484
36.647,52.6406,0.007484
36.678,52.6143,0.007484
36.708,52.5879,0.007484
36.739,52.5614,0.007484
36.757,52.5445,0.007484
36.785,52.5181,0.007484
36.815,52.4906,0.007484
36.831,52.4748,0.007484
36.846,52.4597,0.004227
36.863,52.4431,0.004227
36.885,52.4196,0.004227
36.901,52.4036,0.004227
36.925,52.3801,0.004227
36.943,52.3611,0.004227
36.959,52.3442,0.004227
36.975,52.3272,0.004227
36.990,52.3104,0.004227
37.007,52.2924,0.004227
37.022,52.2749,0.004227
37.039,52.2564,0.004227
37.055,52.2384,0.004227
37.071,52.2196,0.004227
37.086,52.2018,0.004227
37.102,52.1832,0.004217
37.119,52.1635,0.004217
37.135,52.1442,0.004217
37.151,52.1248,0.004217
37.166,52.1061,0.004217
37.183,52.0860,0.004217
37.199,52.0660,0.004217
37.214,52.0463,0.004217
37.230,52.0263,0.004217
37.246,52.0053,0.004217
37.262,51.9849,0.004217
37.279,51.9632,0.004217
37.294,51.9432,0.004217
37.311,51.9201,0.004217
37.327,51.8990,0.004217
37.342,51.8781,0.004217
37.372,51.8367,0.004227
37.388,51.8155,0.004227
37.404,51.7929,0.004227
37.420,51.7706,0.004227
37.440,51.7394,0.004227
37.467,51.7033,0.004227
37.485,51.6762,0.004227
37.500,51.6535,0.004227
37.516,51.6306,0.004227
37.532,51.6065,0.004227
37.548,51.5821,0.004227
37.565,51.5575,0.004227
37.581,51.5335,0.004227
37.596,51.5092,0.004330
37.612,51.4835,0.004330
37.629,51.4572,0.004330
37.645,51.4330,0.004330
37.660,51.4083,0.004330
37.676,51.3827,0.004330
37.692,51.3560,0.004330
37.708,51.3296,0.004330
37.724,51.3043,0.004330
37.740,51.2777,0.004330
37.756,51.2503,0.004330
37.772,51.2240,0.004330
37.788,51.1974,0.004330
37.804,51.1700,0.004330
37.820,51.1426,0.004330
37.836,51.1148,0.004500
37.852,51.0854,0.004500
37.869,51.0576,0.004500
37.897,51.0070,0.004500
37.913,50.9781,0.004500
37.929,50.9506,0.004500
37.945,50.9204,0.004500
37.961,50.8925,0.004500
37.977,50.8624,0.004500
37.994,50.8317,0.004500
38.009,50.8033,0.004500
38.025,50.7741,0.004500
38.041,50.7420,0.004500
38.057,50.7119,0.004500
38.073,50.6821,0.004500
38.089,50.6509,0.004707
38.105,50.6214,0.004707
38.127,50.5743,0.004707
38.150,50.5329,0.004707
38.169,50.4959,0.004707
38.186,50.4625,0.004707
38.201,50.4308,0.004707
38.217,50.4000,0.004707
38.233,50.3668,0.004707
38.249,50.3339,0.004707
38.265,50.3015,0.004707
38.281,50.2689,0.004707
38.297,50.2347,0.004707
38.313,50.2012,0.004707
38.329,50.1685,0.004707
38.345,50.1351,0.004942
38.360,50.1011,0.004942
38.377,50.0659,0.004942
38.393,50.0328,0.004942
38.408,49.9989,0.004942
38.425,49.9652,0.004942
38.441,49.9315,0.004942
38.457,49.8967,0.004942
38.473,49.8652,0.004942
38.497,49.8139,0.004942
38.521,49.7670,0.004942
38.538,49.7330,0.004942
38.554,49.6993,0.004942
38.569,49.6701,0.004942
38.585,49.6385,0.005102
38.601,49.6074,0.005102
38.618,49.5740,0.005102
38.645,49.5198,0.005102
38.665,49.4830,0.005102
38.681,49.4501,0.005102
38.697,49.4210,0.005102
38.713,49.3913,0.005102
38.729,49.3608,0.005102
38.746,49.3302,0.005102
38.767,49.2901,0.005102
38.784,49.2596,0.005102
38.815,49.2015,0.005102
38.846,49.1480,0.005281
38.861,49.1200,0.005281
38.892,49.0657,0.005281
38.923,49.0123,0.005281
38.948,48.9692,0.005281
38.971,48.9303,0.005281
38.987,48.9036,0.005281
39.016,48.8547,0.005281
39.047,48.8043,0.005281
39.063,48.7784,0.005281
39.094,48.7292,0.005573
39.109,48.7047,0.005573
39.125,48.6788,0.005573
39.156,48.6315,0.005573
39.171,48.6084,0.005573
39.186,48.5846,0.005573
39.203,48.5591,0.005573
39.219,48.5358,0.005573
39.234,48.5118,0.005573
39.251,48.4881,0.005573
39.267,48.4643,0.005573
39.283,48.4403,0.005573
39.303,48.4118,0.005573
39.326,48.3788,0.005827
39.347,48.3498,0.005827
39.363,48.3272,0.005827
39.379,48.3044,0.005827
39.394,48.2841,0.005827
39.411,48.2616,0.005827
39.427,48.2400,0.005827
39.443,48.2187,0.005827
39.458,48.1975,0.005827
39.481,48.1680,0.005827
39.496,48.1484,0.005827
39.512,48.1275,0.005827
39.528,48.1076,0.005827
39.546,48.0859,0.005827
39.574,48.0504,0.006053
39.593,48.0280,0.006053
39.610,48.0069,0.006053
39.635,47.9762,0.006053
39.657,47.9514,0.006053
39.672,47.9331,0.006053
39.688,47.9148,0.006053
39.704,47.8969,0.006053
39.720,47.8789,0.006053
39.736,47.8606,0.006053
39.752,47.8432,0.006053
39.768,47.8259,0.006053
39.785,47.8073,0.006053
39.801,47.7903,0.006053
39.822,47.7682,0.006053
39.838,47.7524,0.006326
39.854,47.7360,0.006326
39.884,47.7046,0.006326
39.914,47.6754,0.006326
39.945,47.6460,0.006326
39.961,47.6308,0.006326
39.977,47.6162,0.006326
39.992,47.6019,0.006326
40.008,47.5875,0.006326
40.035,47.5627,0.006326
40.052,47.5490,0.006326
40.067,47.5356,0.006326
40.084,47.5209,0.006599
40.107,47.5011,0.006599
40.130,47.4830,0.006599
40.148,47.4691,0.006599
40.163,47.4569,0.006599
40.180,47.4442,0.006599
40.195,47.4323,0.006599
40.211,47.4200,0.006599
40.229,47.4071,0.006599
40.254,47.3884,0.006599
40.275,47.3736,0.006599
40.291,47.3626,0.006599
40.308,47.3513,0.006599
40.331,47.3359,0.006843
40.347,47.3254,0.006843
40.363,47.3151,0.006843
40.393,47.2963,0.006843
40.424,47.2777,0.006843
40.455,47.2601,0.006843
40.471,47.2512,0.006843
40.490,47.2405,0.006843
40.517,47.2269,0.006843
40.548,47.2110,0.006843
40.563,47.2036,0.006843
40.591,47.1903,0.006994
40.607,47.1830,0.006994
40.623,47.1759,0.006994
40.639,47.1690,0.006994
40.657,47.1618,0.006994
40.687,47.1497,0.006994
40.703,47.1434,0.006994
40.721,47.1368,0.006994
40.749,47.1269,0.006994
40.767,47.1210,0.006994
40.783,47.1155,0.006994
40.799,47.1108,0.006994
40.815,47.1061,0.006994
40.831,47.1016,0.007107
40.847,47.0973,0.007107
40.864,47.0927,0.007107
40.879,47.0888,0.007107
40.895,47.0852,0.007107
40.911,47.0815,0.007107
40.927,47.0783,0.007107
40.943,47.0751,0.007107
40.960,47.0720,0.007107
40.975,47.0693,0.007107
40.991,47.0666,0.007107
41.007,47.0640,0.007107
41.023,47.0619,0.007107
41.039,47.0598,0.007107
41.055,47.0580,0.007107
41.071,47.0564,0.007107
41.087,47.0549,0.007107
41.103,47.0535,0.007107
41.133,47.0518,0.007220
41.149,47.0510,0.007220
41.165,47.0505,0.007220
41.181,47.0502,0.007220
41.197,47.0500,0.007220
41.214,47.0500,0.007220
41.229,47.0500,0.007220
41.246,47.0500,0.007220
41.262,47.0500,0.007220
41.277,47.0500,0.007220
41.293,47.0500,0.007220
41.309,47.0500,0.007220
41.325,47.0500,0.007220
41.341,47.0500,0.007220
41.357,47.0500,0.007305
41.373,47.0500,0.007305
41.390,47.0500,0.007305
41.413,47.0500,0.007305
41.429,47.0500,0.007305
41.460,47.0500,0.007305
41.475,47.0500,0.007305
41.506,47.0500,0.007305
41.522,47.0500,0.007305
41.553,47.0500,0.007305
41.568,47.0500,0.007305
41.584,47.0500,0.007305
41.615,47.0500,0.007352
41.630,47.0500,0.007352
41.646,47.0500,0.007352
41.676,47.0500,0.007352
41.693,47.0500,0.007352
41.709,47.0500,0.007352
41.725,47.0500,0.007352
41.741,47.0500,0.007352
41.758,47.0500,0.007352
41.786,47.0500,0.007352
41.805,47.0500,0.007352
41.821,47.0500,0.007352
41.837,47.0500,0.007352
41.852,47.0500,0.007314
41.870,47.0500,0.007314
41.894,47.0502,0.007314
41.910,47.0504,0.007314
41.941,47.0516,0.007314
41.957,47.0525,0.007314
41.988,47.0547,0.007314
42.019,47.0578,0.007314
42.034,47.0596,0.007314
42.050,47.0616,0.007314
42.065,47.0637,0.007314
42.081,47.0662,0.007258
42.112,47.0711,0.007258
42.143,47.0772,0.007258
42.174,47.0836,0.007258
42.189,47.0875,0.007258
42.205,47.0910,0.007258
42.234,47.0986,0.007258
42.251,47.1032,0.007258
42.281,47.1123,0.007258
42.299,47.1177,0.007258
42.314,47.1228,0.007258
42.329,47.1279,0.007220
42.346,47.1337,0.007220
42.363,47.1398,0.007220
42.390,47.1502,0.007220
42.409,47.1578,0.007220
42.426,47.1646,0.007220
42.442,47.1713,0.007220
42.457,47.1780,0.007220
42.474,47.1853,0.007220
42.489,47.1927,0.007220
42.506,47.2006,0.007220
42.521,47.2078,0.007220
42.537,47.2157,0.007220
42.554,47.2243,0.007220
42.570,47.2326,0.007126
42.585,47.2405,0.007126
42.601,47.2493,0.007126
42.618,47.2585,0.007126
42.633,47.2673,0.007126
42.649,47.2765,0.007126
42.667,47.2869,0.007126
42.682,47.2961,0.007126
42.697,47.3054,0.007126
42.713,47.3156,0.007126
42.729,47.3257,0.007126
42.746,47.3365,0.007126
42.762,47.3471,0.007126
42.790,47.3667,0.007126
42.806,47.3778,0.007126
42.822,47.3892,0.006994
42.838,47.4009,0.006994
42.854,47.4127,0.006994
42.870,47.4245,0.006994
42.887,47.4367,0.006994
42.902,47.4488,0.006994
42.920,47.4630,0.006994
42.935,47.4746,0.006994
42.950,47.4872,0.006994
42.966,47.5001,0.006994
42.983,47.5141,0.006994
42.999,47.5278,0.006994
43.014,47.5407,0.006994
43.030,47.5544,0.006994
43.047,47.5692,0.006994
43.074,47.5939,0.006872
43.094,47.6120,0.006872
43.111,47.6275,0.006872
43.126,47.6419,0.006872
43.142,47.6572,0.006872
43.158,47.6726,0.006872
43.175,47.6897,0.006872
43.191,47.7046,0.006872
43.206,47.7199,0.006872
43.222,47.7362,0.006872
43.239,47.7531,0.006872
43.254,47.7694,0.006872
43.270,47.7864,0.006872
43.286,47.8035,0.006872
43.314,47.8332,0.006872
43.330,47.8510,0.006872
43.346,47.8690,0.006693
43.363,47.8871,0.006693
43.378,47.9047,0.006693
43.394,47.9229,0.006693
43.410,47.9415,0.006693
43.426,47.9597,0.006693
43.442,47.9783,0.006693
43.459,47.9987,0.006693
43.474,48.0168,0.006693
43.490,48.0370,0.006693
43.506,48.0565,0.006693
43.522,48.0767,0.006693
43.546,48.1066,0.006693
43.569,48.1351,0.006693
43.586,48.1579,0.006486
43.603,48.1785,0.006486
43.618,48.1995,0.006486
43.634,48.2209,0.006486
43.650,48.2420,0.006486
43.666,48.2635,0.006486
43.682,48.2846,0.006486
43.698,48.3070,0.006486
43.715,48.3308,0.006486
43.734,48.3584,0.006486
43.757,48.3903,0.006486
43.778,48.4195,0.006486
43.794,48.4443,0.006486
43.810,48.4677,0.006486
43.827,48.4907,0.006486
43.853,48.5300,0.006203
43.869,48.5544,0.006203
43.885,48.5784,0.006203
43.901,48.6035,0.006203
43.917,48.6279,0.006203
43.933,48.6532,0.006203
43.949,48.6766,0.006203
43.965,48.7020,0.006203
43.981,48.7282,0.006203
43.997,48.7530,0.006203
44.013,48.7793,0.006203
44.029,48.8048,0.006203
44.045,48.8317,0.006203
44.061,48.8584,0.006203
44.077,48.8850,0.005846
44.093,48.9114,0.005846
44.109,48.9374,0.005846
44.125,48.9647,0.005846
44.142,48.9938,0.005846
44.157,49.0195,0.005846
44.173,49.0479,0.005846
44.189,49.0751,0.005846
44.205,49.1055,0.005846
44.221,49.1351,0.005846
44.237,49.1612,0.005846
44.253,49.1883,0.005846
44.269,49.2175,0.005846
44.285,49.2466,0.005846
44.301,49.2766,0.005846
44.317,49.3075,0.005846
44.334,49.3384,0.005846
44.356,49.3791,0.005846
44.387,49.4367,0.005582
44.402,49.4672,0.005582
44.433,49.5244,0.005582
44.450,49.5577,0.005582
44.479,49.6152,0.005582
44.509,49.6757,0.005582
44.525,49.7072,0.005582
44.541,49.7392,0.005582
44.557,49.7709,0.005582
44.573,49.8048,0.005582
44.589,49.8360,0.005582
44.605,49.8690,0.005366
44.621,49.9024,0.005366
44.637,49.9369,0.005366
44.653,49.9689,0.005366
44.668,50.0027,0.005366
44.685,50.0361,0.005366
44.701,50.0712,0.005366
44.718,50.1065,0.005366
44.742,50.1567,0.005366
44.772,50.2221,0.005366
44.803,50.2833,0.005366
44.818,50.3148,0.005366
44.849,50.3775,0.005130
44.864,50.4082,0.005130
44.880,50.4382,0.005130
44.904,50.4886,0.005130
44.922,50.5221,0.005130
44.941,50.5599,0.005130
44.973,50.6215,0.005130
44.988,50.6503,0.005130
45.004,50.6796,0.005130
45.034,50.7384,0.005130
45.050,50.7663,0.005130
45.065,50.7949,0.005130
45.096,50.8523,0.005130
45.127,50.9070,0.004970
45.143,50.9382,0.004970
45.160,50.9663,0.004970
45.175,50.9934,0.004970
45.191,51.0219,0.004970
45.208,51.0519,0.004970
45.224,51.0782,0.004970
45.239,51.1046,0.004970
45.255,51.1321,0.004970
45.272,51.1620,0.004970
45.298,51.2047,0.004970
45.320,51.2402,0.004970
45.335,51.2662,0.004970
45.352,51.2927,0.004970
45.367,51.3180,0.004754
45.383,51.3440,0.004754
45.400,51.3706,0.004754
45.416,51.3957,0.004754
45.432,51.4207,0.004754
45.456,51.4584,0.004754
45.471,51.4829,0.004754
45.488,51.5076,0.004754
45.504,51.5319,0.004754
45.520,51.5569,0.004754
45.535,51.5797,0.004754
45.552,51.6042,0.004754
45.568,51.6275,0.004754
45.584,51.6513,0.004754
45.600,51.6739,0.004754
45.615,51.6962,0.004547
45.631,51.7193,0.004547
45.649,51.7457,0.004547
45.670,51.7741,0.004547
45.701,51.8172,0.004547
45.732,51.8577,0.004547
45.747,51.8789,0.004547
45.777,51.9197,0.004547
45.793,51.9384,0.004547
45.823,51.9776,0.004547
45.840,51.9989,0.004547
45.855,52.0180,0.004387
45.871,52.0379,0.004387
45.888,52.0588,0.004387
45.903,52.0774,0.004387
45.919,52.0965,0.004387
45.935,52.1155,0.004387
45.956,52.1417,0.004387
45.982,52.1713,0.004387
45.998,52.1883,0.004387
46.013,52.2062,0.004387
46.031,52.2268,0.004387
46.057,52.2553,0.004387
46.077,52.2769,0.004227
46.094,52.2956,0.004227
46.118,52.3204,0.004227
46.134,52.3368,0.004227
46.165,52.3684,0.004227
46.195,52.3988,0.004227
46.210,52.4147,0.004227
46.242,52.4444,0.004227
46.273,52.4739,0.004227
46.304,52.5026,0.004227
46.334,52.5299,0.004227
46.349,52.5434,0.004057
46.366,52.5578,0.004057
46.383,52.5727,0.004057
46.411,52.5964,0.004057
46.429,52.6110,0.004057
46.445,52.6239,0.004057
46.461,52.6364,0.004057
46.477,52.6493,0.004057
46.493,52.6612,0.004057
46.524,52.6852,0.004057
46.547,52.7018,0.004057
46.568,52.7165,0.003916
46.587,52.7301,0.003916
46.603,52.7410,0.003916
46.619,52.7520,0.003916
46.635,52.7627,0.003916
46.651,52.7732,0.003916
46.667,52.7835,0.003916
46.683,52.7934,0.003916
46.699,52.8032,0.003916
46.715,52.8131,0.003916
46.731,52.8223,0.003916
46.747,52.8316,0.003916
46.763,52.8408,0.003916
46.779,52.8500,0.003916
46.795,52.8585,0.003916
46.811,52.8673,0.003916
46.828,52.8759,0.003916
46.859,52.8913,0.003737
46.875,52.8990,0.003737
46.891,52.9067,0.003737
46.907,52.9142,0.003737
46.924,52.9217,0.003737
46.939,52.9280,0.003737
46.961,52.9374,0.003737
46.982,52.9462,0.003737
47.003,52.9540,0.003737
47.021,52.9610,0.003737
47.044,52.9692,0.003737
47.077,52.9802,0.003737
47.106,52.9893,0.003737
47.137,52.9984,0.003323
47.168,53.0067,0.003323
47.199,53.0143,0.003323
47.230,53.0210,0.003323
47.260,53.0271,0.003323
47.275,53.0298,0.003323
47.291,53.0324,0.003323
47.307,53.0350,0.003323
47.323,53.0373,0.003323
47.339,53.0395,0.003323
47.355,53.0414,0.002476
47.371,53.0431,0.002476
47.387,53.0446,0.002476
47.403,53.0459,0.002476
47.420,53.0472,0.002476
47.446,53.0487,0.002476
47.467,53.0494,0.002476
47.483,53.0498,0.002476
47.500,53.0500,0.002476
47.517,53.0500,0.002476
47.532,53.0500,0.002476
47.554,53.0500,0.002476
47.585,53.0500,0.002476
47.601,53.0500,0.002476
47.632,53.0500,0.001911
47.662,53.0500,0.001911
47.678,53.0500,0.001911
47.710,53.0500,0.001911
47.740,53.0500,0.001911
47.776,53.0500,0.001911
47.802,53.0500,0.001911
47.818,53.0500,0.001911
47.834,53.0500,0.001911
47.851,53.0500,0.002372
47.866,53.0500,0.002372
47.883,53.0500,0.002372
47.898,53.0500,0.002372
47.914,53.0500,0.002372
47.930,53.0500,0.002372
47.947,53.0500,0.002372
47.962,53.0500,0.002372
47.979,53.0500,0.002372
47.995,53.0500,0.002372
48.011,53.0500,0.002372
48.026,53.0500,0.002372
48.043,53.0500,0.002372
48.059,53.0500,0.002372
48.074,53.0500,0.002372
48.090,53.0500,0.002372
48.122,53.0500,0.003078
48.138,53.0500,0.003078
48.156,53.0500,0.003078
48.187,53.0500,0.003078
48.218,53.0500,0.003078
48.234,53.0500,0.003078
48.251,53.0500,0.003078
48.281,53.0500,0.003078
48.297,53.0500,0.003078
48.314,53.0500,0.003078
48.330,53.0500,0.003078
48.345,53.0500,0.003408
48.361,53.0500,0.003408
48.378,53.0500,0.003408
48.405,53.0500,0.003408
48.425,53.0500,0.003408
48.443,53.0500,0.003408
48.466,53.0500,0.003408
48.497,53.0500,0.003408
48.528,53.0500,0.003408
48.558,53.0500,0.003408
48.574,53.0500,0.003408
48.590,53.0500,0.003558
48.621,53.0500,0.003558
48.651,53.0500,0.003558
48.666,53.0500,0.003558
48.681,53.0500,0.003558
48.698,53.0500,0.003558
48.714,53.0500,0.003558
48.729,53.0500,0.003558
48.746,53.0500,0.003558
48.762,53.0500,0.003558
48.778,53.0500,0.003558
48.795,53.0500,0.003558
48.810,53.0500,0.003558
48.826,53.0500,0.003558
48.842,53.0500,0.003596
48.869,53.0500,0.003596
48.890,53.0500,0.003596
48.905,53.0500,0.003596
48.921,53.0500,0.003596
48.937,53.0500,0.003596
48.954,53.0500,0.003596
48.969,53.0500,0.003596
48.985,53.0500,0.003596
49.002,53.0500,0.003596
49.018,53.0500,0.003596
49.033,53.0500,0.003596
49.049,53.0500,0.003596
49.065,53.0500,0.003596
49.081,53.0500,0.003586
49.097,53.0500,0.003586
49.113,53.0500,0.003586
49.129,53.0500,0.003586
49.145,53.0500,0.003586
49.177,53.0500,0.003586
49.192,53.0500,0.003586
49.208,53.0500,0.003586
49.224,53.0500,0.003586
49.242,53.0500,0.003586
49.272,53.0500,0.003586
49.288,53.0500,0.003586
49.304,53.0500,0.003586
49.320,53.0500,0.003586
49.336,53.0500,0.003596
49.352,53.0500,0.003596
49.368,53.0500,0.003596
49.384,53.0500,0.003596
49.400,53.0500,0.003596
49.416,53.0500,0.003596
49.432,53.0500,0.003596
49.448,53.0500,0.003596
49.464,53.0500,0.003596
49.480,53.0500,0.003596
49.496,53.0500,0.003596
49.512,53.0500,0.003596
49.528,53.0500,0.003596
49.544,53.0500,0.003596
49.560,53.0500,0.003596
49.576,53.0500,0.003681
49.592,53.0500,0.003681
49.608,53.0500,0.003681
49.624,53.0500,0.003681
49.640,53.0500,0.003681
49.657,53.0500,0.003681
49.679,53.0500,0.003681
49.704,53.0500,0.003681
49.719,53.0500,0.003681
49.735,53.0500,0.003681
49.751,53.0500,0.003681
49.767,53.0500,0.003681
49.783,53.0500,0.003681
49.799,53.0500,0.003681
49.815,53.0500,0.003681
49.831,53.0500,0.003746
49.847,53.0500,0.003746
49.863,53.0500,0.003746
49.879,53.0500,0.003746
49.895,53.0500,0.003746
49.911,53.0500,0.003746
49.927,53.0500,0.003746
49.943,53.0500,0.003746
49.959,53.0500,0.003746
49.975,53.0500,0.003746
49.991,53.0500,0.003746
50.007,53.0500,0.003746
50.023,53.0500,0.003746
50.039,53.0500,0.003746
50.055,53.0500,0.003746
50.071,53.0500,0.003699
50.087,53.0500,0.003699
50.103,53.0500,0.003699
50.119,53.0500,0.003699
50.134,53.0500,0.003699
50.152,53.0500,0.003699
50.167,53.0500,0.003699
50.183,53.0500,0.003699
50.199,53.0500,0.003699
50.225,53.0500,0.003699
50.241,53.0500,0.003699
50.257,53.0500,0.003699
50.274,53.0500,0.003699
50.289,53.0500,0.003699
50.304,53.0500,0.003699
50.321,53.0500,0.003652
50.337,53.0500,0.003652
50.353,53.0500,0.003652
50.369,53.0500,0.003652
50.385,53.0500,0.003652
50.401,53.0500,0.003652
50.423,53.0500,0.003652
50.445,53.0500,0.003652
50.465,53.0500,0.003652
50.481,53.0500,0.003652
50.497,53.0500,0.003652
50.513,53.0500,0.003652
50.529,53.0500,0.003652
50.545,53.0500,0.003652
50.560,53.0500,0.003652
50.576,53.0500,0.003690
50.593,53.0500,0.003690
50.609,53.0500,0.003690
50.624,53.0500,0.003690
50.641,53.0500,0.003690
50.657,53.0500,0.003690
50.673,53.0500,0.003690
50.689,53.0500,0.003690
50.705,53.0500,0.003690
50.721,53.0500,0.003690
50.747,53.0500,0.003690
50.763,53.0500,0.003690
50.779,53.0500,0.003690
50.795,53.0500,0.003690
50.811,53.0500,0.003690
50.827,53.0500,0.003690
50.843,53.0500,0.003690
50.858,53.0500,0.003690
50.875,53.0500,0.003690
50.890,53.0500,0.003690
50.906,53.0500,0.003690
50.922,53.0500,0.003690
50.939,53.0500,0.003690
50.955,53.0500,0.003690
50.974,53.0500,0.003690
51.001,53.0500,0.003690
51.019,53.0500,0.003690
51.034,53.0500,0.003690
51.051,53.0500,0.003690
51.067,53.0500,0.003690
51.082,53.0500,0.003662
51.099,53.0500,0.003662
51.115,53.0500,0.003662
51.131,53.0500,0.003662
51.147,53.0500,0.003662
51.162,53.0500,0.003662
51.179,53.0500,0.003662
51.194,53.0500,0.003662
51.210,53.0500,0.003662
51.231,53.0500,0.003662
51.246,53.0500,0.003662
51.266,53.0500,0.003662
51.281,53.0500,0.003662
51.303,53.0500,0.003662
51.319,53.0500,0.003662
51.335,53.0500,0.003549
51.352,53.0500,0.003549
51.368,53.0500,0.003549
51.383,53.0500,0.003549
51.400,53.0500,0.003549
51.416,53.0500,0.003549
51.432,53.0500,0.003549
51.447,53.0500,0.003549
51.463,53.0500,0.003549
51.480,53.0500,0.003549
51.495,53.0500,0.003549
51.512,53.0500,0.003549
51.527,53.0500,0.003549
51.544,53.0500,0.003549
51.576,53.0500,0.003445
51.591,53.0500,0.003445
51.607,53.0500,0.003445
51.624,53.0500,0.003445
51.639,53.0500,0.003445
51.656,53.0500,0.003445
51.677,53.0500,0.003445
51.701,53.0500,0.003445
51.720,53.0500,0.003445
51.735,53.0500,0.003445
51.752,53.0500,0.003445
51.778,53.0500,0.003445
51.809,53.0500,0.003445
51.839,53.0500,0.003445
51.855,53.0500,0.003379
51.886,53.0500,0.003379
51.902,53.0500,0.003379
51.917,53.0498,0.003379
51.948,53.0487,0.003379
51.964,53.0479,0.003379
51.980,53.0469,0.003379
51.995,53.0458,0.003379
52.011,53.0445,0.003379
52.042,53.0412,0.003379
52.072,53.0374,0.003379
52.088,53.0350,0.003379
52.118,53.0302,0.003379
52.135,53.0272,0.003379
52.151,53.0240,0.003379
52.167,53.0208,0.003379
52.183,53.0173,0.003379
52.199,53.0138,0.003379
52.219,53.0089,0.003379
52.242,53.0028,0.003379
52.263,52.9972,0.003379
52.279,52.9926,0.003379
52.295,52.9875,0.003379
52.311,52.9828,0.003379
52.327,52.9775,0.007098
52.344,52.9719,0.007098
52.359,52.9666,0.007098
52.375,52.9609,0.007098
52.399,52.9516,0.007098
52.423,52.9421,0.007098
52.443,52.9342,0.007098
52.462,52.9258,0.007098
52.478,52.9189,0.007098
52.494,52.9116,0.007098
52.510,52.9043,0.007098
52.527,52.8960,0.007098
52.551,52.8845,0.007098
52.567,52.8763,0.007098
52.599,52.8593,0.012115
52.630,52.8425,0.012115
52.646,52.8329,0.012115
52.677,52.8151,0.012115
52.708,52.7962,0.012115
52.738,52.7777,0.012115
52.754,52.7674,0.012115
52.788,52.7438,0.012115
52.816,52.7250,0.012115
52.846,52.7033,0.012115
52.862,52.6920,0.008999
52.878,52.6804,0.008999
52.895,52.6669,0.008999
52.910,52.6559,0.008999
52.926,52.6434,0.008999
52.952,52.6230,0.008999
52.968,52.6101,0.008999
52.983,52.5975,0.008999
52.999,52.5836,0.008999
53.015,52.5696,0.008999
53.031,52.5570,0.008999
53.047,52.5431,0.008999
53.063,52.5289,0.008999
53.080,52.5135,0.008999
53.095,52.4997,0.008999
53.111,52.4852,0.004358
53.127,52.4707,0.004358
53.143,52.4551,0.004358
53.161,52.4381,0.004358
53.185,52.4142,0.004358
53.209,52.3904,0.004358
53.231,52.3685,0.004358
53.262,52.3365,0.004358
53.293,52.3049,0.004358
53.308,52.2885,0.004358
53.345,52.2471,0.004358
53.367,52.2242,0.004142
53.383,52.2057,0.004142
53.399,52.1870,0.004142
53.415,52.1690,0.004142
53.430,52.1511,0.004142
53.447,52.1323,0.004142
53.464,52.1117,0.004142
53.493,52.0766,0.004142
53.511,52.0552,0.004142
53.527,52.0350,0.004142
53.543,52.0151,0.004142
53.559,51.9951,0.004142
53.576,51.9741,0.004142
53.601,51.9415,0.004142
53.631,51.9016,0.004114
53.663,51.8598,0.004114
53.694,51.8172,0.004114
53.710,51.7958,0.004114
53.725,51.7745,0.004114
53.756,51.7307,0.004114
53.789,51.6838,0.004114
53.818,51.6426,0.004114
53.834,51.6191,0.004114
53.849,51.5955,0.004274
53.865,51.5722,0.004274
53.882,51.5474,0.004274
53.912,51.5015,0.004274
53.928,51.4773,0.004274
53.958,51.4299,0.004274
53.974,51.4044,0.004274
53.990,51.3792,0.004274
54.007,51.3530,0.004274
54.030,51.3149,0.004274
54.047,51.2885,0.004274
54.063,51.2616,0.004274
54.079,51.2362,0.004274
54.094,51.2098,0.004481
54.110,51.1831,0.004481
54.127,51.1533,0.004481
54.143,51.1275,0.004481
54.159,51.1005,0.004481
54.174,51.0740,0.004481
54.191,51.0448,0.004481
54.207,51.0169,0.004481
54.223,50.9890,0.004481
54.239,50.9610,0.004481
54.255,50.9312,0.004481
54.270,50.9041,0.004481
54.287,50.8738,0.004481
54.303,50.8445,0.004481
54.320,50.8148,0.004481
54.345,50.7671,0.004678
54.367,50.7272,0.004678
54.384,50.6938,0.004678
54.408,50.6487,0.004678
54.439,50.5882,0.004678
54.454,50.5598,0.004678
54.470,50.5304,0.004678
54.486,50.4984,0.004678
54.521,50.4278,0.004678
54.542,50.3860,0.004678
54.558,50.3541,0.004678
54.580,50.3081,0.004678
54.608,50.2526,0.004857
54.628,50.2124,0.004857
54.643,50.1783,0.004857
54.659,50.1460,0.004857
54.675,50.1125,0.004857
54.691,50.0786,0.004857
54.708,50.0435,0.004857
54.723,50.0098,0.004857
54.739,49.9769,0.004857
54.756,49.9396,0.004857
54.773,49.9019,0.004857
54.795,49.8590,0.004857
54.825,49.7969,0.004857
54.841,49.7633,0.004857
54.871,49.7025,0.005045
54.887,49.6700,0.005045
54.904,49.6373,0.005045
54.935,49.5761,0.005045
54.950,49.5440,0.005045
54.966,49.5129,0.005045
54.982,49.4832,0.005045
54.998,49.4532,0.005045
55.014,49.4225,0.005045
55.044,49.3638,0.005045
55.059,49.3358,0.005045
55.076,49.3046,0.005045
55.091,49.2765,0.005045
55.107,49.2471,0.005045
55.134,49.1969,0.005243
55.149,49.1688,0.005243
55.166,49.1404,0.005243
55.181,49.1129,0.005243
55.200,49.0782,0.005243
55.228,49.0297,0.005243
55.245,48.9991,0.005243
55.261,48.9702,0.005243
55.277,48.9444,0.005243
55.294,48.9150,0.005243
55.310,48.8878,0.005243
55.325,48.8625,0.005243
55.341,48.8352,0.005243
55.357,48.8087,0.005488
55.373,48.7828,0.005488
55.389,48.7565,0.005488
55.405,48.7310,0.005488
55.421,48.7056,0.005488
55.437,48.6798,0.005488
55.453,48.6534,0.005488
55.469,48.6292,0.005488
55.485,48.6037,0.005488
55.501,48.5790,0.005488
55.517,48.5528,0.005488
55.533,48.5302,0.005488
55.549,48.5061,0.005488
55.565,48.4822,0.005488
55.581,48.4576,0.005488
55.597,48.4344,0.005733
55.613,48.4102,0.005733
55.629,48.3876,0.005733
55.645,48.3647,0.005733
55.661,48.3416,0.005733
55.688,48.3025,0.005733
55.704,48.2811,0.005733
55.720,48.2589,0.005733
55.735,48.2372,0.005733
55.755,48.2094,0.005733
55.774,48.1848,0.005733
55.797,48.1540,0.005733
55.816,48.1289,0.005733
55.832,48.1089,0.005733
55.848,48.0886,0.005996
55.864,48.0680,0.005996
55.880,48.0475,0.005996
55.896,48.0272,0.005996
55.912,48.0080,0.005996
55.928,47.9883,0.005996
55.946,47.9663,0.005996
55.967,47.9403,0.005996
55.982,47.9232,0.005996
56.013,47.8862,0.005996
56.044,47.8515,0.005996
56.059,47.8339,0.005996
56.075,47.8160,0.005996
56.091,47.7985,0.006335
56.122,47.7643,0.006335
56.154,47.7312,0.006335
56.184,47.6995,0.006335
56.200,47.6834,0.006335
56.216,47.6677,0.006335
56.244,47.6393,0.006335
56.261,47.6225,0.006335
56.277,47.6070,0.006335
56.308,47.5766,0.006335
56.339,47.5492,0.006599
56.355,47.5350,0.006599
56.371,47.5203,0.006599
56.388,47.5059,0.006599
56.403,47.4922,0.006599
56.419,47.4791,0.006599
56.435,47.4650,0.006599
56.451,47.4522,0.006599
56.467,47.4381,0.006599
56.494,47.4173,0.006599
56.515,47.4006,0.006599
56.530,47.3886,0.006599
56.547,47.3755,0.006599
56.563,47.3637,0.006599
56.578,47.3526,0.006599
56.595,47.3407,0.006825
56.611,47.3295,0.006825
56.627,47.3179,0.006825
56.642,47.3073,0.006825
56.659,47.2963,0.006825
56.675,47.2859,0.006825
56.690,47.2756,0.006825
56.707,47.2651,0.006825
56.723,47.2552,0.006825
56.739,47.2451,0.006825
56.755,47.2353,0.006825
56.771,47.2260,0.006825
56.801,47.2087,0.006825
56.819,47.1987,0.006825
56.834,47.1905,0.006975
56.865,47.1741,0.006975
56.881,47.1665,0.006975
56.911,47.1514,0.006975
56.929,47.1433,0.006975
56.958,47.1297,0.006975
56.975,47.1222,0.006975
56.998,47.1127,0.006975
57.021,47.1034,0.006975
57.040,47.0962,0.006975
57.056,47.0901,0.006975
57.072,47.0843,0.006975
57.088,47.0787,0.007050
57.104,47.0732,0.007050
57.120,47.0679,0.007050
57.136,47.0629,0.007050
57.151,47.0583,0.007050
57.167,47.0536,0.007050
57.185,47.0488,0.007050
57.200,47.0447,0.007050
57.215,47.0408,0.007050
57.232,47.0369,0.007050
57.248,47.0332,0.007050
57.264,47.0297,0.007050
57.280,47.0265,0.007050
57.296,47.0234,0.007050
57.324,47.0182,0.007050
57.340,47.0158,0.007050
57.355,47.0134,0.007145
57.371,47.0113,0.007145
57.387,47.0093,0.007145
57.403,47.0075,0.007145
57.420,47.0059,0.007145
57.436,47.0044,0.007145
57.451,47.0033,0.007145
57.468,47.0023,0.007145
57.483,47.0014,0.007145
57.499,47.0008,0.007145
57.515,47.0003,0.007145
57.532,47.0000,0.007145
57.549,47.0000,0.007145
57.578,47.0000,0.007211
57.596,47.0000,0.007211
57.612,47.0000,0.007211
57.628,47.0000,0.007211
57.644,47.0000,0.007211
57.659,47.0000,0.007211
57.676,47.0000,0.007211
57.691,47.0000,0.007211
57.707,47.0000,0.007211
57.723,47.0000,0.007211
57.739,47.0000,0.007211
57.755,47.0000,0.007211
57.771,47.0000,0.007211
57.787,47.0000,0.007211
57.803,47.0000,0.007211
57.819,47.0000,0.007211
57.835,47.0000,0.007211
57.857,47.0000,0.007295
57.880,47.0000,0.007295
57.903,47.0000,0.007295
57.921,47.0000,0.007295
57.951,47.0000,0.007295
57.969,47.0000,0.007295
57.985,47.0000,0.007295
58.000,47.0000,0.007295
58.017,47.0000,0.007295
58.032,47.0000,0.007295
58.049,47.0000,0.007295
58.074,47.0000,0.007295
58.105,47.0000,0.007342
58.124,47.0000,0.007342
58.144,47.0003,0.007342
58.160,47.0007,0.007342
58.176,47.0013,0.007342
58.192,47.0020,0.007342
58.208,47.0030,0.007342
58.225,47.0043,0.007342
58.251,47.0066,0.007342
58.272,47.0089,0.007342
58.288,47.0108,0.007342
58.304,47.0128,0.007342
58.320,47.0152,0.007295
58.336,47.0177,0.007295
58.353,47.0206,0.007295
58.369,47.0236,0.007295
58.385,47.0267,0.007295
58.401,47.0298,0.007295
58.416,47.0333,0.007295
58.432,47.0370,0.007295
58.448,47.0410,0.007295
58.464,47.0448,0.007295
58.480,47.0494,0.007295
58.496,47.0536,0.007295
58.512,47.0583,0.007295
58.528,47.0632,0.007295
58.544,47.0684,0.007295
58.560,47.0733,0.007295
58.576,47.0787,0.007211
58.592,47.0844,0.007211
58.609,47.0906,0.007211
58.624,47.0963,0.007211
58.640,47.1024,0.007211
58.656,47.1089,0.007211
58.672,47.1156,0.007211
58.688,47.1221,0.007211
58.704,47.1292,0.007211
58.720,47.1365,0.007211
58.736,47.1439,0.007211
58.752,47.1512,0.007211
58.768,47.1592,0.007211
58.784,47.1669,0.007211
58.800,47.1752,0.007211
58.816,47.1832,0.007211
58.832,47.1923,0.007163
58.848,47.2006,0.007163
58.864,47.2095,0.007163
58.880,47.2186,0.007163
58.905,47.2332,0.007163
58.921,47.2428,0.007163
58.937,47.2526,0.007163
58.953,47.2625,0.007163
58.969,47.2731,0.007163
58.985,47.2833,0.007163
59.001,47.2940,0.007163
59.017,47.3048,0.007163
59.033,47.3159,0.007163
59.049,47.3267,0.007163
59.065,47.3383,0.007163
59.082,47.3514,0.007163
59.113,47.3731,0.007032
59.129,47.3851,0.007032
59.145,47.3979,0.007032
59.161,47.4103,0.007032
59.177,47.4233,0.007032
59.193,47.4355,0.007032
59.212,47.4517,0.007032
59.238,47.4737,0.007032
59.257,47.4898,0.007032
59.273,47.5035,0.007032
59.291,47.5197,0.007032
59.315,47.5409,0.007032
59.338,47.5613,0.007032
59.353,47.5755,0.006881
59.369,47.5908,0.006881
59.385,47.6059,0.006881
59.402,47.6220,0.006881
59.422,47.6419,0.006881
59.444,47.6638,0.006881
59.459,47.6790,0.006881
59.474,47.6947,0.006881
59.491,47.7112,0.006881
59.507,47.7292,0.006881
59.524,47.7457,0.006881
59.545,47.7686,0.006881
59.561,47.7864,0.006881
59.591,47.8186,0.006768
59.606,47.8362,0.006768
59.622,47.8549,0.006768
59.653,47.8893,0.006768
59.668,47.9076,0.006768
59.684,47.9261,0.006768
59.699,47.9447,0.006768
59.715,47.9628,0.006768
59.731,47.9831,0.006768
59.747,48.0022,0.006768
59.762,48.0213,0.006768
59.779,48.0421,0.006768
59.794,48.0611,0.006768
59.812,48.0839,0.006768
59.838,48.1172,0.006505
59.858,48.1439,0.006505
59.875,48.1662,0.006505
59.901,48.2012,0.006505
59.922,48.2299,0.006505
59.938,48.2519,0.006505
59.954,48.2738,0.006505
59.970,48.2961,0.006505
59.996,48.3323,0.006505
60.024,48.3731,0.006505
60.043,48.3993,0.006505
60.058,48.4233,0.006505
60.074,48.4460,0.006505
60.091,48.4708,0.006213
60.106,48.4935,0.006213
60.122,48.5188,0.006213
60.138,48.5419,0.006213
60.154,48.5665,0.006213
60.171,48.5935,0.006213
60.189,48.6225,0.006213
60.206,48.6466,0.006213
60.226,48.6787,0.006213
60.258,48.7297,0.006213
60.288,48.7787,0.006213
60.305,48.8074,0.006213
60.334,48.8566,0.005930
60.350,48.8823,0.005930
60.366,48.9089,0.005930
60.382,48.9365,0.005930
60.413,48.9899,0.005930
60.444,49.0438,0.005930
60.474,49.0969,0.005930
60.493,49.1328,0.005930
60.521,49.1819,0.005930
60.551,49.2362,0.005930
60.567,49.2660,0.005930
60.583,49.2952,0.005676
60.599,49.3265,0.005676
60.621,49.3696,0.005676
60.638,49.3993,0.005676
60.660,49.4418,0.005676
60.679,49.4783,0.005676
60.694,49.5082,0.005676
60.710,49.5393,0.005676
60.726,49.5708,0.005676
60.747,49.6150,0.005676
60.771,49.6613,0.005676
60.791,49.6994,0.005676
60.806,49.7310,0.005676
60.823,49.7649,0.005676
60.839,49.7970,0.005356
60.854,49.8301,0.005356
60.871,49.8647,0.005356
60.887,49.8976,0.005356
60.902,49.9299,0.005356
60.918,49.9637,0.005356
60.934,49.9979,0.005356
60.950,50.0317,0.005356
60.966,50.0662,0.005356
60.982,50.0988,0.005356
60.998,50.1328,0.005356
61.015,50.1660,0.005356
61.030,50.1992,0.005356
61.046,50.2321,0.005356
61.063,50.2658,0.005356
61.078,50.2977,0.005356
61.108,50.3564,0.005130
61.125,50.3918,0.005130
61.156,50.4548,0.005130
61.174,50.4872,0.005130
61.202,50.5410,0.005130
61.218,50.5724,0.005130
61.234,50.6039,0.005130
61.250,50.6339,0.005130
61.266,50.6635,0.005130
61.282,50.6940,0.005130
61.298,50.7230,0.005130
61.314,50.7534,0.005130
61.330,50.7834,0.004961
61.346,50.8136,0.004961
61.367,50.8501,0.004961
61.390,50.8914,0.004961
61.410,50.9269,0.004961
61.427,50.9560,0.004961
61.452,51.0003,0.004961
61.474,51.0384,0.004961
61.490,51.0673,0.004961
61.506,51.0936,0.004961
61.522,51.1197,0.004961
61.538,51.1475,0.004961
61.554,51.1743,0.004961
61.570,51.1999,0.004782
61.586,51.2270,0.004782
61.602,51.2529,0.004782
61.631,51.2998,0.004782
61.647,51.3265,0.004782
61.663,51.3517,0.004782
61.680,51.3771,0.004782
61.695,51.4018,0.004782
61.711,51.4250,0.004782
61.728,51.4514,0.004782
61.743,51.4743,0.004782
61.759,51.4990,0.004782
61.775,51.5222,0.004782
61.791,51.5465,0.004782
61.807,51.5701,0.004782
61.824,51.5946,0.004594
61.839,51.6174,0.004594
61.855,51.6395,0.004594
61.872,51.6636,0.004594
61.901,51.7056,0.004594
61.920,51.7312,0.004594
61.935,51.7524,0.004594
61.952,51.7753,0.004594
61.967,51.7962,0.004594
61.983,51.8172,0.004594
61.999,51.8388,0.004594
62.015,51.8599,0.004594
62.032,51.8822,0.004594
62.048,51.9033,0.004594
62.064,51.9232,0.004594
62.088,51.9538,0.004358
62.104,51.9740,0.004358
62.134,52.0122,0.004358
62.164,52.0483,0.004358
62.196,52.0858,0.004358
62.226,52.1204,0.004358
62.257,52.1564,0.004358
62.274,52.1747,0.004358
62.303,52.2067,0.004358
62.319,52.2243,0.004358
62.335,52.2421,0.004217
62.352,52.2590,0.004217
62.381,52.2901,0.004217
62.401,52.3118,0.004217
62.427,52.3365,0.004217
62.447,52.3562,0.004217
62.463,52.3730,0.004217
62.479,52.3879,0.004217
62.495,52.4035,0.004217
62.511,52.4179,0.004217
62.528,52.4339,0.004217
62.550,52.4543,0.004217
62.566,52.4685,0.004217
62.597,52.4964,0.004217
62.628,52.5229,0.004067
62.659,52.5492,0.004067
62.690,52.5738,0.004067
62.706,52.5877,0.004067
62.736,52.6109,0.004067
62.752,52.6226,0.004067
62.767,52.6338,0.004067
62.785,52.6471,0.004067
62.815,52.6684,0.004067
62.832,52.6806,0.004067
62.860,52.7003,0.003878
62.879,52.7123,0.003878
62.894,52.7226,0.003878
62.910,52.7328,0.003878
62.926,52.7428,0.003878
62.942,52.7527,0.003878
62.958,52.7625,0.003878
62.975,52.7722,0.003878
62.990,52.7812,0.003878
63.006,52.7902,0.003878
63.022,52.7994,0.003878
63.038,52.8079,0.003878
63.054,52.8167,0.003878
63.071,52.8252,0.003878
63.089,52.8344,0.003878
63.108,52.8438,0.003878
63.139,52.8583,0.003718
63.155,52.8660,0.003718
63.171,52.8728,0.003718
63.187,52.8796,0.003718
63.210,52.8894,0.003718
63.226,52.8960,0.003718
63.242,52.9022,0.003718
63.258,52.9083,0.003718
63.275,52.9142,0.003718
63.290,52.9198,0.003718
63.307,52.9254,0.003718
63.323,52.9307,0.003718
63.338,52.9358,0.003718
63.354,52.9406,0.003351
63.371,52.9454,0.003351
63.386,52.9498,0.003351
63.402,52.9542,0.003351
63.419,52.9584,0.003351
63.434,52.9622,0.003351
63.450,52.9659,0.003351
63.466,52.9695,0.003351
63.482,52.9729,0.003351
63.498,52.9760,0.003351
63.515,52.9792,0.003351
63.545,52.9841,0.003351
63.562,52.9867,0.003351
63.579,52.9889,0.003351
63.595,52.9909,0.003351
63.611,52.9927,0.002466
63.638,52.9953,0.002466
63.659,52.9968,0.002466
63.674,52.9978,0.002466
63.691,52.9987,0.002466
63.715,52.9996,0.002466
63.746,53.0001,0.002466
63.767,53.0001,0.002466
63.783,53.0001,0.002466
63.799,53.0001,0.002466
63.815,53.0001,0.002466
63.832,53.0001,0.002466
63.848,53.0001,0.001949
63.863,53.0001,0.001949
63.879,53.0001,0.001949
63.896,53.0001,0.001949
63.911,53.0001,0.001949
63.927,53.0001,0.001949
63.943,53.0001,0.001949
63.959,53.0001,0.001949
63.975,53.0001,0.001949
63.991,53.0001,0.001949
64.007,53.0001,0.001949
64.023,53.0001,0.001949
64.039,53.0001,0.001949
64.055,53.0001,0.001949
64.071,53.0001,0.001949
64.087,53.0001,0.001949
64.103,53.0001,0.002466
64.119,53.0001,0.002466
64.137,53.0001,0.002466
64.164,53.0001,0.002466
64.183,53.0001,0.002466
64.199,53.0001,0.002466
64.215,53.0001,0.002466
64.231,53.0001,0.002466
64.247,53.0001,0.002466
64.263,53.0001,0.002466
64.279,53.0001,0.002466
64.295,53.0001,0.002466
64.318,53.0001,0.002466
64.334,53.0001,0.002466
64.350,53.0001,0.003172
64.366,53.0001,0.003172
64.382,53.0001,0.003172
64.398,53.0001,0.003172
64.414,53.0001,0.003172
64.430,53.0001,0.003172
64.446,53.0001,0.003172
64.462,53.0001,0.003172
64.478,53.0001,0.003172
64.494,53.0001,0.003172
64.510,53.0001,0.003172
64.527,53.0001,0.003172
64.550,53.0001,0.003172
64.580,53.0001,0.003172
64.610,53.0001,0.003455
64.641,53.0001,0.003455
64.656,53.0001,0.003455
64.686,53.0001,0.003455
64.702,53.0001,0.003455
64.718,53.0001,0.003455
64.735,53.0001,0.003455
64.763,53.0001,0.003455
64.782,53.0001,0.003455
64.798,53.0001,0.003455
64.814,53.0001,0.003455
64.830,53.0001,0.003455
64.846,53.0001,0.003455
64.871,53.0001,0.003539
64.886,53.0001,0.003539
64.902,53.0001,0.003539
64.918,53.0001,0.003539
64.935,53.0001,0.003539
64.963,53.0001,0.003539
64.983,53.0001,0.003539
65.001,53.0001,0.003539
65.024,53.0001,0.003539
65.046,53.0001,0.003539
65.062,53.0001,0.003539
65.078,53.0001,0.003539
65.093,53.0001,0.003652
65.111,53.0001,0.003652
65.126,53.0001,0.003652
65.142,53.0001,0.003652
65.158,53.0001,0.003652
65.174,53.0001,0.003652
65.189,53.0001,0.003652
65.206,53.0001,0.003652
65.222,53.0001,0.003652
65.239,53.0001,0.003652
65.254,53.0001,0.003652
65.270,53.0001,0.003652
65.286,53.0001,0.003652
65.301,53.0001,0.003652
65.318,53.0001,0.003652
65.334,53.0001,0.003681
65.350,53.0001,0.003681
65.366,53.0001,0.003681
65.382,53.0001,0.003681
65.397,53.0001,0.003681
65.423,53.0001,0.003681
65.440,53.0001,0.003681
65.471,53.0001,0.003681
65.490,53.0001,0.003681
65.517,53.0001,0.003681
65.534,53.0001,0.003681
65.549,53.0001,0.003681
65.566,53.0001,0.003681
65.582,53.0001,0.003699
65.598,53.0001,0.003699
65.614,53.0001,0.003699
65.629,53.0001,0.003699
65.645,53.0001,0.003699
65.662,53.0001,0.003699
65.678,53.0001,0.003699
65.693,53.0001,0.003699
65.709,53.0001,0.003699
65.725,53.0001,0.003699
65.741,53.0001,0.003699
65.759,53.0001,0.003699
65.781,53.0001,0.003699
65.797,53.0001,0.003699
65.813,53.0001,0.003699
65.844,53.0001,0.003746
65.875,53.0001,0.003746
65.891,53.0001,0.003746
65.921,53.0001,0.003746
65.945,53.0001,0.003746
65.961,53.0001,0.003746
65.977,53.0001,0.003746
65.993,53.0001,0.003746
66.008,53.0001,0.003746
66.024,53.0001,0.003746
66.041,53.0001,0.003746
66.057,53.0001,0.003746
66.072,53.0001,0.003756
66.088,53.0001,0.003756
66.105,53.0001,0.003756
66.120,53.0001,0.003756
66.137,53.0001,0.003756
66.152,53.0001,0.003756
66.171,53.0001,0.003756
66.198,53.0001,0.003756
66.217,53.0001,0.003756
66.232,53.0001,0.003756
66.248,53.0001,0.003756
66.264,53.0001,0.003756
66.280,53.0001,0.003756
66.297,53.0001,0.003756
66.312,53.0001,0.003756
66.328,53.0001,0.003718
66.345,53.0001,0.003718
66.361,53.0001,0.003718
66.376,53.0001,0.003718
66.393,53.0001,0.003718
66.408,53.0001,0.003718
66.425,53.0001,0.003718
66.441,53.0001,0.003718
66.456,53.0001,0.003718
66.473,53.0001,0.003718
66.488,53.0001,0.003718
66.504,53.0001,0.003718
66.521,53.0001,0.003718
66.538,53.0001,0.003718
66.554,53.0001,0.003718
66.584,53.0001,0.003709
66.602,53.0001,0.003709
66.632,53.0001,0.003709
66.648,53.0001,0.003709
66.665,53.0001,0.003709
66.680,53.0001,0.003709
66.697,53.0001,0.003709
66.712,53.0001,0.003709
66.729,53.0001,0.003709
66.745,53.0001,0.003709
66.760,53.0001,0.003709
66.776,53.0001,0.003709
66.797,53.0001,0.003709
66.818,53.0001,0.003709
66.849,53.0001,0.003737
66.880,53.0001,0.003737
66.910,53.0001,0.003737
66.926,53.0001,0.003737
66.942,53.0001,0.003737
66.958,53.0001,0.003737
66.975,53.0001,0.003737
66.999,53.0001,0.003737
67.016,53.0001,0.003737
67.035,53.0001,0.003737
67.050,53.0001,0.003737
67.081,53.0001,0.003737
67.097,53.0001,0.003737
67.112,53.0001,0.003737
67.127,53.0001,0.003737
67.143,53.0001,0.003737
67.160,53.0001,0.003737
67.177,53.0001,0.003737
67.205,53.0001,0.003737
67.223,53.0001,0.003737
67.239,53.0001,0.003737
67.255,53.0001,0.003737
67.271,53.0001,0.003737
67.288,53.0001,0.003737
67.303,53.0001,0.003737
67.319,53.0001,0.003718
67.335,53.0001,0.003718
67.352,53.0001,0.003718
67.368,53.0001,0.003718
67.383,53.0001,0.003718
67.400,53.0001,0.003718
67.416,53.0001,0.003718
67.431,53.0001,0.003718
67.447,53.0001,0.003718
67.464,53.0001,0.003718
67.479,53.0001,0.003718
67.495,53.0001,0.003718
67.511,53.0001,0.003718
67.527,53.0001,0.003718
67.543,53.0001,0.003718
67.559,53.0001,0.003718
67.575,53.0001,0.003586
67.591,53.0001,0.003586
67.607,53.0001,0.003586
67.623,53.0001,0.003586
67.639,53.0001,0.003586
67.655,53.0001,0.003586
67.672,53.0001,0.003586
67.687,53.0001,0.003586
67.703,53.0001,0.003586
67.719,53.0001,0.003586
67.735,53.0001,0.003586
67.751,53.0001,0.003586
67.767,53.0001,0.003586
67.784,53.0001,0.003586
67.809,53.0001,0.003586
67.840,53.0001,0.003586
67.871,53.0001,0.003408
67.901,53.0001,0.003408
67.932,53.0001,0.003408
67.964,53.0001,0.003408
67.995,53.0001,0.003408
68.025,52.9997,0.003408
68.042,52.9992,0.003408
68.073,52.9977,0.003408
68.103,52.9955,0.003295
68.119,52.9941,0.003295
68.135,52.9925,0.003295
68.151,52.9906,0.003295
68.167,52.9886,0.003295
68.183,52.9865,0.003295
68.199,52.9842,0.003295
68.215,52.9816,0.003295
68.231,52.9787,0.003295
68.247,52.9757,0.003295
68.263,52.9725,0.003295
68.279,52.9692,0.003295
68.295,52.9658,0.003295
68.312,52.9617,0.003295
68.327,52.9580,0.003295
68.343,52.9539,0.003295
68.358,52.9497,0.004707
68.375,52.9450,0.004707
68.391,52.9401,0.004707
68.407,52.9354,0.004707
68.423,52.9304,0.004707
68.439,52.9249,0.004707
68.454,52.9197,0.004707
68.471,52.9139,0.004707
68.487,52.9080,0.004707
68.503,52.9018,0.004707
68.519,52.8956,0.004707
68.535,52.8889,0.004707
68.551,52.8822,0.004707
68.567,52.8752,0.004707
68.584,52.8683,0.004707
68.613,52.8548,0.010195
68.630,52.8465,0.010195
68.646,52.8387,0.010195
68.663,52.8306,0.010195
68.679,52.8225,0.010195
68.695,52.8138,0.010195
68.710,52.8056,0.010195
68.727,52.7968,0.010195
68.743,52.7874,0.010195
68.758,52.7787,0.010195
68.775,52.7692,0.010195
68.791,52.7597,0.010195
68.807,52.7495,0.010195
68.822,52.7399,0.011277
68.839,52.7296,0.011277
68.855,52.7193,0.011277
68.871,52.7086,0.011277
68.886,52.6983,0.011277
68.903,52.6873,0.011277
68.919,52.6760,0.011277
68.935,52.6643,0.011277
68.952,52.6524,0.011277
68.969,52.6404,0.011277
68.985,52.6285,0.011277
69.000,52.6167,0.011277
69.016,52.6043,0.011277
69.032,52.5918,0.011277
69.062,52.5680,0.011277
69.079,52.5541,0.006307
69.094,52.5414,0.006307
69.117,52.5216,0.006307
69.141,52.5016,0.006307
69.158,52.4865,0.006307
69.186,52.4620,0.006307
69.203,52.4460,0.006307
69.219,52.4314,0.006307
69.235,52.4164,0.006307
69.258,52.3951,0.006307
69.282,52.3711,0.006307
69.299,52.3546,0.006307
69.315,52.3385,0.006307
69.332,52.3221,0.006307
69.347,52.3064,0.004170
69.363,52.2899,0.004170
69.379,52.2724,0.004170
69.395,52.2563,0.004170
69.411,52.2393,0.004170
69.428,52.2214,0.004170
69.444,52.2038,0.004170
69.460,52.1857,0.004170
69.482,52.1608,0.004170
69.497,52.1438,0.004170
69.519,52.1197,0.004170
69.540,52.0951,0.004170
69.556,52.0766,0.004170
69.571,52.0575,0.004170
69.587,52.0387,0.004114
69.603,52.0190,0.004114
69.620,51.9994,0.004114
69.635,51.9798,0.004114
69.652,51.9595,0.004114
69.680,51.9224,0.004114
69.696,51.9024,0.004114
69.712,51.8824,0.004114
69.729,51.8593,0.004114
69.752,51.8272,0.004114
69.776,51.7975,0.004114
69.793,51.7743,0.004114
69.809,51.7523,0.004114
69.825,51.7307,0.004114
69.841,51.7090,0.004227
69.857,51.6850,0.004227
69.878,51.6553,0.004227
69.901,51.6222,0.004227
69.921,51.5941,0.004227
69.937,51.5707,0.004227
69.952,51.5482,0.004227
69.969,51.5232,0.004227
69.984,51.5004,0.004227
70.001,51.4739,0.004227
70.017,51.4511,0.004227
70.032,51.4274,0.004227
70.048,51.4024,0.004227
70.064,51.3772,0.004227
70.080,51.3525,0.004227
70.096,51.3272,0.004415
70.112,51.3007,0.004415
70.129,51.2748,0.004415
70.144,51.2497,0.004415
70.160,51.2229,0.004415
70.176,51.1971,0.004415
70.203,51.1514,0.004415
70.220,51.1230,0.004415
70.243,51.0850,0.004415
70.259,51.0577,0.004415
70.289,51.0050,0.004415
70.320,50.9513,0.004415
70.350,50.8966,0.004415
70.380,50.8438,0.004575
70.412,50.7850,0.004575
70.427,50.7587,0.004575
70.459,50.6987,0.004575
70.474,50.6714,0.004575
70.490,50.6409,0.004575
70.506,50.6107,0.004575
70.522,50.5797,0.004575
70.538,50.5489,0.004575
70.555,50.5167,0.004575
70.571,50.4855,0.004575
70.586,50.4561,0.004575
70.603,50.4230,0.004772
70.618,50.3935,0.004772
70.634,50.3605,0.004772
70.650,50.3287,0.004772
70.666,50.2971,0.004772
70.682,50.2648,0.004772
70.698,50.2299,0.004772
70.714,50.1979,0.004772
70.730,50.1665,0.004772
70.753,50.1179,0.004772
70.769,50.0834,0.004772
70.785,50.0514,0.004772
70.801,50.0152,0.004772
70.817,49.9823,0.004772
70.833,49.9483,0.004772
70.850,49.9127,0.005055
70.865,49.8815,0.005055
70.883,49.8437,0.005055
70.907,49.7924,0.005055
70.929,49.7473,0.005055
70.945,49.7139,0.005055
70.961,49.6827,0.005055
70.977,49.6503,0.005055
70.993,49.6174,0.005055
71.009,49.5849,0.005055
71.025,49.5543,0.005055
71.041,49.5221,0.005055
71.057,49.4909,0.005055
71.073,49.4587,0.005055
71.088,49.4288,0.005196
71.105,49.3970,0.005196
71.120,49.3669,0.005196
71.137,49.3364,0.005196
71.153,49.3063,0.005196
71.169,49.2741,0.005196
71.186,49.2433,0.005196
71.201,49.2163,0.005196
71.217,49.1868,0.005196
71.233,49.1577,0.005196
71.249,49.1279,0.005196
71.265,49.0986,0.005196
71.281,49.0707,0.005196
71.307,49.0235,0.005196
71.324,48.9946,0.005196
71.339,48.9683,0.005422
71.355,48.9399,0.005422
71.371,48.9115,0.005422
71.387,48.8842,0.005422
71.403,48.8577,0.005422
71.419,48.8300,0.005422
71.436,48.8021,0.005422
71.463,48.7573,0.005422
71.483,48.7242,0.005422
71.499,48.6974,0.005422
71.515,48.6719,0.005422
71.531,48.6468,0.005422
71.547,48.6203,0.005422
71.562,48.5956,0.005422
71.579,48.5688,0.005733
71.594,48.5457,0.005733
71.610,48.5207,0.005733
71.627,48.4955,0.005733
71.643,48.4717,0.005733
71.659,48.4473,0.005733
71.675,48.4233,0.005733
71.690,48.3998,0.005733
71.707,48.3761,0.005733
71.722,48.3530,0.005733
71.738,48.3298,0.005733
71.755,48.3064,0.005733
71.770,48.2841,0.005733
71.787,48.2612,0.005733
71.803,48.2371,0.005733
71.818,48.2165,0.005733
71.834,48.1945,0.005733
71.861,48.1579,0.006006
71.877,48.1354,0.006006
71.893,48.1149,0.006006
71.910,48.0924,0.006006
71.928,48.0689,0.006006
71.955,48.0333,0.006006
71.974,48.0107,0.006006
71.990,47.9894,0.006006
72.018,47.9547,0.006006
72.037,47.9313,0.006006
72.054,47.9114,0.006006
72.069,47.8928,0.006006
72.085,47.8742,0.006232
72.101,47.8552,0.006232
72.118,47.8353,0.006232
72.134,47.8174,0.006232
72.149,47.8000,0.006232
72.166,47.7814,0.006232
72.182,47.7629,0.006232
72.197,47.7463,0.006232
72.213,47.7287,0.006232
72.230,47.7111,0.006232
72.245,47.6942,0.006232
72.261,47.6776,0.006232
72.278,47.6606,0.006232
72.293,47.6441,0.006232
72.309,47.6281,0.006232
72.325,47.6119,0.006467
72.341,47.5960,0.006467
72.357,47.5804,0.006467
72.374,47.5639,0.006467
72.389,47.5495,0.006467
72.418,47.5217,0.006467
72.435,47.5062,0.006467
72.453,47.4902,0.006467
72.484,47.4630,0.006467
72.500,47.4490,0.006467
72.516,47.4351,0.006467
72.532,47.4214,0.006467
72.563,47.3951,0.006467
72.578,47.3829,0.006768
72.594,47.3703,0.006768
72.611,47.3572,0.006768
72.626,47.3450,0.006768
72.643,47.3321,0.006768
72.658,47.3206,0.006768
72.675,47.3084,0.006768
72.690,47.2972,0.006768
72.707,47.2852,0.006768
72.723,47.2740,0.006768
72.739,47.2627,0.006768
72.755,47.2518,0.006768
72.770,47.2418,0.006768
72.786,47.2309,0.006768
72.802,47.2204,0.006768
72.818,47.2105,0.006938
72.834,47.2006,0.006938
72.850,47.1908,0.006938
72.866,47.1809,0.006938
72.883,47.1717,0.006938
72.898,47.1628,0.006938
72.915,47.1532,0.006938
72.939,47.1398,0.006938
72.957,47.1309,0.006938
72.979,47.1196,0.006938
73.009,47.1043,0.006938
73.041,47.0897,0.006938
73.057,47.0820,0.006938
73.088,47.0689,0.007041
73.104,47.0621,0.007041
73.120,47.0555,0.007041
73.136,47.0493,0.007041
73.151,47.0433,0.007041
73.182,47.0320,0.007041
73.213,47.0217,0.007041
73.229,47.0163,0.007041
73.260,47.0069,0.007041
73.275,47.0027,0.007041
73.291,46.9982,0.007041
73.307,46.9940,0.007041
73.323,46.9900,0.007154
73.339,46.9862,0.007154
73.361,46.9812,0.007154
73.383,46.9766,0.007154
73.403,46.9728,0.007154
73.419,46.9698,0.007154
73.435,46.9672,0.007154
73.451,46.9647,0.007154
73.474,46.9615,0.007154
73.490,46.9595,0.007154
73.506,46.9576,0.007154
73.522,46.9560,0.007154
73.543,46.9542,0.007154
73.568,46.9524,0.007154
73.586,46.9516,0.007229
73.603,46.9508,0.007229
73.618,46.9504,0.007229
73.634,46.9502,0.007229
73.650,46.9501,0.007229
73.666,46.9501,0.007229
73.682,46.9501,0.007229
73.698,46.9501,0.007229
73.714,46.9501,0.007229
73.730,46.9501,0.007229
73.746,46.9501,0.007229
73.762,46.9501,0.007229
73.778,46.9501,0.007229
73.794,46.9501,0.007229
73.810,46.9501,0.007229
73.826,46.9501,0.007323
73.842,46.9501,0.007323
73.858,46.9501,0.007323
73.873,46.9501,0.007323
73.890,46.9501,0.007323
73.906,46.9501,0.007323
73.922,46.9501,0.007323
73.938,46.9501,0.007323
73.954,46.9501,0.007323
73.970,46.9501,0.007323
73.986,46.9501,0.007323
74.002,46.9501,0.007323
74.030,46.9501,0.007323
74.046,46.9501,0.007323
74.062,46.9501,0.007323
74.078,46.9501,0.007371
74.094,46.9501,0.007371
74.110,46.9501,0.007371
74.126,46.9501,0.007371
74.142,46.9501,0.007371
74.158,46.9501,0.007371
74.174,46.9501,0.007371
74.190,46.9501,0.007371
74.211,46.9501,0.007371
74.235,46.9501,0.007371
74.254,46.9501,0.007371
74.270,46.9501,0.007371
74.286,46.9501,0.007371
74.302,46.9501,0.007371
74.318,46.9501,0.007371
74.334,46.9502,0.007371
74.350,46.9504,0.007305
74.366,46.9508,0.007305
74.382,46.9514,0.007305
74.397,46.9523,0.007305
74.413,46.9533,0.007305
74.429,46.9545,0.007305
74.445,46.9559,0.007305
74.462,46.9575,0.007305
74.478,46.9594,0.007305
74.494,46.9614,0.007305
74.509,46.9635,0.007305
74.526,46.9659,0.007305
74.552,46.9703,0.007305
74.568,46.9731,0.007305
74.584,46.9762,0.007229
74.601,46.9797,0.007229
74.616,46.9831,0.007229
74.633,46.9869,0.007229
74.649,46.9906,0.007229
74.664,46.9946,0.007229
74.683,46.9995,0.007229
74.711,47.0076,0.007229
74.729,47.0129,0.007229
74.745,47.0182,0.007229
74.761,47.0231,0.007229
74.776,47.0284,0.007229
74.793,47.0342,0.007229
74.809,47.0401,0.007229
74.825,47.0461,0.007229
74.841,47.0523,0.007173
74.858,47.0591,0.007173
74.873,47.0653,0.007173
74.895,47.0748,0.007173
74.911,47.0817,0.007173
74.927,47.0888,0.007173
74.957,47.1032,0.007173
74.988,47.1184,0.007173
75.018,47.1336,0.007173
75.033,47.1419,0.007173
75.049,47.1505,0.007173
75.065,47.1592,0.007173
75.080,47.1683,0.007098
75.106,47.1834,0.007098
75.122,47.1930,0.007098
75.138,47.2027,0.007098
75.154,47.2126,0.007098
75.171,47.2232,0.007098
75.186,47.2333,0.007098
75.203,47.2445,0.007098
75.218,47.2547,0.007098
75.235,47.2663,0.007098
75.250,47.2769,0.007098
75.268,47.2891,0.007098
75.298,47.3110,0.007098
75.315,47.3235,0.007098
75.330,47.3354,0.006994
75.346,47.3479,0.006994
75.363,47.3611,0.006994
75.379,47.3734,0.006994
75.394,47.3858,0.006994
75.411,47.3992,0.006994
75.427,47.4130,0.006994
75.442,47.4256,0.006994
75.459,47.4396,0.006994
75.474,47.4531,0.006994
75.491,47.4681,0.006994
75.507,47.4816,0.006994
75.522,47.4958,0.006994
75.538,47.5104,0.006994
75.555,47.5258,0.006994
75.570,47.5404,0.006872
75.586,47.5559,0.006872
75.602,47.5713,0.006872
75.629,47.5978,0.006872
75.645,47.6133,0.006872
75.662,47.6302,0.006872
75.677,47.6456,0.006872
75.693,47.6623,0.006872
75.709,47.6794,0.006872
75.725,47.6959,0.006872
75.742,47.7134,0.006872
75.757,47.7305,0.006872
75.773,47.7482,0.006872
75.789,47.7654,0.006872
75.805,47.7834,0.006872
75.821,47.8019,0.006740
75.837,47.8202,0.006740
75.854,47.8396,0.006740
75.870,47.8577,0.006740
75.900,47.8930,0.006740
75.919,47.9173,0.006740
75.947,47.9496,0.006740
75.965,47.9731,0.006740
75.982,47.9938,0.006740
75.997,48.0137,0.006740
76.013,48.0335,0.006740
76.030,48.0555,0.006740
76.046,48.0756,0.006740
76.062,48.0965,0.006740
76.077,48.1170,0.006495
76.093,48.1385,0.006495
76.109,48.1609,0.006495
76.125,48.1817,0.006495
76.141,48.2032,0.006495
76.164,48.2352,0.006495
76.180,48.2590,0.006495
76.196,48.2806,0.006495
76.212,48.3029,0.006495
76.229,48.3268,0.006495
76.257,48.3681,0.006495
76.276,48.3967,0.006495
76.292,48.4204,0.006495
76.308,48.4437,0.006495
76.324,48.4697,0.006184
76.341,48.4940,0.006184
76.356,48.5180,0.006184
76.372,48.5433,0.006184
76.388,48.5663,0.006184
76.404,48.5926,0.006184
76.420,48.6187,0.006184
76.436,48.6426,0.006184
76.452,48.6679,0.006184
76.468,48.6947,0.006184
76.484,48.7214,0.006184
76.500,48.7464,0.006184
76.516,48.7727,0.006184
76.532,48.8002,0.006184
76.548,48.8263,0.006184
76.564,48.8533,0.006184
76.580,48.8804,0.005893
76.597,48.9105,0.005893
76.612,48.9364,0.005893
76.628,48.9646,0.005893
76.644,48.9917,0.005893
76.661,49.0218,0.005893
76.676,49.0494,0.005893
76.692,49.0768,0.005893
76.719,49.1277,0.005893
76.737,49.1583,0.005893
76.766,49.2123,0.005893
76.783,49.2434,0.005893
76.799,49.2739,0.005893
76.815,49.3042,0.005893
76.831,49.3350,0.005657
76.847,49.3642,0.005657
76.863,49.3943,0.005657
76.879,49.4259,0.005657
76.895,49.4581,0.005657
76.911,49.4894,0.005657
76.927,49.5190,0.005657
76.943,49.5506,0.005657
76.959,49.5833,0.005657
76.975,49.6156,0.005657
76.990,49.6467,0.005657
77.007,49.6817,0.005657
77.024,49.7150,0.005657
77.039,49.7446,0.005657
77.055,49.7784,0.005657
77.070,49.8110,0.005657
77.087,49.8449,0.005657
77.103,49.8780,0.005403
77.119,49.9125,0.005403
77.135,49.9457,0.005403
77.152,49.9828,0.005403
77.182,50.0464,0.005403
77.200,50.0833,0.005403
77.215,50.1148,0.005403
77.231,50.1470,0.005403
77.258,50.2041,0.005403
77.274,50.2356,0.005403
77.290,50.2668,0.005403
77.307,50.3020,0.005403
77.330,50.3491,0.005403
77.352,50.3921,0.005403
77.369,50.4262,0.005149
77.386,50.4592,0.005149
77.402,50.4886,0.005149
77.417,50.5186,0.005149
77.433,50.5491,0.005149
77.450,50.5799,0.005149
77.466,50.6107,0.005149
77.482,50.6417,0.005149
77.498,50.6697,0.005149
77.514,50.6999,0.005149
77.530,50.7293,0.005149
77.545,50.7578,0.005149
77.563,50.7895,0.005149
77.586,50.8305,0.005149
77.616,50.8847,0.004998
77.633,50.9145,0.004998
77.663,50.9684,0.004998
77.694,51.0196,0.004998
77.709,51.0463,0.004998
77.725,51.0740,0.004998
77.756,51.1246,0.004998
77.787,51.1764,0.004998
77.814,51.2207,0.004998
77.831,51.2472,0.004998
77.846,51.2722,0.004782
77.862,51.2973,0.004782
77.878,51.3225,0.004782
77.895,51.3488,0.004782
77.910,51.3724,0.004782
77.927,51.3975,0.004782
77.944,51.4238,0.004782
77.974,51.4691,0.004782
77.990,51.4935,0.004782
78.006,51.5172,0.004782
78.022,51.5413,0.004782
78.039,51.5650,0.004782
78.055,51.5880,0.004782
78.072,51.6116,0.004782
78.087,51.6339,0.004782
78.102,51.6553,0.004575
78.118,51.6773,0.004575
78.135,51.7003,0.004575
78.150,51.7212,0.004575
78.166,51.7428,0.004575
78.182,51.7644,0.004575
78.199,51.7865,0.004575
78.214,51.8067,0.004575
78.230,51.8279,0.004575
78.247,51.8491,0.004575
78.263,51.8700,0.004575
78.279,51.8905,0.004575
78.294,51.9100,0.004575
78.311,51.9302,0.004575
78.339,51.9656,0.004349
78.356,51.9857,0.004349
78.372,52.0049,0.004349
78.388,52.0240,0.004349
78.403,52.0421,0.004349
78.419,52.0607,0.004349
78.436,52.0804,0.004349
78.458,52.1056,0.004349
78.487,52.1372,0.004349
78.502,52.1548,0.004349
78.519,52.1728,0.004349
78.549,52.2054,0.004349
78.581,52.2392,0.004349
78.612,52.2710,0.004189
78.631,52.2900,0.004189
78.659,52.3174,0.004189
78.675,52.3331,0.004189
78.692,52.3486,0.004189
78.707,52.3637,0.004189
78.725,52.3798,0.004189
78.750,52.4031,0.004189
78.772,52.4225,0.004189
78.787,52.4362,0.004189
78.804,52.4515,0.004189
78.821,52.4656,0.004189
78.843,52.4846,0.004189
78.858,52.4970,0.004189
78.879,52.5143,0.004057
78.895,52.5272,0.004057
78.911,52.5398,0.004057
78.927,52.5523,0.004057
78.943,52.5652,0.004057
78.959,52.5768,0.004057
78.975,52.5889,0.004057
78.991,52.6006,0.004057
79.008,52.6127,0.004057
79.023,52.6234,0.004057
79.039,52.6348,0.004057
79.055,52.6455,0.004057
79.071,52.6564,0.004057
79.087,52.6668,0.003906
79.103,52.6771,0.003906
79.119,52.6876,0.003906
79.135,52.6973,0.003906
79.151,52.7075,0.003906
79.167,52.7169,0.003906
79.183,52.7262,0.003906
79.199,52.7355,0.003906
79.215,52.7446,0.003906
79.231,52.7532,0.003906
79.247,52.7622,0.003906
79.263,52.7704,0.003906
79.279,52.7787,0.003906
79.295,52.7866,0.003906
79.313,52.7954,0.003906
79.336,52.8066,0.003906
79.368,52.8213,0.003709
79.399,52.8344,0.003709
79.430,52.8471,0.003709
79.445,52.8530,0.003709
79.461,52.8590,0.003709
79.493,52.8704,0.003709
79.524,52.8806,0.003709
79.539,52.8856,0.003709
79.555,52.8904,0.003709
79.570,52.8949,0.003709
79.586,52.8993,0.003248
79.601,52.9036,0.003248
79.631,52.9114,0.003248
79.647,52.9148,0.003248
79.663,52.9184,0.003248
79.680,52.9220,0.003248
79.709,52.9279,0.003248
79.727,52.9310,0.003248
79.744,52.9337,0.003248
79.771,52.9377,0.003248
79.791,52.9401,0.003248
79.807,52.9421,0.003248
79.823,52.9437,0.003248
79.839,52.9452,0.002297
79.855,52.9465,0.002297
79.871,52.9476,0.002297
79.887,52.9485,0.002297
79.903,52.9492,0.002297
79.919,52.9497,0.002297
79.949,52.9501,0.002297
79.964,52.9501,0.002297
79.980,52.9501,0.002297
79.996,52.9501,0.002297
80.012,52.9501,0.002297
80.028,52.9501,0.002297
80.044,52.9501,0.002297
80.060,52.9501,0.002297
80.076,52.9501,0.001901
80.092,52.9501,0.001901
80.108,52.9501,0.001901
80.124,52.9501,0.001901
80.140,52.9501,0.001901
80.155,52.9501,0.001901
80.173,52.9501,0.001901
80.188,52.9501,0.001901
80.204,52.9501,0.001901
80.221,52.9501,0.001901
80.251,52.9501,0.001901
80.268,52.9501,0.001901
80.284,52.9501,0.001901
80.301,52.9501,0.001901
80.316,52.9501,0.001901
80.332,52.9501,0.002598
80.347,52.9501,0.002598
80.368,52.9501,0.002598
80.393,52.9501,0.002598
80.412,52.9501,0.002598
80.428,52.9501,0.002598
80.444,52.9501,0.002598
80.459,52.9501,0.002598
80.486,52.9501,0.002598
80.502,52.9501,0.002598
80.518,52.9501,0.002598
80.534,52.9501,0.002598
80.550,52.9501,0.002598
80.565,52.9501,0.002598
80.581,52.9501,0.003200
80.597,52.9501,0.003200
80.613,52.9501,0.003200
80.630,52.9501,0.003200
80.645,52.9501,0.003200
80.662,52.9501,0.003200
80.678,52.9501,0.003200
80.694,52.9501,0.003200
80.715,52.9501,0.003200
80.746,52.9501,0.003200
80.777,52.9501,0.003200
80.807,52.9501,0.003200
80.838,52.9501,0.003426
80.855,52.9501,0.003426
80.870,52.9501,0.003426
80.901,52.9501,0.003426
80.919,52.9501,0.003426
80.947,52.9501,0.003426
80.966,52.9501,0.003426
80.982,52.9501,0.003426
80.997,52.9501,0.003426
81.014,52.9501,0.003426
81.038,52.9501,0.003426
81.055,52.9501,0.003426
81.070,52.9501,0.003530
81.086,52.9501,0.003530
81.104,52.9501,0.003530
81.119,52.9501,0.003530
81.134,52.9501,0.003530
81.151,52.9501,0.003530
81.166,52.9501,0.003530
81.182,52.9501,0.003530
81.199,52.9501,0.003530
81.214,52.9501,0.003530
81.231,52.9501,0.003530
81.246,52.9501,0.003530
81.262,52.9501,0.003530
81.278,52.9501,0.003530
81.294,52.9501,0.003530
81.311,52.9501,0.003530
81.326,52.9501,0.003596
81.342,52.9501,0.003596
81.359,52.9501,0.003596
81.375,52.9501,0.003596
81.390,52.9501,0.003596
81.407,52.9501,0.003596
81.426,52.9501,0.003596
81.444,52.9501,0.003596
81.473,52.9501,0.003596
81.504,52.9501,0.003596
81.520,52.9501,0.003596
81.536,52.9501,0.003596
81.566,52.9501,0.003596
81.596,52.9501,0.003671
81.612,52.9501,0.003671
81.628,52.9501,0.003671
81.643,52.9501,0.003671
81.667,52.9501,0.003671
81.691,52.9501,0.003671
81.708,52.9501,0.003671
81.723,52.9501,0.003671
81.740,52.9501,0.003671
81.767,52.9501,0.003671
81.787,52.9501,0.003671
81.804,52.9501,0.003671
81.820,52.9501,0.003718
81.836,52.9501,0.003718
81.852,52.9501,0.003718
81.869,52.9501,0.003718
81.890,52.9501,0.003718
81.906,52.9501,0.003718
81.937,52.9501,0.003718
81.967,52.9501,0.003718
81.997,52.9501,0.003718
82.028,52.9501,0.003718
82.043,52.9501,0.003718
82.059,52.9501,0.003718
82.076,52.9501,0.003718
82.091,52.9501,0.003718
82.107,52.9501,0.003718
82.132,52.9501,0.003737
82.148,52.9501,0.003737
82.164,52.9501,0.003737
82.180,52.9501,0.003737
82.196,52.9501,0.003737
82.212,52.9501,0.003737
82.228,52.9501,0.003737
82.244,52.9501,0.003737
82.260,52.9501,0.003737
82.276,52.9501,0.003737
82.293,52.9501,0.003737
82.308,52.9501,0.003737
82.325,52.9501,0.003737
82.341,52.9501,0.003737
82.356,52.9501,0.003718
82.372,52.9501,0.003718
82.391,52.9501,0.003718
82.406,52.9501,0.003718
82.428,52.9501,0.003718
82.459,52.9501,0.003718
82.475,52.9501,0.003718
82.506,52.9501,0.003718
82.521,52.9501,0.003718
82.537,52.9501,0.003718
82.568,52.9501,0.003718
82.583,52.9501,0.003718
82.615,52.9501,0.003728
82.632,52.9501,0.003728
82.662,52.9501,0.003728
82.689,52.9501,0.003728
82.705,52.9501,0.003728
82.721,52.9501,0.003728
82.737,52.9501,0.003728
82.752,52.9501,0.003728
82.769,52.9501,0.003728
82.785,52.9501,0.003728
82.801,52.9501,0.003728
82.818,52.9501,0.003728
82.848,52.9501,0.003737
82.865,52.9501,0.003737
82.881,52.9501,0.003737
82.897,52.9501,0.003737
82.913,52.9501,0.003737
82.929,52.9501,0.003737
82.945,52.9501,0.003737
82.961,52.9501,0.003737
82.977,52.9501,0.003737
82.994,52.9501,0.003737
83.009,52.9501,0.003737
83.025,52.9501,0.003737
83.041,52.9501,0.003737
83.057,52.9501,0.003737
83.073,52.9501,0.003728
83.089,52.9501,0.003728
83.105,52.9501,0.003728
83.121,52.9501,0.003728
83.137,52.9501,0.003728
83.153,52.9501,0.003728
83.169,52.9501,0.003728
83.185,52.9501,0.003728
83.202,52.9501,0.003728
83.231,52.9501,0.003728
83.247,52.9501,0.003728
83.263,52.9501,0.003728
83.279,52.9501,0.003728
83.294,52.9501,0.003728
83.310,52.9501,0.003728
83.327,52.9501,0.003737
83.343,52.9501,0.003737
83.359,52.9501,0.003737
83.376,52.9501,0.003737
83.406,52.9501,0.003737
83.422,52.9501,0.003737
83.439,52.9501,0.003737
83.455,52.9501,0.003737
83.471,52.9501,0.003737
83.487,52.9501,0.003737
83.503,52.9501,0.003737
83.529,52.9501,0.003737
83.559,52.9501,0.003737
83.575,52.9501,0.003737
83.606,52.9501,0.003681
83.637,52.9501,0.003681
83.668,52.9501,0.003681
83.699,52.9501,0.003681
83.729,52.9501,0.003681
83.745,52.9501,0.003681
83.775,52.9501,0.003681
83.790,52.9501,0.003681
83.807,52.9501,0.003681
83.823,52.9501,0.003530
83.838,52.9501,0.003530
83.861,52.9501,0.003530
83.887,52.9501,0.003530
83.903,52.9501,0.003530
83.918,52.9501,0.003530
83.934,52.9501,0.003530
83.950,52.9501,0.003530
83.966,52.9501,0.003530
83.983,52.9501,0.003530
83.999,52.9501,0.003530
84.023,52.9501,0.003530
84.054,52.9501,0.003530
84.085,52.9501,0.003370
84.120,52.9501,0.003370
84.145,52.9501,0.003370
84.161,52.9501,0.003370
84.192,52.9501,0.003370
84.222,52.9499,0.003370
84.239,52.9496,0.003370
84.254,52.9491,0.003370
84.270,52.9483,0.003370
84.286,52.9473,0.003370
84.307,52.9459,0.003370
84.323,52.9444,0.003370
84.340,52.9428,0.003304
84.356,52.9410,0.003304
84.371,52.9392,0.003304
84.387,52.9369,0.003304
84.403,52.9347,0.003304
84.419,52.9321,0.003304
84.436,52.9292,0.003304
84.451,52.9264,0.003304
84.467,52.9234,0.003304
84.484,52.9197,0.003304
84.499,52.9163,0.003304
84.515,52.9129,0.003304
84.533,52.9084,0.003304
84.563,52.9007,0.003304
84.579,52.8960,0.005855
84.596,52.8913,0.005855
84.611,52.8864,0.005855
84.627,52.8815,0.005855
84.643,52.8763,0.005855
84.659,52.8707,0.005855
84.675,52.8651,0.005855
84.692,52.8590,0.005855
84.709,52.8526,0.005855
84.733,52.8430,0.005855
84.764,52.8303,0.005855
84.795,52.8164,0.005855
84.810,52.8097,0.005855
84.834,52.7984,0.011324
84.850,52.7906,0.011324
84.866,52.7828,0.011324
84.882,52.7747,0.011324
84.899,52.7660,0.011324
84.914,52.7578,0.011324
84.930,52.7489,0.011324
84.946,52.7401,0.011324
84.962,52.7310,0.011324
84.978,52.7220,0.011324
84.994,52.7123,0.011324
85.010,52.7024,0.011324
85.026,52.6922,0.011324
85.042,52.6826,0.011324
85.058,52.6723,0.011324
85.075,52.6612,0.011324
85.090,52.6514,0.011324
85.106,52.6404,0.010270
85.122,52.6293,0.010270
85.139,52.6171,0.010270
85.165,52.5986,0.010270
85.187,52.5821,0.010270
85.205,52.5681,0.010270
85.227,52.5516,0.010270
85.257,52.5280,0.010270
85.288,52.5032,0.010270
85.318,52.4778,0.010270
85.335,52.4638,0.010270
85.365,52.4376,0.010270
85.391,52.4143,0.005290
85.406,52.4000,0.005290
85.425,52.3829,0.005290
85.441,52.3677,0.005290
85.457,52.3529,0.005290
85.488,52.3228,0.005290
85.519,52.2927,0.005290
85.535,52.2763,0.005290
85.566,52.2450,0.005290
85.584,52.2270,0.005290
85.613,52.1949,0.004236
85.630,52.1777,0.004236
85.646,52.1598,0.004236
85.662,52.1424,0.004236
85.678,52.1247,0.004236
85.694,52.1070,0.004236
85.712,52.0870,0.004236
85.738,52.0565,0.004236
85.758,52.0330,0.004236
85.775,52.0126,0.004236
85.801,51.9813,0.004236
85.822,51.9560,0.004236
85.838,51.9366,0.004236
85.854,51.9163,0.004236
85.870,51.8967,0.004283
85.886,51.8759,0.004283
85.917,51.8360,0.004283
85.933,51.8154,0.004283
85.949,51.7942,0.004283
85.965,51.7727,0.004283
85.981,51.7518,0.004283
85.997,51.7304,0.004283
86.013,51.7082,0.004283
86.029,51.6863,0.004283
86.046,51.6622,0.004283
86.066,51.6347,0.004283
86.081,51.6124,0.004283
86.097,51.5887,0.004283
86.128,51.5450,0.004321
86.158,51.4994,0.004321
86.189,51.4547,0.004321
86.206,51.4286,0.004321
86.235,51.3830,0.004321
86.253,51.3572,0.004321
86.268,51.3326,0.004321
86.285,51.3070,0.004321
86.300,51.2825,0.004321
86.316,51.2568,0.004321
86.334,51.2280,0.004321
86.359,51.1881,0.004321
86.390,51.1364,0.004405
86.421,51.0859,0.004405
86.453,51.0312,0.004405
86.483,50.9801,0.004405
86.500,50.9498,0.004405
86.529,50.8987,0.004405
86.544,50.8718,0.004405
86.575,50.8165,0.004405
86.607,50.7604,0.004650
86.623,50.7301,0.004650
86.653,50.6742,0.004650
86.669,50.6458,0.004650
86.685,50.6138,0.004650
86.700,50.5867,0.004650
86.716,50.5562,0.004650
86.733,50.5234,0.004650
86.749,50.4927,0.004650
86.765,50.4635,0.004650
86.780,50.4325,0.004650
86.796,50.4016,0.004650
86.813,50.3683,0.004650
86.829,50.3370,0.004650
86.844,50.3066,0.004829
86.860,50.2745,0.004829
86.877,50.2407,0.004829
86.893,50.2089,0.004829
86.908,50.1770,0.004829
86.924,50.1435,0.004829
86.941,50.1086,0.004829
86.963,50.0624,0.004829
86.994,49.9972,0.004829
87.025,49.9332,0.004829
87.055,49.8664,0.004829
87.085,49.8050,0.004980
87.101,49.7726,0.004980
87.116,49.7401,0.004980
87.132,49.7071,0.004980
87.148,49.6741,0.004980
87.168,49.6343,0.004980
87.193,49.5840,0.004980
87.212,49.5448,0.004980
87.230,49.5089,0.004980
87.255,49.4594,0.004980
87.276,49.4176,0.004980
87.293,49.3854,0.004980
87.309,49.3557,0.004980
87.324,49.3254,0.005168
87.340,49.2945,0.005168
87.358,49.2615,0.005168
87.380,49.2204,0.005168
87.395,49.1902,0.005168
87.411,49.1625,0.005168
87.441,49.1075,0.005168
87.457,49.0767,0.005168
87.473,49.0464,0.005168
87.503,48.9948,0.005168
87.531,48.9435,0.005168
87.547,48.9166,0.005168
87.563,48.8889,0.005168
87.579,48.8609,0.005431
87.595,48.8334,0.005431
87.611,48.8058,0.005431
87.627,48.7797,0.005431
87.644,48.7506,0.005431
87.659,48.7251,0.005431
87.675,48.6997,0.005431
87.691,48.6735,0.005431
87.708,48.6453,0.005431
87.723,48.6199,0.005431
87.739,48.5950,0.005431
87.755,48.5696,0.005431
87.772,48.5433,0.005431
87.798,48.5030,0.005431
87.828,48.4546,0.005431
87.843,48.4318,0.005431
87.859,48.4085,0.005431
87.890,48.3611,0.005770
87.921,48.3164,0.005770
87.952,48.2699,0.005770
87.968,48.2481,0.005770
87.984,48.2249,0.005770
88.000,48.2034,0.005770
88.016,48.1800,0.005770
88.047,48.1382,0.005770
88.077,48.0967,0.005770
88.108,48.0560,0.006024
88.123,48.0360,0.006024
88.140,48.0141,0.006024
88.155,47.9941,0.006024
88.171,47.9742,0.006024
88.187,47.9540,0.006024
88.205,47.9311,0.006024
88.225,47.9043,0.006024
88.247,47.8796,0.006024
88.267,47.8547,0.006024
88.283,47.8355,0.006024
88.299,47.8169,0.006024
88.315,47.7983,0.006024
88.331,47.7795,0.006024
88.347,47.7613,0.006024
88.363,47.7437,0.006279
88.379,47.7251,0.006279
88.395,47.7076,0.006279
88.411,47.6902,0.006279
88.427,47.6724,0.006279
88.443,47.6555,0.006279
88.459,47.6378,0.006279
88.475,47.6217,0.006279
88.491,47.6050,0.006279
88.507,47.5883,0.006279
88.524,47.5714,0.006279
88.539,47.5559,0.006279
88.555,47.5407,0.006279
88.571,47.5249,0.006279
88.596,47.5009,0.006542
88.612,47.4851,0.006542
88.629,47.4700,0.006542
88.644,47.4555,0.006542
88.660,47.4414,0.006542
88.676,47.4271,0.006542
88.692,47.4129,0.006542
88.708,47.3984,0.006542
88.724,47.3851,0.006542
88.740,47.3706,0.006542
88.756,47.3579,0.006542
88.772,47.3448,0.006542
88.788,47.3311,0.006542
88.803,47.3190,0.006542
88.821,47.3051,0.006542
88.852,47.2805,0.006787
88.868,47.2691,0.006787
88.885,47.2565,0.006787
88.915,47.2348,0.006787
88.932,47.2229,0.006787
88.948,47.2116,0.006787
88.964,47.2010,0.006787
88.980,47.1900,0.006787
88.997,47.1793,0.006787
89.012,47.1695,0.006787
89.028,47.1592,0.006787
89.044,47.1494,0.006787
89.060,47.1398,0.006787
89.077,47.1292,0.006787
89.101,47.1153,0.006787
89.124,47.1029,0.006975
89.140,47.0939,0.006975
89.155,47.0856,0.006975
89.172,47.0772,0.006975
89.188,47.0688,0.006975
89.204,47.0609,0.006975
89.220,47.0531,0.006975
89.236,47.0456,0.006975
89.252,47.0379,0.006975
89.267,47.0311,0.006975
89.284,47.0239,0.006975
89.299,47.0172,0.006975
89.316,47.0105,0.006975
89.332,47.0038,0.007107
89.347,46.9978,0.007107
89.364,46.9917,0.007107
89.380,46.9855,0.007107
89.410,46.9751,0.007107
89.427,46.9694,0.007107
89.444,46.9643,0.007107
89.459,46.9594,0.007107
89.475,46.9548,0.007107
89.492,46.9501,0.007107
89.519,46.9430,0.007107
89.539,46.9379,0.007107
89.556,46.9341,0.007107
89.572,46.9306,0.007107
89.587,46.9274,0.007192
89.604,46.9241,0.007192
89.620,46.9210,0.007192
89.636,46.9183,0.007192
89.659,46.9147,0.007192
89.679,46.9119,0.007192
89.696,46.9098,0.007192
89.711,46.9080,0.007192
89.727,46.9063,0.007192
89.744,46.9048,0.007192
89.767,46.9031,0.007192
89.782,46.9021,0.007192
89.799,46.9012,0.007192
89.829,46.9003,0.007258
89.845,46.9001,0.007258
89.861,46.9001,0.007258
89.892,46.9001,0.007258
89.922,46.9001,0.007258
89.954,46.9001,0.007258
89.970,46.9001,0.007258
90.005,46.9001,0.007258
90.031,46.9001,0.007258
90.049,46.9001,0.007258
90.079,46.9001,0.007361
90.095,46.9001,0.007361
90.111,46.9001,0.007361
90.127,46.9001,0.007361
90.143,46.9001,0.007361
90.159,46.9001,0.007361
90.176,46.9001,0.007361
90.191,46.9001,0.007361
90.208,46.9001,0.007361
90.231,46.9001,0.007361
90.249,46.9001,0.007361
90.264,46.9001,0.007361
90.280,46.9001,0.007361
90.312,46.9001,0.007361
90.327,46.9001,0.007389
90.343,46.9001,0.007389
90.359,46.9001,0.007389
90.375,46.9001,0.007389
90.391,46.9001,0.007389
90.408,46.9001,0.007389
90.429,46.9001,0.007389
90.453,46.9001,0.007389
90.471,46.9001,0.007389
90.487,46.9001,0.007389
90.503,46.9002,0.007389
90.519,46.9005,0.007389
90.535,46.9008,0.007389
90.551,46.9014,0.007389
90.567,46.9023,0.007389
90.583,46.9033,0.007371
90.599,46.9045,0.007371
90.615,46.9060,0.007371
90.631,46.9076,0.007371
90.647,46.9094,0.007371
90.663,46.9114,0.007371
90.679,46.9135,0.007371
90.695,46.9158,0.007371
90.711,46.9184,0.007371
90.727,46.9213,0.007371
90.743,46.9244,0.007371
90.759,46.9274,0.007371
90.788,46.9337,0.007371
90.807,46.9380,0.007371
90.837,46.9455,0.007267
90.853,46.9499,0.007267
90.883,46.9585,0.007267
90.899,46.9633,0.007267
90.916,46.9688,0.007267
90.946,46.9787,0.007267
90.963,46.9847,0.007267
90.980,46.9906,0.007267
91.008,47.0014,0.007267
91.027,47.0090,0.007267
91.043,47.0157,0.007267
91.059,47.0222,0.007267
91.075,47.0294,0.007192
91.091,47.0365,0.007192
91.107,47.0441,0.007192
91.123,47.0514,0.007192
91.139,47.0591,0.007192
91.155,47.0673,0.007192
91.171,47.0757,0.007192
91.187,47.0835,0.007192
91.203,47.0922,0.007192
91.219,47.1014,0.007192
91.247,47.1170,0.007192
91.267,47.1285,0.007192
91.283,47.1377,0.007192
91.299,47.1475,0.007192
91.315,47.1573,0.007192
91.344,47.1758,0.007116
91.360,47.1866,0.007116
91.376,47.1967,0.007116
91.392,47.2074,0.007116
91.408,47.2188,0.007116
91.424,47.2301,0.007116
91.440,47.2414,0.007116
91.455,47.2527,0.007116
91.472,47.2647,0.007116
91.488,47.2766,0.007116
91.504,47.2889,0.007116
91.521,47.3020,0.007116
91.550,47.3247,0.007116
91.568,47.3395,0.007116
91.584,47.3528,0.007116
91.600,47.3662,0.007116
91.616,47.3796,0.006956
91.631,47.3928,0.006956
91.649,47.4076,0.006956
91.665,47.4217,0.006956
91.680,47.4356,0.006956
91.695,47.4498,0.006956
91.711,47.4644,0.006956
91.727,47.4791,0.006956
91.744,47.4944,0.006956
91.760,47.5109,0.006956
91.776,47.5254,0.006956
91.791,47.5408,0.006956
91.808,47.5567,0.006956
91.824,47.5729,0.006956
91.840,47.5897,0.006956
91.855,47.6053,0.006956
91.884,47.6355,0.006862
91.900,47.6527,0.006862
91.916,47.6696,0.006862
91.932,47.6870,0.006862
91.948,47.7046,0.006862
91.965,47.7232,0.006862
91.980,47.7403,0.006862
91.997,47.7599,0.006862
92.028,47.7955,0.006862
92.044,47.8140,0.006862
92.060,47.8339,0.006862
92.077,47.8525,0.006862
92.093,47.8728,0.006674
92.109,47.8923,0.006674
92.125,47.9115,0.006674
92.140,47.9306,0.006674
92.157,47.9508,0.006674
92.172,47.9705,0.006674
92.190,47.9937,0.006674
92.215,48.0260,0.006674
92.236,48.0539,0.006674
92.253,48.0763,0.006674
92.268,48.0965,0.006674
92.284,48.1181,0.006674
92.300,48.1397,0.006674
92.317,48.1633,0.006674
92.333,48.1853,0.006429
92.348,48.2062,0.006429
92.364,48.2291,0.006429
92.380,48.2523,0.006429
92.396,48.2749,0.006429
92.412,48.2983,0.006429
92.429,48.3220,0.006429
92.445,48.3455,0.006429
92.460,48.3686,0.006429
92.476,48.3930,0.006429
92.493,48.4171,0.006429
92.508,48.4411,0.006429
92.524,48.4658,0.006429
92.540,48.4909,0.006429
92.558,48.5195,0.006429
92.588,48.5648,0.006109
92.605,48.5935,0.006109
92.621,48.6174,0.006109
92.636,48.6426,0.006109
92.652,48.6692,0.006109
92.670,48.6976,0.006109
92.697,48.7425,0.006109
92.717,48.7756,0.006109
92.733,48.8040,0.006109
92.749,48.8311,0.006109
92.765,48.8579,0.006109
92.780,48.8841,0.006109
92.796,48.9126,0.006109
92.812,48.9410,0.006109
92.828,48.9682,0.005789
92.844,48.9969,0.005789
92.861,49.0261,0.005789
92.876,49.0544,0.005789
92.892,49.0830,0.005789
92.908,49.1125,0.005789
92.924,49.1424,0.005789
92.940,49.1711,0.005789
92.972,49.2316,0.005789
92.990,49.2652,0.005789
93.005,49.2942,0.005789
93.036,49.3548,0.005789
93.052,49.3839,0.005789
93.083,49.4437,0.005544
93.101,49.4790,0.005544
93.130,49.5376,0.005544
93.147,49.5712,0.005544
93.163,49.6040,0.005544
93.179,49.6368,0.005544
93.195,49.6692,0.005544
93.211,49.7020,0.005544
93.228,49.7365,0.005544
93.255,49.7938,0.005544
93.275,49.8346,0.005544
93.291,49.8706,0.005544
93.307,49.9028,0.005544
93.323,49.9362,0.005262
93.340,49.9734,0.005262
93.355,50.0046,0.005262
93.371,50.0370,0.005262
93.387,50.0700,0.005262
93.403,50.1032,0.005262
93.420,50.1399,0.005262
93.440,50.1815,0.005262
93.472,50.2452,0.005262
93.496,50.2919,0.005262
93.512,50.3234,0.005262
93.528,50.3555,0.005262
93.544,50.3856,0.005262
93.560,50.4181,0.005262
93.576,50.4493,0.005017
93.592,50.4790,0.005017
93.608,50.5093,0.005017
93.624,50.5412,0.005017
93.640,50.5708,0.005017
93.656,50.6009,0.005017
93.675,50.6364,0.005017
93.702,50.6844,0.005017
93.720,50.7183,0.005017
93.737,50.7490,0.005017
93.764,50.7965,0.005017
93.784,50.8321,0.005017
93.800,50.8606,0.005017
93.816,50.8903,0.005017
93.832,50.9160,0.004838
93.848,50.9445,0.004838
93.865,50.9743,0.004838
93.880,50.9992,0.004838
93.896,51.0255,0.004838
93.912,51.0538,0.004838
93.929,51.0805,0.004838
93.949,51.1148,0.004838
93.980,51.1665,0.004838
93.996,51.1908,0.004838
94.013,51.2181,0.004838
94.044,51.2679,0.004838
94.075,51.3151,0.004678
94.090,51.3385,0.004678
94.106,51.3638,0.004678
94.121,51.3865,0.004678
94.152,51.4336,0.004678
94.171,51.4619,0.004678
94.199,51.5023,0.004678
94.216,51.5263,0.004678
94.232,51.5496,0.004678
94.248,51.5723,0.004678
94.264,51.5944,0.004678
94.280,51.6164,0.004678
94.301,51.6461,0.004678
94.322,51.6763,0.004678
94.343,51.7040,0.004490
94.360,51.7263,0.004490
94.376,51.7467,0.004490
94.392,51.7678,0.004490
94.407,51.7886,0.004490
94.428,51.8164,0.004490
94.445,51.8376,0.004490
94.477,51.8776,0.004490
94.506,51.9139,0.004490
94.537,51.9503,0.004490
94.553,51.9698,0.004490
94.569,51.9881,0.004490
94.596,52.0195,0.004302
94.612,52.0389,0.004302
94.631,52.0602,0.004302
94.661,52.0937,0.004302
94.692,52.1272,0.004302
94.707,52.1438,0.004302
94.725,52.1624,0.004302
94.754,52.1928,0.004302
94.772,52.2109,0.004302
94.789,52.2279,0.004302
94.816,52.2557,0.004095
94.836,52.2746,0.004095
94.851,52.2899,0.004095
94.868,52.3060,0.004095
94.883,52.3204,0.004095
94.900,52.3354,0.004095
94.916,52.3507,0.004095
94.932,52.3649,0.004095
94.947,52.3786,0.004095
94.964,52.3930,0.004095
94.980,52.4070,0.004095
94.995,52.4202,0.004095
95.011,52.4339,0.004095
95.027,52.4473,0.004095
95.044,52.4608,0.004095
95.059,52.4734,0.004095
95.076,52.4863,0.003991
95.091,52.4987,0.003991
95.119,52.5197,0.003991
95.135,52.5317,0.003991
95.151,52.5440,0.003991
95.167,52.5556,0.003991
95.183,52.5667,0.003991
95.198,52.5775,0.003991
95.215,52.5897,0.003991
95.231,52.6002,0.003991
95.251,52.6141,0.003991
95.282,52.6339,0.003991
95.314,52.6533,0.003991
95.329,52.6625,0.003859
95.361,52.6816,0.003859
95.390,52.6982,0.003859
95.411,52.7092,0.003859
95.437,52.7229,0.003859
95.454,52.7318,0.003859
95.471,52.7401,0.003859
95.499,52.7535,0.003859
95.518,52.7625,0.003859
95.534,52.7697,0.003859
95.551,52.7772,0.003859
95.567,52.7836,0.003859
95.582,52.7901,0.003530
95.599,52.7967,0.003530
95.614,52.8027,0.003530
95.642,52.8134,0.003530
95.658,52.8190,0.003530
95.676,52.8251,0.003530
95.700,52.8331,0.003530
95.721,52.8394,0.003530
95.738,52.8447,0.003530
95.753,52.8489,0.003530
95.769,52.8533,0.003530
95.785,52.8574,0.003530
95.801,52.8614,0.003530
95.817,52.8651,0.003530
95.836,52.8693,0.003530
95.854,52.8733,0.003530
95.870,52.8762,0.003530
95.900,52.8816,0.002880
95.916,52.8842,0.002880
95.947,52.8887,0.002880
95.966,52.8909,0.002880
95.993,52.8939,0.002880
96.010,52.8954,0.002880
96.026,52.8966,0.002880
96.041,52.8976,0.002880
96.057,52.8985,0.002880
96.073,52.8992,0.002880
96.089,52.8997,0.002880
96.105,52.9000,0.001977
96.121,52.9001,0.001977
96.141,52.9001,0.001977
96.163,52.9001,0.001977
96.193,52.9001,0.001977
96.214,52.9001,0.001977
96.230,52.9001,0.001977
96.246,52.9001,0.001977
96.262,52.9001,0.001977
96.278,52.9001,0.001977
96.294,52.9001,0.001977
96.310,52.9001,0.001977
96.326,52.9001,0.001977
96.342,52.9001,0.001977
96.358,52.9001,0.002071
96.374,52.9001,0.002071
96.391,52.9001,0.002071
96.408,52.9001,0.002071
96.427,52.9001,0.002071
96.457,52.9001,0.002071
96.474,52.9001,0.002071
96.505,52.9001,0.002071
96.520,52.9001,0.002071
96.536,52.9001,0.002071
96.551,52.9001,0.002071
96.582,52.9001,0.002946
96.599,52.9001,0.002946
96.614,52.9001,0.002946
96.630,52.9001,0.002946
96.653,52.9001,0.002946
96.675,52.9001,0.002946
