Elapsed Time (s),Position (mm),Force (N)
-0.021,60.9501,0.001186
0.001,60.9501,0.001186
0.026,60.9501,0.001186
0.046,60.9501,0.001186
0.062,60.9501,0.001186
0.078,60.9501,0.001186
0.094,60.9501,0.001186
0.110,60.9501,0.001186
0.125,60.9501,0.001186
0.141,60.9501,0.001186
0.157,60.9501,0.001261
0.175,60.9501,0.001261
0.194,60.9501,0.001261
0.209,60.9501,0.001261
0.240,60.9501,0.001261
0.270,60.9501,0.001261
0.289,60.9501,0.001261
0.318,60.9501,0.001261
0.349,60.9501,0.001261
0.366,60.9501,0.001261
0.395,60.9501,0.001261
0.412,60.9501,0.001261
0.428,60.9501,0.001261
0.452,60.9501,0.001365
0.473,60.9501,0.001365
0.492,60.9501,0.001365
0.508,60.9501,0.001365
0.524,60.9501,0.001365
0.544,60.9501,0.001365
0.566,60.9501,0.001365
0.597,60.9501,0.001365
0.627,60.9501,0.001365
0.642,60.9501,0.001365
0.657,60.9501,0.001365
0.689,60.9501,0.001365
0.719,60.9501,0.001346
0.749,60.9501,0.001346
0.781,60.9501,0.001346
0.796,60.9501,0.001346
0.813,60.9501,0.001346
0.828,60.9501,0.001346
0.846,60.9501,0.001346
0.874,60.9501,0.001346
0.892,60.9501,0.001346
0.909,60.9501,0.001346
0.935,60.9501,0.001384
0.956,60.9501,0.001384
0.972,60.9501,0.001384
0.989,60.9501,0.001384
1.004,60.9501,0.001384
1.020,60.9501,0.001384
1.037,60.9501,0.001384
1.053,60.9501,0.001384
1.068,60.9501,0.001384
1.085,60.9501,0.001384
1.100,60.9501,0.001384
1.116,60.9501,0.001384
1.132,60.9501,0.001384
1.148,60.9501,0.001384
1.164,60.9501,0.001384
1.181,60.9501,0.001374
1.196,60.9501,0.001374
1.212,60.9501,0.001374
1.229,60.9501,0.001374
1.245,60.9501,0.001374
1.260,60.9501,0.001374
1.277,60.9501,0.001374
1.292,60.9501,0.001374
1.308,60.9501,0.001374
1.324,60.9501,0.001374
1.342,60.9501,0.001374
1.369,60.9501,0.001374
1.388,60.9501,0.001374
1.404,60.9501,0.001374
1.421,60.9501,0.001346
1.447,60.9501,0.001346
1.478,60.9501,0.001346
1.509,60.9501,0.001346
1.538,60.9501,0.001346
1.569,60.9501,0.001346
1.584,60.9501,0.001346
1.602,60.9501,0.001346
1.631,60.9501,0.001346
1.663,60.9501,0.001346
1.693,60.9501,0.001374
1.726,60.9501,0.001374
1.755,60.9501,0.001374
1.772,60.9501,0.001374
1.789,60.9501,0.001374
1.817,60.9501,0.001374
1.836,60.9501,0.001374
1.855,60.9501,0.001374
1.879,60.9501,0.001374
1.900,60.9501,0.001374
1.917,60.9501,0.001374
1.941,60.9501,0.001374
1.972,60.9501,0.001384
2.003,60.9501,0.001384
2.034,60.9501,0.001384
2.051,60.9501,0.001384
2.081,60.9501,0.001384
2.112,60.9501,0.001384
2.142,60.9501,0.001384
2.173,60.9501,0.001384
2.188,60.9501,0.001365
2.204,60.9501,0.001365
2.220,60.9501,0.001365
2.236,60.9501,0.001365
2.252,60.9501,0.001365
2.268,60.9501,0.001365
2.284,60.9501,0.001365
2.300,60.9501,0.001365
2.316,60.9501,0.001365
2.332,60.9501,0.001365
2.348,60.9501,0.001365
2.364,60.9501,0.001365
2.380,60.9501,0.001365
2.396,60.9501,0.001365
2.412,60.9501,0.001365
2.428,60.9501,0.001365
2.444,60.9501,0.001365
2.460,60.9501,0.001365
2.488,60.9501,0.001365
2.503,60.9501,0.001365
2.519,60.9501,0.001365
2.535,60.9501,0.001365
2.552,60.9501,0.001365
2.572,60.9501,0.001365
2.587,60.9501,0.001365
2.603,60.9501,0.001365
2.635,60.9501,0.001365
2.666,60.9501,0.001365
2.681,60.9501,0.001384
2.712,60.9501,0.001384
2.728,60.9501,0.001384
2.743,60.9501,0.001384
2.759,60.9501,0.001384
2.777,60.9501,0.001384
2.804,60.9501,0.001384
2.823,60.9501,0.001384
2.839,60.9501,0.001384
2.855,60.9501,0.001384
2.871,60.9501,0.001384
2.887,60.9501,0.001384
2.903,60.9501,0.001384
2.920,60.9501,0.001384
2.944,60.9501,0.001374
2.975,60.9501,0.001374
2.991,60.9501,0.001374
3.021,60.9501,0.001374
3.037,60.9501,0.001374
3.053,60.9501,0.001374
3.083,60.9501,0.001374
3.113,60.9501,0.001374
3.144,60.9501,0.001374
3.159,60.9501,0.001346
3.174,60.9501,0.001346
3.191,60.9501,0.001346
3.207,60.9501,0.001346
3.237,60.9501,0.001346
3.256,60.9501,0.001346
3.271,60.9501,0.001346
3.287,60.9501,0.001346
3.303,60.9501,0.001346
3.319,60.9501,0.001346
3.335,60.9501,0.001346
3.351,60.9501,0.001346
3.367,60.9501,0.001346
3.383,60.9501,0.001346
3.399,60.9501,0.001346
3.414,60.9501,0.001337
3.431,60.9501,0.001337
3.448,60.9501,0.001337
3.470,60.9501,0.001337
3.501,60.9501,0.001337
3.532,60.9501,0.001337
3.562,60.9501,0.001337
3.578,60.9501,0.001337
3.595,60.9501,0.001337
3.625,60.9501,0.001337
3.641,60.9501,0.001337
3.671,60.9501,0.001308
3.687,60.9501,0.001308
3.703,60.9501,0.001308
3.718,60.9501,0.001308
3.736,60.9501,0.001308
3.751,60.9501,0.001308
3.766,60.9501,0.001308
3.783,60.9501,0.001308
3.798,60.9501,0.001308
3.815,60.9501,0.001308
3.830,60.9501,0.001308
3.846,60.9501,0.001308
3.862,60.9501,0.001308
3.879,60.9501,0.001308
3.895,60.9501,0.001308
3.910,60.9501,0.001233
3.927,60.9501,0.001233
3.943,60.9501,0.001233
3.958,60.9501,0.001233
3.974,60.9501,0.001233
3.991,60.9501,0.001233
4.007,60.9501,0.001233
4.022,60.9501,0.001233
4.041,60.9501,0.001233
4.059,60.9501,0.001233
4.090,60.9501,0.001233
4.106,60.9501,0.001233
4.137,60.9501,0.001233
4.152,60.9501,0.001233
4.170,60.9498,0.001233
4.200,60.9490,0.001177
4.230,60.9475,0.001177
4.247,60.9462,0.001177
4.262,60.9450,0.001177
4.279,60.9434,0.001177
4.300,60.9411,0.001177
4.323,60.9383,0.001177
4.342,60.9356,0.001177
4.359,60.9331,0.001177
4.375,60.9304,0.001177
4.391,60.9276,0.001177
4.406,60.9245,0.001177
4.422,60.9214,0.001177
4.439,60.9178,0.001177
4.454,60.9141,0.001327
4.470,60.9105,0.001327
4.487,60.9064,0.001327
4.502,60.9023,0.001327
4.518,60.8980,0.001327
4.534,60.8933,0.001327
4.551,60.8884,0.001327
4.566,60.8836,0.001327
4.582,60.8784,0.001327
4.598,60.8731,0.001327
4.614,60.8672,0.001327
4.630,60.8618,0.001327
4.646,60.8557,0.001327
4.662,60.8495,0.001327
4.678,60.8430,0.001327
4.694,60.8367,0.003332
4.710,60.8299,0.003332
4.726,60.8230,0.003332
4.742,60.8160,0.003332
4.758,60.8086,0.003332
4.774,60.8012,0.003332
4.793,60.7921,0.003332
4.816,60.7803,0.003332
4.838,60.7691,0.003332
4.854,60.7607,0.003332
4.870,60.7520,0.003332
4.886,60.7435,0.003332
4.902,60.7340,0.003332
4.918,60.7247,0.003332
4.934,60.7154,0.004481
4.950,60.7060,0.004481
4.966,60.6960,0.004481
4.982,60.6860,0.004481
4.998,60.6760,0.004481
5.013,60.6656,0.004481
5.030,60.6550,0.004481
5.046,60.6439,0.004481
5.062,60.6331,0.004481
5.078,60.6215,0.004481
5.095,60.6100,0.004481
5.110,60.5985,0.004481
5.126,60.5873,0.004481
5.142,60.5754,0.004481
5.160,60.5614,0.004481
5.187,60.5407,0.004481
5.206,60.5255,0.002673
5.222,60.5125,0.002673
5.238,60.4997,0.002673
5.254,60.4860,0.002673
5.270,60.4725,0.002673
5.286,60.4584,0.002673
5.302,60.4453,0.002673
5.318,60.4303,0.002673
5.334,60.4165,0.002673
5.350,60.4020,0.002673
5.366,60.3869,0.002673
5.382,60.3730,0.002673
5.398,60.3577,0.002673
5.414,60.3417,0.002673
5.431,60.3264,0.001591
5.446,60.3116,0.001591
5.461,60.2959,0.001591
5.478,60.2794,0.001591
5.494,60.2630,0.001591
5.510,60.2471,0.001591
5.526,60.2294,0.001591
5.542,60.2135,0.001591
5.558,60.1956,0.001591
5.573,60.1795,0.001591
5.591,60.1605,0.001591
5.620,60.1281,0.001591
5.638,60.1087,0.001591
5.654,60.0895,0.001591
5.670,60.0716,0.001591
5.686,60.0539,0.001600
5.702,60.0347,0.001600
5.718,60.0159,0.001600
5.739,59.9906,0.001600
5.756,59.9700,0.001600
5.777,59.9447,0.001600
5.793,59.9239,0.001600
5.824,59.8855,0.001600
5.855,59.8450,0.001600
5.885,59.8065,0.001600
5.917,59.7633,0.001600
5.939,59.7339,0.001619
5.962,59.7028,0.001619
5.979,59.6796,0.001619
5.994,59.6580,0.001619
6.011,59.6348,0.001619
6.027,59.6112,0.001619
6.044,59.5881,0.001619
6.059,59.5665,0.001619
6.075,59.5419,0.001619
6.092,59.5179,0.001619
6.118,59.4803,0.001619
6.138,59.4488,0.001619
6.154,59.4243,0.001619
6.171,59.3992,0.001619
6.186,59.3752,0.001704
6.203,59.3499,0.001704
6.220,59.3240,0.001704
6.235,59.2998,0.001704
6.250,59.2751,0.001704
6.273,59.2382,0.001704
6.290,59.2111,0.001704
6.318,59.1658,0.001704
6.337,59.1335,0.001704
6.354,59.1067,0.001704
6.370,59.0784,0.001704
6.385,59.0531,0.001704
6.402,59.0247,0.001704
6.417,58.9987,0.001704
6.434,58.9700,0.001789
6.449,58.9434,0.001789
6.467,58.9095,0.001789
6.485,58.8805,0.001789
6.505,58.8438,0.001789
6.520,58.8180,0.001789
6.536,58.7886,0.001789
6.567,58.7334,0.001789
6.598,58.6742,0.001789
6.614,58.6451,0.001789
6.645,58.5884,0.001789
6.661,58.5577,0.001789
6.691,58.4996,0.001873
6.722,58.4389,0.001873
6.737,58.4102,0.001873
6.753,58.3778,0.001873
6.774,58.3374,0.001873
6.798,58.2877,0.001873
6.816,58.2528,0.001873
6.844,58.1956,0.001873
6.862,58.1604,0.001873
6.878,58.1268,0.001873
6.893,58.0953,0.001873
6.910,58.0597,0.001873
6.926,58.0276,0.001873
6.941,57.9942,0.001939
6.957,57.9605,0.001939
6.974,57.9245,0.001939
6.990,57.8909,0.001939
7.005,57.8583,0.001939
7.022,57.8239,0.001939
7.038,57.7903,0.001939
7.053,57.7580,0.001939
7.070,57.7240,0.001939
7.086,57.6891,0.001939
7.110,57.6396,0.001939
7.140,57.5795,0.001939
7.172,57.5162,0.001939
7.201,57.4581,0.001836
7.236,57.3895,0.001836
7.263,57.3384,0.001836
7.294,57.2785,0.001836
7.324,57.2224,0.001836
7.343,57.1866,0.001836
7.370,57.1370,0.001836
7.390,57.0998,0.001836
7.405,57.0717,0.001836
7.422,57.0419,0.001892
7.438,57.0130,0.001892
7.455,56.9833,0.001892
7.478,56.9425,0.001892
7.509,56.8863,0.001892
7.541,56.8341,0.001892
7.571,56.7810,0.001892
7.590,56.7484,0.001892
7.617,56.7043,0.001892
7.648,56.6534,0.001892
7.679,56.6040,0.002043
7.695,56.5771,0.002043
7.710,56.5543,0.002043
7.726,56.5295,0.002043
7.757,56.4810,0.002043
7.778,56.4490,0.002043
7.803,56.4106,0.002043
7.821,56.3827,0.002043
7.847,56.3440,0.002043
7.863,56.3203,0.002043
7.879,56.2980,0.002043
7.895,56.2746,0.002043
7.911,56.2515,0.002043
7.927,56.2288,0.002156
7.943,56.2061,0.002156
7.959,56.1836,0.002156
7.975,56.1619,0.002156
7.991,56.1387,0.002156
8.007,56.1181,0.002156
8.023,56.0967,0.002156
8.040,56.0738,0.002156
8.064,56.0419,0.002156
8.095,56.0017,0.002156
8.110,55.9817,0.002156
8.126,55.9615,0.002156
8.142,55.9410,0.002156
8.173,55.9037,0.002240
8.189,55.8840,0.002240
8.205,55.8638,0.002240
8.235,55.8279,0.002240
8.252,55.8076,0.002240
8.281,55.7737,0.002240
8.312,55.7390,0.002240
8.327,55.7220,0.002240
8.343,55.7044,0.002240
8.371,55.6740,0.002240
8.388,55.6560,0.002240
8.403,55.6396,0.002240
8.418,55.6233,0.002325
8.436,55.6050,0.002325
8.456,55.5845,0.002325
8.483,55.5574,0.002325
8.500,55.5404,0.002325
8.530,55.5112,0.002325
8.547,55.4954,0.002325
8.564,55.4797,0.002325
8.579,55.4649,0.002325
8.595,55.4506,0.002325
8.611,55.4351,0.002325
8.627,55.4217,0.002325
8.643,55.4077,0.002325
8.662,55.3910,0.002438
8.686,55.3708,0.002438
8.706,55.3536,0.002438
8.723,55.3400,0.002438
8.739,55.3269,0.002438
8.755,55.3141,0.002438
8.771,55.3013,0.002438
8.786,55.2898,0.002438
8.803,55.2774,0.002438
8.819,55.2652,0.002438
8.834,55.2537,0.002438
8.851,55.2418,0.002438
8.867,55.2304,0.002438
8.894,55.2116,0.002438
8.909,55.2008,0.002438
8.926,55.1899,0.002438
8.941,55.1796,0.002542
8.958,55.1691,0.002542
8.973,55.1593,0.002542
8.990,55.1490,0.002542
9.006,55.1391,0.002542
9.021,55.1302,0.002542
9.038,55.1206,0.002542
9.053,55.1116,0.002542
9.070,55.1025,0.002542
9.085,55.0939,0.002542
9.101,55.0854,0.002542
9.117,55.0769,0.002542
9.133,55.0685,0.002542
9.150,55.0607,0.002542
9.166,55.0528,0.002607
9.183,55.0445,0.002607
9.213,55.0312,0.002607
9.230,55.0236,0.002607
9.246,55.0168,0.002607
9.262,55.0102,0.002607
9.277,55.0039,0.002607
9.293,54.9977,0.002607
9.315,54.9895,0.002607
9.336,54.9817,0.002607
9.358,54.9745,0.002607
9.374,54.9690,0.002607
9.389,54.9642,0.002607
9.405,54.9594,0.002607
9.429,54.9524,0.002607
9.446,54.9476,0.002607
9.474,54.9404,0.002607
9.493,54.9359,0.002607
9.520,54.9300,0.002607
9.540,54.9258,0.002607
9.558,54.9225,0.002607
9.583,54.9182,0.002607
9.614,54.9132,0.002607
9.643,54.9095,0.002607
9.674,54.9062,0.002655
9.705,54.9036,0.002655
9.736,54.9017,0.002655
9.766,54.9006,0.002655
9.798,54.9001,0.002655
9.829,54.9001,0.002655
9.846,54.9001,0.002655
9.875,54.9001,0.002655
9.893,54.9001,0.002655
9.908,54.9001,0.002655
9.925,54.9001,0.002655
9.940,54.9001,0.002655
9.969,54.9001,0.002720
9.990,54.9001,0.002720
10.014,54.9001,0.002720
10.033,54.9001,0.002720
10.049,54.9001,0.002720
10.065,54.9001,0.002720
10.080,54.9001,0.002720
10.097,54.9001,0.002720
10.112,54.9001,0.002720
10.128,54.9001,0.002720
10.144,54.9001,0.002720
10.162,54.9001,0.002720
10.185,54.9001,0.002720
10.217,54.9001,0.002767
10.247,54.9001,0.002767
10.278,54.9001,0.002767
10.294,54.9001,0.002767
10.324,54.9001,0.002767
10.340,54.9001,0.002767
10.371,54.9001,0.002767
10.386,54.9001,0.002767
10.402,54.9001,0.002767
10.417,54.9001,0.002767
10.449,54.9001,0.002833
10.466,54.9001,0.002833
10.495,54.9001,0.002833
10.523,54.9001,0.002833
10.540,54.9001,0.002833
10.555,54.9003,0.002833
10.572,54.9008,0.002833
10.603,54.9022,0.002833
10.619,54.9033,0.002833
10.635,54.9044,0.002833
10.651,54.9059,0.002833
10.667,54.9075,0.002833
10.683,54.9093,0.002833
10.699,54.9113,0.002833
10.715,54.9136,0.002833
10.731,54.9158,0.002833
10.747,54.9184,0.002833
10.763,54.9211,0.002833
10.780,54.9243,0.002833
10.806,54.9295,0.002833
10.827,54.9342,0.002833
10.843,54.9380,0.002833
10.859,54.9418,0.002833
10.876,54.9462,0.002833
10.899,54.9527,0.002833
10.916,54.9571,0.002833
10.945,54.9662,0.002655
10.963,54.9719,0.002655
10.992,54.9818,0.002655
11.023,54.9934,0.002655
11.046,55.0019,0.002655
11.062,55.0085,0.002655
11.078,55.0148,0.002655
11.094,55.0220,0.002655
11.110,55.0286,0.002655
11.125,55.0356,0.002655
11.142,55.0432,0.002655
11.158,55.0509,0.002655
11.174,55.0582,0.002617
11.190,55.0663,0.002617
11.206,55.0745,0.002617
11.223,55.0831,0.002617
11.243,55.0941,0.002617
11.274,55.1114,0.002617
11.290,55.1207,0.002617
11.321,55.1386,0.002617
11.337,55.1481,0.002617
11.367,55.1675,0.002617
11.382,55.1772,0.002617
11.399,55.1876,0.002617
11.414,55.1975,0.002617
11.430,55.2083,0.002598
11.446,55.2196,0.002598
11.462,55.2312,0.002598
11.478,55.2420,0.002598
11.494,55.2537,0.002598
11.510,55.2656,0.002598
11.527,55.2781,0.002598
11.555,55.2997,0.002598
11.574,55.3146,0.002598
11.591,55.3280,0.002598
11.617,55.3492,0.002598
11.638,55.3675,0.002598
11.654,55.3808,0.002598
11.670,55.3946,0.002513
11.686,55.4078,0.002513
11.702,55.4227,0.002513
11.717,55.4362,0.002513
11.733,55.4508,0.002513
11.750,55.4660,0.002513
11.766,55.4811,0.002513
11.782,55.4957,0.002513
11.798,55.5108,0.002513
11.814,55.5262,0.002513
11.829,55.5419,0.002513
11.846,55.5587,0.002513
11.862,55.5739,0.002513
11.879,55.5914,0.002513
11.901,55.6143,0.002513
11.925,55.6393,0.002447
11.942,55.6577,0.002447
11.958,55.6754,0.002447
11.974,55.6924,0.002447
11.990,55.7096,0.002447
12.005,55.7275,0.002447
12.022,55.7463,0.002447
12.039,55.7650,0.002447
12.063,55.7931,0.002447
12.097,55.8329,0.002447
12.117,55.8571,0.002447
12.134,55.8769,0.002447
12.149,55.8964,0.002447
12.165,55.9161,0.002447
12.182,55.9359,0.002363
12.197,55.9562,0.002363
12.213,55.9765,0.002363
12.230,55.9972,0.002363
12.246,56.0184,0.002363
12.261,56.0385,0.002363
12.279,56.0621,0.002363
12.309,56.1024,0.002363
12.325,56.1236,0.002363
12.341,56.1468,0.002363
12.358,56.1690,0.002363
12.387,56.2100,0.002363
12.406,56.2363,0.002363
12.433,56.2753,0.002250
12.453,56.3047,0.002250
12.470,56.3287,0.002250
12.485,56.3512,0.002250
12.502,56.3756,0.002250
12.518,56.3995,0.002250
12.534,56.4237,0.002250
12.549,56.4478,0.002250
12.565,56.4717,0.002250
12.581,56.4966,0.002250
12.597,56.5219,0.002250
12.613,56.5467,0.002250
12.629,56.5723,0.002250
12.645,56.5983,0.002250
12.670,56.6387,0.002146
12.687,56.6657,0.002146
12.702,56.6901,0.002146
12.718,56.7169,0.002146
12.735,56.7447,0.002146
12.750,56.7701,0.002146
12.766,56.7973,0.002146
12.784,56.8268,0.002146
12.804,56.8614,0.002146
12.834,56.9153,0.002146
12.864,56.9669,0.002146
12.880,56.9961,0.002146
12.911,57.0540,0.002146
12.942,57.1071,0.002052
12.965,57.1506,0.002052
12.990,57.1964,0.002052
13.007,57.2264,0.002052
13.023,57.2570,0.002052
13.038,57.2861,0.002052
13.054,57.3166,0.002052
13.070,57.3474,0.002052
13.089,57.3856,0.002052
13.112,57.4293,0.002052
13.142,57.4886,0.002052
13.174,57.5513,0.002052
13.205,57.6138,0.001977
13.235,57.6761,0.001977
13.250,57.7086,0.001977
13.282,57.7717,0.001977
13.298,57.8051,0.001977
13.328,57.8712,0.001977
13.344,57.9018,0.001977
13.360,57.9362,0.001977
13.378,57.9788,0.001977
13.406,58.0340,0.001864
13.422,58.0675,0.001864
13.439,58.1029,0.001864
13.469,58.1636,0.001864
13.486,58.1982,0.001864
13.503,58.2317,0.001864
13.518,58.2629,0.001864
13.534,58.2937,0.001864
13.550,58.3256,0.001864
13.566,58.3585,0.001864
13.582,58.3880,0.001864
13.598,58.4195,0.001864
13.614,58.4511,0.001864
13.630,58.4825,0.001864
13.646,58.5135,0.001864
13.662,58.5418,0.001798
13.678,58.5721,0.001798
13.694,58.6032,0.001798
13.710,58.6315,0.001798
13.726,58.6613,0.001798
13.748,58.7020,0.001798
13.764,58.7312,0.001798
13.780,58.7593,0.001798
13.796,58.7887,0.001798
13.813,58.8185,0.001798
13.828,58.8460,0.001798
13.844,58.8740,0.001798
13.860,58.9017,0.001798
13.876,58.9295,0.001798
13.892,58.9569,0.001798
13.908,58.9855,0.001817
13.924,59.0105,0.001817
13.940,59.0386,0.001817
13.956,59.0648,0.001817
13.972,59.0908,0.001817
13.988,59.1174,0.001817
14.004,59.1445,0.001817
14.020,59.1703,0.001817
14.036,59.1959,0.001817
14.052,59.2218,0.001817
14.068,59.2470,0.001817
14.084,59.2714,0.001817
14.100,59.2966,0.001817
14.116,59.3224,0.001817
14.132,59.3468,0.001817
14.148,59.3711,0.001817
14.164,59.3954,0.001723
14.180,59.4202,0.001723
14.196,59.4433,0.001723
14.212,59.4664,0.001723
14.228,59.4912,0.001723
14.244,59.5134,0.001723
14.259,59.5362,0.001723
14.287,59.5760,0.001723
14.304,59.5990,0.001723
14.319,59.6207,0.001723
14.336,59.6436,0.001723
14.352,59.6658,0.001723
14.367,59.6871,0.001723
14.384,59.7092,0.001723
14.400,59.7311,0.001723
14.420,59.7586,0.001723
14.441,59.7846,0.001723
14.456,59.8041,0.001723
14.488,59.8443,0.001666
14.519,59.8830,0.001666
14.534,59.9026,0.001666
14.565,59.9400,0.001666
14.581,59.9589,0.001666
14.612,59.9958,0.001666
14.642,60.0304,0.001666
14.658,60.0484,0.001666
14.688,60.0829,0.001666
14.703,60.0995,0.001666
14.720,60.1174,0.001666
14.736,60.1345,0.001666
14.751,60.1512,0.001666
14.767,60.1684,0.001666
14.784,60.1852,0.001666
14.799,60.2016,0.001666
14.816,60.2183,0.001666
14.841,60.2441,0.001666
14.857,60.2599,0.001666
14.873,60.2758,0.001666
14.890,60.2913,0.001666
14.906,60.3073,0.001666
14.922,60.3220,0.001666
14.949,60.3472,0.001581
14.969,60.3658,0.001581
14.986,60.3801,0.001581
15.001,60.3938,0.001581
15.018,60.4081,0.001581
15.033,60.4216,0.001581
15.049,60.4348,0.001581
15.066,60.4489,0.001581
15.082,60.4615,0.001581
15.098,60.4746,0.001581
15.114,60.4878,0.001581
15.129,60.4995,0.001581
15.146,60.5122,0.001581
15.162,60.5246,0.001581
15.178,60.5363,0.001581
15.193,60.5477,0.001516
15.210,60.5600,0.001516
15.225,60.5709,0.001516
15.241,60.5823,0.001516
15.257,60.5934,0.001516
15.273,60.6039,0.001516
15.289,60.6145,0.001516
15.306,60.6254,0.001516
15.322,60.6354,0.001516
15.338,60.6457,0.001516
15.353,60.6552,0.001516
15.369,60.6647,0.001516
15.399,60.6823,0.001516
15.416,60.6917,0.001516
15.432,60.7004,0.001516
15.447,60.7090,0.001516
15.465,60.7183,0.001516
15.486,60.7291,0.001516
15.508,60.7401,0.001516
15.528,60.7498,0.001516
15.543,60.7571,0.001516
15.560,60.7645,0.001516
15.575,60.7715,0.001516
15.592,60.7788,0.001516
15.608,60.7854,0.001516
15.623,60.7918,0.001516
15.639,60.7981,0.001516
15.656,60.8047,0.001516
15.677,60.8128,0.001516
15.708,60.8236,0.001450
15.730,60.8309,0.001450
15.752,60.8376,0.001450
15.767,60.8422,0.001450
15.783,60.8469,0.001450
15.799,60.8514,0.001450
15.815,60.8557,0.001450
15.835,60.8605,0.001450
15.862,60.8670,0.001450
15.879,60.8707,0.001450
15.896,60.8741,0.001450
15.911,60.8770,0.001450
15.927,60.8800,0.001450
15.958,60.8850,0.001280
15.974,60.8873,0.001280
15.990,60.8896,0.001280
16.006,60.8913,0.001280
16.026,60.8935,0.001280
16.051,60.8958,0.001280
16.070,60.8972,0.001280
16.086,60.8981,0.001280
16.102,60.8989,0.001280
16.118,60.8995,0.001280
16.134,60.8998,0.001280
16.150,60.9001,0.001280
16.166,60.9001,0.001280
16.182,60.9001,0.001111
16.198,60.9001,0.001111
16.214,60.9001,0.001111
16.231,60.9001,0.001111
16.247,60.9001,0.001111
16.262,60.9001,0.001111
16.278,60.9001,0.001111
16.294,60.9001,0.001111
16.310,60.9001,0.001111
16.327,60.9001,0.001111
16.343,60.9001,0.001111
16.358,60.9001,0.001111
16.374,60.9001,0.001111
16.391,60.9001,0.001111
16.421,60.9001,0.001120
16.438,60.9001,0.001120
16.455,60.9001,0.001120
16.471,60.9001,0.001120
16.498,60.9001,0.001120
16.518,60.9001,0.001120
16.534,60.9001,0.001120
16.550,60.9001,0.001120
16.566,60.9001,0.001120
16.582,60.9001,0.001120
16.598,60.9001,0.001120
16.614,60.9001,0.001120
16.630,60.9001,0.001120
16.647,60.9001,0.001120
16.662,60.9001,0.001120
16.678,60.9001,0.001120
16.694,60.9001,0.001327
16.710,60.9001,0.001327
16.726,60.9001,0.001327
16.742,60.9001,0.001327
16.758,60.9001,0.001327
16.777,60.9001,0.001327
16.793,60.9001,0.001327
16.810,60.9001,0.001327
16.841,60.9001,0.001327
16.871,60.9001,0.001327
16.887,60.9001,0.001327
16.917,60.9001,0.001431
16.934,60.9001,0.001431
16.956,60.9001,0.001431
16.979,60.9001,0.001431
16.998,60.9001,0.001431
17.014,60.9001,0.001431
17.031,60.9001,0.001431
17.057,60.9001,0.001431
17.078,60.9001,0.001431
17.094,60.9001,0.001431
17.111,60.9001,0.001431
17.134,60.9001,0.001431
17.152,60.9001,0.001431
17.181,60.9001,0.001431
17.196,60.9001,0.001374
17.212,60.9001,0.001374
17.242,60.9001,0.001374
17.272,60.9001,0.001374
17.288,60.9001,0.001374
17.303,60.9001,0.001374
17.334,60.9001,0.001374
17.350,60.9001,0.001374
17.365,60.9001,0.001374
17.382,60.9001,0.001374
17.399,60.9001,0.001374
17.414,60.9001,0.001374
17.429,60.9001,0.001374
17.446,60.9001,0.001374
17.462,60.9001,0.001374
17.477,60.9001,0.001374
17.493,60.9001,0.001374
17.510,60.9001,0.001374
17.526,60.9001,0.001374
17.542,60.9001,0.001374
17.558,60.9001,0.001374
17.581,60.9001,0.001374
17.598,60.9001,0.001374
17.613,60.9001,0.001374
17.629,60.9001,0.001374
17.645,60.9001,0.001374
17.662,60.9001,0.001374
17.678,60.9001,0.001431
17.693,60.9001,0.001431
17.709,60.9001,0.001431
17.726,60.9001,0.001431
17.741,60.9001,0.001431
17.758,60.9001,0.001431
17.773,60.9001,0.001431
17.789,60.9001,0.001431
17.806,60.9001,0.001431
17.821,60.9001,0.001431
17.838,60.9001,0.001431
17.858,60.9001,0.001431
17.890,60.9001,0.001431
17.920,60.9001,0.001431
17.936,60.9001,0.001412
17.966,60.9001,0.001412
17.982,60.9001,0.001412
17.998,60.9001,0.001412
18.015,60.9001,0.001412
18.044,60.9001,0.001412
18.062,60.9001,0.001412
18.078,60.9001,0.001412
18.093,60.9001,0.001412
18.109,60.9001,0.001412
18.138,60.9001,0.001412
18.166,60.9001,0.001403
18.185,60.9001,0.001403
18.207,60.9001,0.001403
18.230,60.9001,0.001403
18.248,60.9001,0.001403
18.265,60.9001,0.001403
18.281,60.9001,0.001403
18.297,60.9001,0.001403
18.312,60.9001,0.001403
18.328,60.9001,0.001403
18.344,60.9001,0.001403
18.362,60.9001,0.001403
18.385,60.9001,0.001403
18.402,60.9001,0.001403
18.432,60.9001,0.001384
18.462,60.9001,0.001384
18.492,60.9001,0.001384
18.524,60.9001,0.001384
18.554,60.9001,0.001384
18.570,60.9001,0.001384
18.585,60.9001,0.001384
18.601,60.9001,0.001384
18.617,60.9001,0.001384
18.633,60.9001,0.001384
18.663,60.9001,0.001374
18.694,60.9001,0.001374
18.715,60.9001,0.001374
18.740,60.9001,0.001374
18.758,60.9001,0.001374
18.774,60.9001,0.001374
18.789,60.9001,0.001374
18.805,60.9001,0.001374
18.823,60.9001,0.001374
18.848,60.9001,0.001374
18.869,60.9001,0.001374
18.885,60.9001,0.001374
18.901,60.9001,0.001374
18.917,60.9001,0.001468
18.933,60.9001,0.001468
18.949,60.9001,0.001468
18.965,60.9001,0.001468
18.981,60.9001,0.001468
18.998,60.9001,0.001468
19.013,60.9001,0.001468
19.029,60.9001,0.001468
19.045,60.9001,0.001468
19.061,60.9001,0.001468
19.077,60.9001,0.001468
19.093,60.9001,0.001468
19.109,60.9001,0.001468
19.125,60.9001,0.001468
19.141,60.9001,0.001468
19.158,60.9001,0.001450
19.173,60.9001,0.001450
19.189,60.9001,0.001450
19.205,60.9001,0.001450
19.221,60.9001,0.001450
19.249,60.9001,0.001450
19.265,60.9001,0.001450
19.281,60.9001,0.001450
19.297,60.9001,0.001450
19.315,60.9001,0.001450
19.344,60.9001,0.001450
19.361,60.9001,0.001450
19.378,60.9001,0.001450
19.394,60.9001,0.001450
19.409,60.9001,0.001346
19.425,60.9001,0.001346
19.442,60.9001,0.001346
19.468,60.9001,0.001346
19.489,60.9001,0.001346
19.505,60.9001,0.001346
19.521,60.9001,0.001346
19.537,60.9001,0.001346
19.553,60.9001,0.001346
19.569,60.9001,0.001346
19.585,60.9001,0.001346
19.601,60.9001,0.001346
19.617,60.9001,0.001346
19.634,60.9001,0.001346
19.654,60.9001,0.001346
19.669,60.9001,0.001356
19.700,60.9001,0.001356
19.715,60.9001,0.001356
19.731,60.9001,0.001356
19.762,60.9001,0.001356
19.793,60.9001,0.001356
19.810,60.9001,0.001356
19.825,60.9001,0.001356
19.841,60.9001,0.001356
19.857,60.9001,0.001356
19.873,60.9001,0.001356
19.889,60.9001,0.001356
19.905,60.9001,0.001365
19.921,60.9001,0.001365
19.937,60.9001,0.001365
19.953,60.9001,0.001365
19.970,60.9001,0.001365
19.985,60.9001,0.001365
20.001,60.9001,0.001365
20.017,60.9001,0.001365
20.033,60.9001,0.001365
20.049,60.9001,0.001365
20.065,60.9001,0.001365
20.081,60.9001,0.001365
20.097,60.9001,0.001365
20.113,60.9001,0.001365
20.130,60.9001,0.001365
20.150,60.9001,0.001365
20.180,60.9001,0.001308
20.196,60.9001,0.001308
20.212,60.9001,0.001308
20.243,60.9001,0.001308
20.259,60.9001,0.001308
20.290,60.9001,0.001308
20.306,60.9001,0.001308
20.330,60.9001,0.001308
20.347,60.9001,0.001308
20.367,60.9001,0.001308
20.384,60.9001,0.001308
20.414,60.9001,0.001308
20.444,60.9001,0.001243
20.463,60.9000,0.001243
20.491,60.8994,0.001243
20.507,60.8987,0.001243
20.538,60.8969,0.001243
20.553,60.8958,0.001243
20.569,60.8943,0.001243
20.586,60.8927,0.001243
20.602,60.8909,0.001243
20.617,60.8891,0.001243
20.633,60.8868,0.001243
20.653,60.8840,0.001243
20.677,60.8799,0.001261
20.698,60.8762,0.001261
20.714,60.8729,0.001261
20.731,60.8693,0.001261
20.755,60.8638,0.001261
20.778,60.8583,0.001261
20.794,60.8542,0.001261
20.810,60.8499,0.001261
20.832,60.8437,0.001261
20.855,60.8367,0.001261
20.872,60.8315,0.001261
20.887,60.8264,0.001261
20.904,60.8207,0.001261
20.920,60.8153,0.001261
20.935,60.8096,0.002946
20.952,60.8030,0.002946
20.968,60.7972,0.002946
20.983,60.7908,0.002946
21.000,60.7840,0.002946
21.015,60.7772,0.002946
21.031,60.7702,0.002946
21.048,60.7632,0.002946
21.063,60.7560,0.002946
21.080,60.7480,0.002946
21.096,60.7399,0.002946
21.111,60.7325,0.002946
21.127,60.7245,0.002946
21.144,60.7158,0.002946
21.159,60.7076,0.002946
21.175,60.6989,0.004838
21.191,60.6900,0.004838
21.208,60.6802,0.004838
21.224,60.6711,0.004838
21.240,60.6617,0.004838
21.255,60.6523,0.004838
21.271,60.6420,0.004838
21.288,60.6317,0.004838
21.313,60.6151,0.004838
21.336,60.6006,0.004838
21.352,60.5897,0.004838
21.367,60.5790,0.004838
21.392,60.5618,0.004838
21.408,60.5500,0.004838
21.424,60.5383,0.003389
21.439,60.5267,0.003389
21.456,60.5139,0.003389
21.471,60.5020,0.003389
21.488,60.4897,0.003389
21.503,60.4773,0.003389
21.520,60.4635,0.003389
21.536,60.4510,0.003389
21.552,60.4372,0.003389
21.567,60.4245,0.003389
21.584,60.4097,0.003389
21.601,60.3949,0.003389
21.623,60.3762,0.003389
21.653,60.3483,0.003389
21.669,60.3345,0.001657
21.699,60.3053,0.001657
21.730,60.2761,0.001657
21.746,60.2608,0.001657
21.776,60.2299,0.001657
21.807,60.1992,0.001657
21.831,60.1734,0.001657
21.853,60.1503,0.001657
21.871,60.1315,0.001657
21.888,60.1133,0.001657
21.903,60.0962,0.001657
21.919,60.0783,0.001657
21.943,60.0517,0.001666
21.959,60.0334,0.001666
21.975,60.0156,0.001666
21.991,59.9970,0.001666
22.007,59.9772,0.001666
22.023,59.9578,0.001666
22.039,59.9400,0.001666
22.055,59.9207,0.001666
22.072,59.8990,0.001666
22.102,59.8621,0.001666
22.119,59.8411,0.001666
22.135,59.8205,0.001666
22.151,59.7994,0.001666
22.167,59.7795,0.001657
22.183,59.7585,0.001657
22.203,59.7311,0.001657
22.225,59.7023,0.001657
22.241,59.6795,0.001657
22.263,59.6494,0.001657
22.279,59.6286,0.001657
22.296,59.6039,0.001657
22.311,59.5837,0.001657
22.327,59.5598,0.001657
22.343,59.5379,0.001657
22.359,59.5156,0.001657
22.375,59.4919,0.001657
22.391,59.4669,0.001657
22.407,59.4448,0.001713
22.423,59.4215,0.001713
22.439,59.3967,0.001713
22.465,59.3574,0.001713
22.481,59.3329,0.001713
22.497,59.3075,0.001713
22.513,59.2817,0.001713
22.529,59.2583,0.001713
22.545,59.2312,0.001713
22.560,59.2078,0.001713
22.577,59.1820,0.001713
22.593,59.1555,0.001713
22.609,59.1297,0.001713
22.625,59.1034,0.001713
22.641,59.0761,0.001713
22.657,59.0490,0.001760
22.673,59.0229,0.001760
22.693,58.9899,0.001760
22.719,58.9430,0.001760
22.737,58.9135,0.001760
22.753,58.8855,0.001760
22.769,58.8587,0.001760
22.785,58.8290,0.001760
22.801,58.8017,0.001760
22.817,58.7726,0.001760
22.833,58.7438,0.001760
22.849,58.7157,0.001760
22.865,58.6860,0.001760
22.881,58.6564,0.001760
22.898,58.6255,0.001760
22.913,58.5959,0.001798
22.929,58.5676,0.001798
22.945,58.5363,0.001798
22.961,58.5073,0.001798
22.976,58.4768,0.001798
23.000,58.4315,0.001798
23.017,58.3974,0.001798
23.032,58.3683,0.001798
23.048,58.3386,0.001798
23.064,58.3054,0.001798
23.079,58.2750,0.001798
23.095,58.2435,0.001798
23.112,58.2087,0.001798
23.128,58.1775,0.001798
23.144,58.1447,0.001798
23.160,58.1129,0.001949
23.176,58.0786,0.001949
23.192,58.0462,0.001949
23.207,58.0141,0.001949
23.223,57.9806,0.001949
23.241,57.9434,0.001949
23.256,57.9116,0.001949
23.271,57.8784,0.001949
23.287,57.8448,0.001949
23.304,57.8078,0.001949
23.328,57.7582,0.001949
23.355,57.7028,0.001949
23.371,57.6694,0.001949
23.402,57.6058,0.001949
23.417,57.5738,0.001930
23.433,57.5412,0.001930
23.449,57.5097,0.001930
23.479,57.4499,0.001930
23.501,57.4062,0.001930
23.525,57.3591,0.001930
23.558,57.2954,0.001930
23.574,57.2648,0.001930
23.590,57.2343,0.001930
23.607,57.2032,0.001930
23.623,57.1706,0.001930
23.650,57.1223,0.001911
23.671,57.0828,0.001911
23.686,57.0556,0.001911
23.702,57.0263,0.001911
23.718,56.9976,0.001911
23.734,56.9684,0.001911
23.752,56.9383,0.001911
23.774,56.8990,0.001911
23.790,56.8706,0.001911
23.820,56.8176,0.001911
23.836,56.7901,0.001911
23.867,56.7355,0.001911
23.899,56.6843,0.001911
23.930,56.6318,0.001911
23.961,56.5830,0.002014
23.978,56.5551,0.002014
24.008,56.5059,0.002014
24.024,56.4823,0.002014
24.055,56.4335,0.002014
24.070,56.4098,0.002014
24.100,56.3641,0.002014
24.115,56.3414,0.002014
24.132,56.3169,0.002014
24.147,56.2939,0.002014
24.166,56.2657,0.002014
24.194,56.2250,0.002071
24.211,56.2008,0.002071
24.228,56.1760,0.002071
24.244,56.1543,0.002071
24.260,56.1321,0.002071
24.275,56.1108,0.002071
24.292,56.0876,0.002071
24.308,56.0668,0.002071
24.323,56.0456,0.002071
24.339,56.0236,0.002071
24.356,56.0020,0.002071
24.371,55.9815,0.002071
24.388,55.9604,0.002071
24.404,55.9397,0.002071
24.421,55.9177,0.002071
24.444,55.8874,0.002071
24.474,55.8507,0.002146
24.505,55.8120,0.002146
24.521,55.7941,0.002146
24.551,55.7587,0.002146
24.566,55.7402,0.002146
24.582,55.7225,0.002146
24.598,55.7039,0.002146
24.628,55.6694,0.002146
24.657,55.6383,0.002146
24.674,55.6203,0.002146
24.689,55.6036,0.002287
24.705,55.5867,0.002287
24.722,55.5696,0.002287
24.737,55.5533,0.002287
24.753,55.5370,0.002287
24.769,55.5200,0.002287
24.787,55.5028,0.002287
24.813,55.4774,0.002287
24.833,55.4577,0.002287
24.849,55.4421,0.002287
24.865,55.4278,0.002287
24.881,55.4127,0.002287
24.898,55.3969,0.002287
24.915,55.3808,0.002287
24.938,55.3616,0.002287
24.969,55.3348,0.002429
24.985,55.3205,0.002429
25.015,55.2956,0.002429
25.046,55.2703,0.002429
25.077,55.2465,0.002429
25.092,55.2346,0.002429
25.108,55.2219,0.002429
25.139,55.1996,0.002429
25.155,55.1884,0.002429
25.185,55.1664,0.002429
25.215,55.1466,0.002570
25.232,55.1352,0.002570
25.248,55.1249,0.002570
25.278,55.1052,0.002570
25.295,55.0957,0.002570
25.311,55.0859,0.002570
25.327,55.0765,0.002570
25.343,55.0672,0.002570
25.359,55.0578,0.002570
25.375,55.0492,0.002570
25.391,55.0406,0.002570
25.408,55.0314,0.002570
25.423,55.0236,0.002570
25.439,55.0158,0.002636
25.455,55.0079,0.002636
25.471,54.9999,0.002636
25.487,54.9927,0.002636
25.503,54.9852,0.002636
25.520,54.9777,0.002636
25.535,54.9712,0.002636
25.551,54.9641,0.002636
25.567,54.9579,0.002636
25.583,54.9516,0.002636
25.599,54.9451,0.002636
25.615,54.9393,0.002636
25.631,54.9336,0.002636
25.647,54.9279,0.002636
25.663,54.9224,0.002636
25.678,54.9175,0.002598
25.695,54.9124,0.002598
25.711,54.9075,0.002598
25.736,54.9005,0.002598
25.752,54.8960,0.002598
25.768,54.8919,0.002598
25.784,54.8881,0.002598
25.800,54.8843,0.002598
25.815,54.8809,0.002598
25.832,54.8773,0.002598
25.849,54.8742,0.002598
25.868,54.8704,0.002598
25.884,54.8677,0.002598
25.901,54.8651,0.002598
25.930,54.8610,0.002636
25.946,54.8590,0.002636
25.977,54.8558,0.002636
25.993,54.8545,0.002636
26.024,54.8523,0.002636
26.040,54.8515,0.002636
26.055,54.8509,0.002636
26.072,54.8504,0.002636
26.089,54.8501,0.002636
26.119,54.8501,0.002636
26.136,54.8501,0.002636
26.152,54.8501,0.002636
26.168,54.8501,0.002636
26.183,54.8501,0.002702
26.199,54.8501,0.002702
26.217,54.8501,0.002702
26.244,54.8501,0.002702
26.278,54.8502,0.002702
26.308,54.8511,0.002702
26.325,54.8518,0.002702
26.340,54.8527,0.002702
26.356,54.8537,0.002702
26.373,54.8551,0.002702
26.391,54.8568,0.002702
26.415,54.8594,0.002702
26.437,54.8623,0.002758
26.452,54.8644,0.002758
26.468,54.8669,0.002758
26.484,54.8695,0.002758
26.500,54.8723,0.002758
26.516,54.8754,0.002758
26.532,54.8786,0.002758
26.549,54.8821,0.002758
26.564,54.8856,0.002758
26.580,54.8894,0.002758
26.596,54.8934,0.002758
26.612,54.8976,0.002758
26.629,54.9021,0.002758
26.644,54.9067,0.002758
26.660,54.9116,0.002758
26.677,54.9165,0.002720
26.692,54.9214,0.002720
26.708,54.9268,0.002720
26.724,54.9323,0.002720
26.741,54.9382,0.002720
26.756,54.9441,0.002720
26.772,54.9503,0.002720
26.789,54.9568,0.002720
26.804,54.9630,0.002720
26.833,54.9754,0.002720
26.849,54.9826,0.002720
26.865,54.9896,0.002720
26.881,54.9971,0.002720
26.898,55.0051,0.002720
26.914,55.0127,0.002720
26.929,55.0206,0.002645
26.945,55.0287,0.002645
26.961,55.0375,0.002645
26.977,55.0457,0.002645
26.994,55.0549,0.002645
27.010,55.0640,0.002645
27.026,55.0735,0.002645
27.042,55.0827,0.002645
27.064,55.0962,0.002645
27.096,55.1156,0.002645
27.127,55.1357,0.002645
27.158,55.1567,0.002645
27.188,55.1770,0.002560
27.219,55.1995,0.002560
27.235,55.2110,0.002560
27.250,55.2226,0.002560
27.281,55.2464,0.002560
27.297,55.2588,0.002560
27.313,55.2715,0.002560
27.329,55.2843,0.002560
27.346,55.2981,0.002560
27.361,55.3105,0.002560
27.392,55.3364,0.002560
27.407,55.3499,0.002560
27.422,55.3629,0.002438
27.438,55.3771,0.002438
27.454,55.3917,0.002438
27.470,55.4060,0.002438
27.486,55.4209,0.002438
27.503,55.4371,0.002438
27.522,55.4551,0.002438
27.544,55.4764,0.002438
27.566,55.4974,0.002438
27.582,55.5143,0.002438
27.598,55.5295,0.002438
27.614,55.5458,0.002438
27.630,55.5625,0.002438
27.646,55.5801,0.002438
27.662,55.5961,0.002438
27.678,55.6130,0.002372
27.695,55.6320,0.002372
27.712,55.6513,0.002372
27.729,55.6692,0.002372
27.759,55.7024,0.002372
27.774,55.7205,0.002372
27.790,55.7381,0.002372
27.806,55.7571,0.002372
27.822,55.7762,0.002372
27.838,55.7957,0.002372
27.854,55.8139,0.002372
27.870,55.8334,0.002372
27.888,55.8558,0.002372
27.912,55.8858,0.002372
27.943,55.9245,0.002325
27.974,55.9645,0.002325
28.004,56.0044,0.002325
28.020,56.0257,0.002325
28.035,56.0457,0.002325
28.051,56.0663,0.002325
28.081,56.1091,0.002325
28.112,56.1507,0.002325
28.131,56.1782,0.002325
28.158,56.2173,0.002325
28.174,56.2393,0.002231
28.191,56.2637,0.002231
28.207,56.2888,0.002231
28.236,56.3307,0.002231
28.254,56.3587,0.002231
28.270,56.3822,0.002231
28.286,56.4062,0.002231
28.302,56.4319,0.002231
28.320,56.4596,0.002231
28.344,56.4965,0.002231
28.374,56.5450,0.002231
28.405,56.5949,0.002231
28.421,56.6210,0.002109
28.436,56.6456,0.002109
28.460,56.6845,0.002109
28.476,56.7117,0.002109
28.491,56.7380,0.002109
28.508,56.7659,0.002109
28.524,56.7945,0.002109
28.540,56.8201,0.002109
28.555,56.8479,0.002109
28.572,56.8762,0.002109
28.588,56.9049,0.002109
28.604,56.9327,0.002109
28.621,56.9637,0.002109
28.637,56.9909,0.002109
28.652,57.0193,0.002109
28.668,57.0479,0.002061
28.685,57.0782,0.002061
28.700,57.1067,0.002061
28.716,57.1360,0.002061
28.732,57.1658,0.002061
28.749,57.1994,0.002061
28.775,57.2500,0.002061
28.796,57.2877,0.002061
28.812,57.3193,0.002061
28.828,57.3497,0.002061
28.844,57.3812,0.002061
28.860,57.4116,0.002061
28.876,57.4455,0.002061
28.892,57.4762,0.002061
28.907,57.5069,0.002005
28.924,57.5392,0.002005
28.940,57.5732,0.002005
28.955,57.6045,0.002005
28.971,57.6367,0.002005
28.995,57.6847,0.002005
29.011,57.7203,0.002005
29.027,57.7518,0.002005
29.043,57.7844,0.002005
29.061,57.8237,0.002005
29.084,57.8727,0.002005
29.114,57.9373,0.002005
29.145,58.0014,0.002005
29.176,58.0655,0.001864
29.206,58.1278,0.001864
29.237,58.1881,0.001864
29.268,58.2497,0.001864
29.284,58.2820,0.001864
29.301,58.3152,0.001864
29.331,58.3736,0.001864
29.348,58.4071,0.001864
29.363,58.4355,0.001864
29.378,58.4646,0.001864
29.394,58.4950,0.001864
29.411,58.5272,0.001864
29.427,58.5559,0.001864
29.443,58.5858,0.001836
29.459,58.6148,0.001836
29.475,58.6452,0.001836
29.490,58.6730,0.001836
29.507,58.7023,0.001836
29.533,58.7509,0.001836
29.562,58.8026,0.001836
29.581,58.8339,0.001836
29.599,58.8650,0.001836
29.624,58.9089,0.001836
29.644,58.9431,0.001836
29.660,58.9717,0.001836
29.676,58.9977,0.001836
29.692,59.0237,0.001845
29.708,59.0508,0.001845
29.725,59.0784,0.001845
29.741,59.1039,0.001845
29.756,59.1287,0.001845
29.773,59.1553,0.001845
29.789,59.1815,0.001845
29.804,59.2052,0.001845
29.820,59.2305,0.001845
29.836,59.2559,0.001845
29.852,59.2806,0.001845
29.868,59.3047,0.001845
29.885,59.3298,0.001845
29.900,59.3534,0.001845
29.916,59.3777,0.001845
29.933,59.4020,0.001779
29.948,59.4246,0.001779
29.964,59.4489,0.001779
29.980,59.4713,0.001779
29.996,59.4942,0.001779
30.013,59.5190,0.001779
30.029,59.5406,0.001779
30.045,59.5630,0.001779
30.060,59.5843,0.001779
30.089,59.6243,0.001779
30.104,59.6435,0.001779
30.120,59.6659,0.001779
30.135,59.6862,0.001779
30.152,59.7090,0.001779
30.167,59.7283,0.001779
30.183,59.7490,0.001723
30.199,59.7694,0.001723
30.217,59.7923,0.001723
30.235,59.8151,0.001723
30.260,59.8454,0.001723
30.279,59.8692,0.001723
30.296,59.8892,0.001723
30.312,59.9090,0.001723
30.327,59.9275,0.001723
30.346,59.9498,0.001723
30.369,59.9761,0.001723
30.384,59.9932,0.001723
30.415,60.0277,0.001723
30.431,60.0452,0.001723
30.462,60.0803,0.001657
30.492,60.1114,0.001657
30.507,60.1278,0.001657
30.539,60.1602,0.001657
30.555,60.1764,0.001657
30.570,60.1918,0.001657
30.600,60.2222,0.001657
30.632,60.2518,0.001657
30.647,60.2663,0.001657
30.663,60.2817,0.001657
30.679,60.2960,0.001591
30.695,60.3105,0.001591
30.712,60.3257,0.001591
30.727,60.3394,0.001591
30.743,60.3532,0.001591
30.759,60.3672,0.001591
30.775,60.3807,0.001591
30.791,60.3938,0.001591
30.808,60.4080,0.001591
30.823,60.4199,0.001591
30.839,60.4330,0.001591
30.855,60.4460,0.001591
30.871,60.4587,0.001591
30.887,60.4701,0.001591
30.903,60.4823,0.001591
30.919,60.4942,0.001591
30.935,60.5055,0.001525
30.951,60.5170,0.001525
30.968,60.5289,0.001525
30.988,60.5430,0.001525
31.003,60.5536,0.001525
31.034,60.5734,0.001525
31.049,60.5833,0.001525
31.080,60.6027,0.001525
31.111,60.6212,0.001525
31.127,60.6303,0.001525
31.143,60.6405,0.001525
31.165,60.6517,0.001525
31.181,60.6606,0.001525
31.197,60.6688,0.001516
31.213,60.6771,0.001516
31.229,60.6852,0.001516
31.245,60.6931,0.001516
31.261,60.7009,0.001516
31.277,60.7085,0.001516
31.293,60.7159,0.001516
31.309,60.7229,0.001516
31.325,60.7298,0.001516
31.341,60.7364,0.001516
31.357,60.7430,0.001516
31.373,60.7493,0.001516
31.389,60.7556,0.001516
31.406,60.7619,0.001516
31.437,60.7728,0.001440
31.453,60.7781,0.001440
31.469,60.7834,0.001440
31.485,60.7882,0.001440
31.501,60.7931,0.001440
31.517,60.7977,0.001440
31.535,60.8026,0.001440
31.550,60.8067,0.001440
31.575,60.8130,0.001440
31.597,60.8179,0.001440
31.613,60.8213,0.001440
31.629,60.8246,0.001440
31.645,60.8275,0.001440
31.661,60.8304,0.001440
31.678,60.8331,0.001440
31.694,60.8357,0.001440
31.718,60.8392,0.001299
31.742,60.8419,0.001299
31.762,60.8440,0.001299
31.782,60.8458,0.001299
31.797,60.8469,0.001299
31.813,60.8480,0.001299
31.829,60.8488,0.001299
31.846,60.8494,0.001299
31.861,60.8499,0.001299
31.877,60.8501,0.001299
31.893,60.8501,0.001299
31.910,60.8501,0.001299
31.926,60.8501,0.001299
31.941,60.8501,0.001148
31.957,60.8501,0.001148
31.973,60.8501,0.001148
31.990,60.8501,0.001148
32.006,60.8501,0.001148
32.021,60.8501,0.001148
32.038,60.8501,0.001148
32.054,60.8501,0.001148
32.069,60.8501,0.001148
32.094,60.8501,0.001148
32.109,60.8501,0.001148
32.132,60.8501,0.001148
32.150,60.8501,0.001148
32.166,60.8501,0.001148
32.183,60.8501,0.001186
32.210,60.8501,0.001186
32.229,60.8501,0.001186
32.245,60.8501,0.001186
32.273,60.8501,0.001186
32.289,60.8501,0.001186
32.304,60.8501,0.001186
32.320,60.8501,0.001186
32.337,60.8501,0.001186
32.353,60.8501,0.001186
32.368,60.8501,0.001186
32.385,60.8501,0.001186
32.401,60.8501,0.001186
32.416,60.8501,0.001186
32.432,60.8501,0.001346
32.449,60.8501,0.001346
32.465,60.8501,0.001346
32.481,60.8501,0.001346
32.497,60.8501,0.001346
32.512,60.8501,0.001346
32.529,60.8501,0.001346
32.545,60.8501,0.001346
32.561,60.8501,0.001346
32.576,60.8501,0.001346
32.593,60.8501,0.001346
32.608,60.8501,0.001346
32.624,60.8501,0.001346
32.640,60.8501,0.001346
32.657,60.8501,0.001346
32.672,60.8501,0.001374
32.688,60.8501,0.001374
32.704,60.8501,0.001374
32.720,60.8501,0.001374
32.737,60.8501,0.001374
32.753,60.8501,0.001374
32.769,60.8501,0.001374
32.784,60.8501,0.001374
32.800,60.8501,0.001374
32.829,60.8501,0.001374
32.846,60.8501,0.001374
32.861,60.8501,0.001374
32.877,60.8501,0.001374
32.895,60.8501,0.001374
32.921,60.8501,0.001412
32.941,60.8501,0.001412
32.957,60.8501,0.001412
32.973,60.8501,0.001412
32.989,60.8501,0.001412
33.005,60.8501,0.001412
33.022,60.8501,0.001412
33.044,60.8501,0.001412
33.074,60.8501,0.001412
33.091,60.8501,0.001412
33.120,60.8501,0.001412
33.151,60.8501,0.001412
33.182,60.8501,0.001403
33.197,60.8501,0.001403
33.213,60.8501,0.001403
33.229,60.8501,0.001403
33.245,60.8501,0.001403
33.261,60.8501,0.001403
33.277,60.8501,0.001403
33.293,60.8501,0.001403
33.309,60.8501,0.001403
33.327,60.8501,0.001403
33.355,60.8501,0.001403
33.386,60.8501,0.001403
33.402,60.8501,0.001403
33.418,60.8501,0.001337
33.434,60.8501,0.001337
33.456,60.8501,0.001337
33.479,60.8501,0.001337
33.498,60.8501,0.001337
33.514,60.8501,0.001337
33.530,60.8501,0.001337
33.546,60.8501,0.001337
33.562,60.8501,0.001337
33.579,60.8501,0.001337
33.594,60.8501,0.001337
33.610,60.8501,0.001337
33.626,60.8501,0.001337
33.642,60.8501,0.001337
33.658,60.8501,0.001384
33.674,60.8501,0.001384
33.690,60.8501,0.001384
33.706,60.8501,0.001384
33.722,60.8501,0.001384
33.738,60.8501,0.001384
33.754,60.8501,0.001384
33.770,60.8501,0.001384
33.786,60.8501,0.001384
33.802,60.8501,0.001384
33.819,60.8501,0.001384
33.849,60.8501,0.001384
33.866,60.8501,0.001384
33.883,60.8501,0.001384
33.911,60.8501,0.001384
33.930,60.8501,0.001421
33.946,60.8501,0.001421
33.962,60.8501,0.001421
33.978,60.8501,0.001421
33.994,60.8501,0.001421
34.010,60.8501,0.001421
34.026,60.8501,0.001421
34.042,60.8501,0.001421
34.058,60.8501,0.001421
34.074,60.8501,0.001421
34.090,60.8501,0.001421
34.106,60.8501,0.001421
34.122,60.8501,0.001421
34.138,60.8501,0.001421
34.154,60.8501,0.001421
34.170,60.8501,0.001346
34.186,60.8501,0.001346
34.202,60.8501,0.001346
34.218,60.8501,0.001346
34.234,60.8501,0.001346
34.250,60.8501,0.001346
34.266,60.8501,0.001346
34.283,60.8501,0.001346
34.298,60.8501,0.001346
34.314,60.8501,0.001346
34.330,60.8501,0.001346
34.347,60.8501,0.001346
34.375,60.8501,0.001346
34.394,60.8501,0.001346
34.410,60.8501,0.001346
34.426,60.8501,0.001346
34.442,60.8501,0.001346
34.469,60.8501,0.001337
34.485,60.8501,0.001337
34.500,60.8501,0.001337
34.517,60.8501,0.001337
34.532,60.8501,0.001337
34.549,60.8501,0.001337
34.565,60.8501,0.001337
34.581,60.8501,0.001337
34.597,60.8501,0.001337
34.613,60.8501,0.001337
34.630,60.8501,0.001337
34.655,60.8501,0.001337
34.676,60.8501,0.001337
34.694,60.8501,0.001412
34.709,60.8501,0.001412
34.726,60.8501,0.001412
34.744,60.8501,0.001412
34.764,60.8501,0.001412
34.794,60.8501,0.001412
34.811,60.8501,0.001412
34.841,60.8501,0.001412
34.871,60.8501,0.001412
34.887,60.8501,0.001412
34.917,60.8501,0.001412
34.933,60.8501,0.001440
34.948,60.8501,0.001440
34.966,60.8501,0.001440
34.996,60.8501,0.001440
35.027,60.8501,0.001440
35.044,60.8501,0.001440
35.062,60.8501,0.001440
35.089,60.8501,0.001440
35.108,60.8501,0.001440
35.136,60.8501,0.001440
35.154,60.8501,0.001440
35.170,60.8501,0.001440
35.186,60.8501,0.001412
35.203,60.8501,0.001412
35.219,60.8501,0.001412
35.235,60.8501,0.001412
35.251,60.8501,0.001412
35.266,60.8501,0.001412
35.283,60.8501,0.001412
35.304,60.8501,0.001412
35.322,60.8501,0.001412
35.338,60.8501,0.001412
35.369,60.8501,0.001412
35.399,60.8501,0.001412
35.415,60.8501,0.001412
35.432,60.8501,0.001412
35.461,60.8501,0.001384
35.477,60.8501,0.001384
35.493,60.8501,0.001384
35.509,60.8501,0.001384
35.525,60.8501,0.001384
35.556,60.8501,0.001384
35.572,60.8501,0.001384
35.587,60.8501,0.001384
35.603,60.8501,0.001384
35.619,60.8501,0.001384
35.634,60.8501,0.001384
35.651,60.8501,0.001384
35.666,60.8501,0.001384
35.682,60.8501,0.001318
35.698,60.8501,0.001318
35.716,60.8501,0.001318
35.735,60.8501,0.001318
35.757,60.8501,0.001318
35.779,60.8501,0.001318
35.795,60.8501,0.001318
35.811,60.8501,0.001318
35.826,60.8501,0.001318
35.848,60.8501,0.001318
35.865,60.8501,0.001318
35.895,60.8501,0.001318
35.912,60.8501,0.001318
35.942,60.8501,0.001290
35.974,60.8501,0.001290
36.004,60.8501,0.001290
36.035,60.8501,0.001290
36.050,60.8501,0.001290
36.066,60.8501,0.001290
36.083,60.8501,0.001290
36.098,60.8501,0.001290
36.114,60.8501,0.001290
36.145,60.8501,0.001290
36.161,60.8501,0.001290
36.177,60.8501,0.001280
36.193,60.8501,0.001280
36.209,60.8500,0.001280
36.225,60.8497,0.001280
36.241,60.8492,0.001280
36.257,60.8486,0.001280
36.274,60.8476,0.001280
36.298,60.8460,0.001280
36.314,60.8447,0.001280
36.346,60.8414,0.001280
36.376,60.8375,0.001280
36.392,60.8352,0.001280
36.423,60.8301,0.001280
36.438,60.8275,0.001346
36.469,60.8213,0.001346
36.500,60.8146,0.001346
36.516,60.8109,0.001346
36.546,60.8030,0.001346
36.562,60.7989,0.001346
36.577,60.7946,0.001346
36.593,60.7898,0.001346
36.609,60.7849,0.001346
36.625,60.7795,0.001346
36.642,60.7741,0.001346
36.657,60.7689,0.001346
36.673,60.7632,0.001346
36.702,60.7524,0.002993
36.718,60.7462,0.002993
36.734,60.7395,0.002993
36.750,60.7332,0.002993
36.767,60.7260,0.002993
36.792,60.7146,0.002993
36.823,60.7003,0.002993
36.854,60.6852,0.002993
36.884,60.6697,0.002993
36.901,60.6611,0.002993
36.916,60.6524,0.002993
36.947,60.6353,0.004744
36.963,60.6261,0.004744
36.994,60.6079,0.004744
37.010,60.5981,0.004744
37.026,60.5879,0.004744
37.056,60.5690,0.004744
37.071,60.5587,0.004744
37.087,60.5476,0.004744
37.103,60.5370,0.004744
37.134,60.5155,0.004744
37.150,60.5037,0.004744
37.166,60.4923,0.003276
37.182,60.4809,0.003276
37.200,60.4668,0.003276
37.228,60.4456,0.003276
37.260,60.4200,0.003276
37.276,60.4069,0.003276
37.297,60.3894,0.003276
37.320,60.3692,0.003276
37.340,60.3529,0.003276
37.356,60.3384,0.003276
37.372,60.3252,0.003276
37.388,60.3100,0.003276
37.404,60.2964,0.003276
37.420,60.2816,0.001610
37.436,60.2666,0.001610
37.451,60.2515,0.001610
37.468,60.2357,0.001610
37.483,60.2207,0.001610
37.500,60.2044,0.001610
37.516,60.1883,0.001610
37.532,60.1721,0.001610
37.548,60.1567,0.001610
37.564,60.1392,0.001610
37.581,60.1204,0.001610
37.600,60.1015,0.001610
37.630,60.0689,0.001610
37.646,60.0512,0.001610
37.678,60.0172,0.001619
37.694,59.9989,0.001619
37.709,59.9811,0.001619
37.724,59.9636,0.001619
37.755,59.9273,0.001619
37.772,59.9070,0.001619
37.789,59.8871,0.001619
37.804,59.8688,0.001619
37.819,59.8500,0.001619
37.836,59.8285,0.001619
37.852,59.8084,0.001619
37.868,59.7896,0.001619
37.884,59.7693,0.001619
37.903,59.7442,0.001619
37.918,59.7235,0.001619
37.939,59.6973,0.001619
37.955,59.6765,0.001657
37.971,59.6543,0.001657
38.002,59.6124,0.001657
38.018,59.5913,0.001657
38.034,59.5681,0.001657
38.064,59.5259,0.001657
38.080,59.5035,0.001657
38.096,59.4798,0.001657
38.127,59.4354,0.001657
38.143,59.4113,0.001657
38.159,59.3881,0.001657
38.175,59.3637,0.001741
38.205,59.3188,0.001741
38.221,59.2934,0.001741
38.237,59.2683,0.001741
38.253,59.2456,0.001741
38.284,59.1968,0.001741
38.300,59.1718,0.001741
38.329,59.1243,0.001741
38.345,59.0987,0.001741
38.361,59.0732,0.001741
38.376,59.0476,0.001741
38.392,59.0208,0.001741
38.409,58.9936,0.001741
38.424,58.9673,0.001807
38.440,58.9400,0.001807
38.457,58.9119,0.001807
38.472,58.8855,0.001807
38.488,58.8577,0.001807
38.504,58.8299,0.001807
38.521,58.8012,0.001807
38.536,58.7735,0.001807
38.552,58.7448,0.001807
38.568,58.7164,0.001807
38.585,58.6863,0.001807
38.605,58.6489,0.001807
38.621,58.6198,0.001807
38.652,58.5616,0.001807
38.683,58.5043,0.001873
38.699,58.4738,0.001873
38.715,58.4432,0.001873
38.746,58.3847,0.001873
38.763,58.3503,0.001873
38.793,58.2920,0.001873
38.808,58.2632,0.001873
38.825,58.2295,0.001873
38.840,58.1997,0.001873
38.856,58.1675,0.001873
38.885,58.1088,0.001873
38.902,58.0745,0.001873
38.932,58.0122,0.001949
38.949,57.9762,0.001949
38.966,57.9419,0.001949
38.981,57.9101,0.001949
38.997,57.8759,0.001949
39.013,57.8406,0.001949
39.029,57.8076,0.001949
39.045,57.7740,0.001949
39.061,57.7391,0.001949
39.078,57.7048,0.001949
39.093,57.6726,0.001949
39.109,57.6391,0.001949
39.125,57.6057,0.001949
39.141,57.5734,0.001949
39.157,57.5397,0.001949
39.174,57.5066,0.001939
39.189,57.4761,0.001939
39.205,57.4428,0.001939
39.221,57.4123,0.001939
39.237,57.3806,0.001939
39.254,57.3478,0.001939
39.269,57.3176,0.001939
39.285,57.2862,0.001939
39.301,57.2557,0.001939
39.317,57.2249,0.001939
39.333,57.1942,0.001939
39.349,57.1634,0.001939
39.365,57.1340,0.001939
39.389,57.0885,0.001939
39.410,57.0487,0.001939
39.431,57.0120,0.001939
39.457,56.9631,0.001939
39.478,56.9255,0.001939
39.493,56.8990,0.001939
39.509,56.8711,0.001939
39.525,56.8424,0.001939
39.543,56.8120,0.001939
39.564,56.7730,0.001939
39.595,56.7203,0.001939
39.626,56.6695,0.001939
39.641,56.6424,0.001939
39.657,56.6172,0.001939
39.689,56.5646,0.002005
39.719,56.5154,0.002005
39.734,56.4901,0.002005
39.765,56.4423,0.002005
39.783,56.4132,0.002005
39.812,56.3689,0.002005
39.829,56.3429,0.002005
39.845,56.3185,0.002005
39.861,56.2941,0.002005
39.877,56.2704,0.002005
39.893,56.2471,0.002005
39.911,56.2203,0.002005
39.937,56.1821,0.002005
39.957,56.1538,0.002080
39.973,56.1311,0.002080
39.989,56.1080,0.002080
40.005,56.0863,0.002080
40.022,56.0621,0.002080
40.037,56.0412,0.002080
40.053,56.0188,0.002080
40.068,55.9986,0.002080
40.085,55.9766,0.002080
40.101,55.9548,0.002080
40.117,55.9347,0.002080
40.133,55.9139,0.002080
40.149,55.8933,0.002080
40.165,55.8723,0.002080
40.180,55.8525,0.002231
40.197,55.8323,0.002231
40.212,55.8125,0.002231
40.229,55.7919,0.002231
40.245,55.7720,0.002231
40.261,55.7529,0.002231
40.278,55.7329,0.002231
40.307,55.6987,0.002231
40.324,55.6787,0.002231
40.342,55.6594,0.002231
40.357,55.6414,0.002231
40.373,55.6240,0.002231
40.389,55.6064,0.002231
40.405,55.5884,0.002231
40.421,55.5699,0.002231
40.437,55.5541,0.002334
40.454,55.5356,0.002334
40.471,55.5166,0.002334
40.495,55.4930,0.002334
40.512,55.4754,0.002334
40.539,55.4490,0.002334
40.559,55.4293,0.002334
40.584,55.4049,0.002334
40.614,55.3756,0.002334
40.645,55.3476,0.002334
40.675,55.3202,0.002447
40.691,55.3068,0.002447
40.722,55.2803,0.002447
40.738,55.2661,0.002447
40.769,55.2412,0.002447
40.785,55.2275,0.002447
40.815,55.2036,0.002447
40.845,55.1805,0.002447
40.861,55.1685,0.002447
40.877,55.1568,0.002447
40.893,55.1452,0.002447
40.912,55.1319,0.002447
40.938,55.1135,0.002589
40.957,55.1004,0.002589
40.974,55.0894,0.002589
40.990,55.0791,0.002589
41.005,55.0689,0.002589
41.032,55.0519,0.002589
41.048,55.0422,0.002589
41.064,55.0327,0.002589
41.079,55.0237,0.002589
41.098,55.0128,0.002589
41.123,54.9989,0.002589
41.143,54.9883,0.002589
41.160,54.9795,0.002589
41.175,54.9714,0.002589
41.192,54.9632,0.002673
41.207,54.9555,0.002673
41.225,54.9471,0.002673
41.247,54.9368,0.002673
41.278,54.9233,0.002673
41.293,54.9165,0.002673
41.309,54.9099,0.002673
41.339,54.8981,0.002673
41.355,54.8918,0.002673
41.387,54.8805,0.002673
41.418,54.8700,0.002673
41.448,54.8607,0.002749
41.465,54.8557,0.002749
41.494,54.8475,0.002749
41.512,54.8430,0.002749
41.528,54.8389,0.002749
41.543,54.8354,0.002749
41.559,54.8318,0.002749
41.586,54.8260,0.002749
41.602,54.8231,0.002749
41.618,54.8202,0.002749
41.635,54.8172,0.002749
41.651,54.8149,0.002749
41.666,54.8127,0.002749
41.682,54.8105,0.002711
41.698,54.8087,0.002711
41.715,54.8068,0.002711
41.731,54.8053,0.002711
41.747,54.8041,0.002711
41.762,54.8030,0.002711
41.779,54.8020,0.002711
41.795,54.8012,0.002711
41.817,54.8005,0.002711
41.848,54.8001,0.002711
41.880,54.8001,0.002711
41.896,54.8001,0.002711
41.926,54.8001,0.002692
41.957,54.8003,0.002692
41.988,54.8010,0.002692
42.004,54.8017,0.002692
42.035,54.8036,0.002692
42.050,54.8047,0.002692
42.066,54.8062,0.002692
42.084,54.8081,0.002692
42.113,54.8115,0.002692
42.142,54.8158,0.002692
42.158,54.8182,0.002692
42.174,54.8210,0.002786
42.190,54.8239,0.002786
42.206,54.8272,0.002786
42.222,54.8303,0.002786
42.238,54.8340,0.002786
42.254,54.8376,0.002786
42.270,54.8416,0.002786
42.286,54.8458,0.002786
42.302,54.8500,0.002786
42.319,54.8548,0.002786
42.334,54.8592,0.002786
42.350,54.8640,0.002786
42.366,54.8691,0.002786
42.382,54.8742,0.002786
42.398,54.8800,0.002786
42.414,54.8855,0.002786
42.430,54.8914,0.002796
42.446,54.8974,0.002796
42.462,54.9034,0.002796
42.478,54.9099,0.002796
42.494,54.9165,0.002796
42.510,54.9234,0.002796
42.526,54.9306,0.002796
42.542,54.9377,0.002796
42.558,54.9449,0.002796
42.574,54.9529,0.002796
42.594,54.9625,0.002796
42.624,54.9779,0.002796
42.640,54.9860,0.002796
42.671,55.0029,0.002796
42.699,55.0189,0.002730
42.715,55.0276,0.002730
42.731,55.0371,0.002730
42.747,55.0469,0.002730
42.763,55.0572,0.002730
42.779,55.0668,0.002730
42.795,55.0771,0.002730
42.811,55.0875,0.002730
42.828,55.0988,0.002730
42.843,55.1089,0.002730
42.859,55.1200,0.002730
42.875,55.1311,0.002730
42.896,55.1471,0.002730
42.921,55.1648,0.002730
42.939,55.1780,0.002730
42.955,55.1902,0.002607
42.971,55.2032,0.002607
42.988,55.2160,0.002607
43.003,55.2280,0.002607
43.019,55.2413,0.002607
43.035,55.2541,0.002607
43.051,55.2674,0.002607
43.067,55.2812,0.002607
43.083,55.2957,0.002607
43.099,55.3091,0.002607
43.115,55.3234,0.002607
43.131,55.3376,0.002607
43.147,55.3522,0.002607
43.163,55.3668,0.002523
43.179,55.3814,0.002523
43.195,55.3964,0.002523
43.211,55.4123,0.002523
43.227,55.4277,0.002523
43.258,55.4582,0.002523
43.274,55.4749,0.002523
43.290,55.4899,0.002523
43.306,55.5069,0.002523
43.321,55.5232,0.002523
43.338,55.5407,0.002523
43.353,55.5569,0.002523
43.370,55.5743,0.002523
43.389,55.5962,0.002523
43.413,55.6224,0.002438
43.434,55.6455,0.002438
43.450,55.6637,0.002438
43.465,55.6817,0.002438
43.482,55.7008,0.002438
43.498,55.7189,0.002438
43.515,55.7394,0.002438
43.530,55.7580,0.002438
43.546,55.7774,0.002438
43.568,55.8051,0.002438
43.599,55.8430,0.002438
43.630,55.8817,0.002438
43.646,55.9029,0.002438
43.661,55.9225,0.002363
43.677,55.9430,0.002363
43.708,55.9847,0.002363
43.738,56.0250,0.002363
43.753,56.0457,0.002363
43.770,56.0683,0.002363
43.785,56.0902,0.002363
43.814,56.1310,0.002363
43.829,56.1517,0.002363
43.845,56.1754,0.002363
43.862,56.1990,0.002363
43.878,56.2230,0.002363
43.894,56.2462,0.002363
43.909,56.2689,0.002240
43.925,56.2929,0.002240
43.942,56.3178,0.002240
43.957,56.3414,0.002240
43.973,56.3660,0.002240
43.989,56.3906,0.002240
44.012,56.4273,0.002240
44.032,56.4592,0.002240
44.054,56.4924,0.002240
44.070,56.5180,0.002240
44.086,56.5438,0.002240
44.102,56.5697,0.002240
44.118,56.5960,0.002240
44.134,56.6238,0.002240
44.149,56.6488,0.002240
44.165,56.6751,0.002127
44.181,56.7024,0.002127
44.198,56.7312,0.002127
44.217,56.7653,0.002127
44.248,56.8165,0.002127
44.278,56.8709,0.002127
44.293,56.8985,0.002127
44.311,56.9286,0.002127
44.340,56.9822,0.002127
44.371,57.0397,0.002127
44.388,57.0696,0.002127
44.403,57.0974,0.002127
44.419,57.1273,0.002080
44.436,57.1593,0.002080
44.463,57.2099,0.002080
44.483,57.2490,0.002080
44.499,57.2805,0.002080
44.517,57.3143,0.002080
44.539,57.3590,0.002080
44.570,57.4200,0.002080
44.601,57.4816,0.002080
44.618,57.5161,0.002080
44.648,57.5760,0.002080
44.678,57.6396,0.002024
44.694,57.6728,0.002024
44.724,57.7355,0.002024
44.740,57.7678,0.002024
44.756,57.8031,0.002024
44.786,57.8654,0.002024
44.804,57.9029,0.002024
44.819,57.9352,0.002024
44.836,57.9715,0.002024
44.852,58.0033,0.002024
44.867,58.0349,0.002024
44.883,58.0669,0.002024
44.910,58.1227,0.002024
44.927,58.1558,0.002024
44.943,58.1873,0.001958
44.958,58.2180,0.001958
44.974,58.2505,0.001958
44.992,58.2831,0.001958
45.020,58.3383,0.001958
45.039,58.3754,0.001958
45.054,58.4042,0.001958
45.070,58.4348,0.001958
45.086,58.4646,0.001958
45.102,58.4948,0.001958
45.118,58.5246,0.001958
45.134,58.5558,0.001958
45.150,58.5833,0.001958
45.168,58.6153,0.001958
45.190,58.6560,0.001958
45.205,58.6844,0.001977
45.236,58.7382,0.001977
45.251,58.7653,0.001977
45.267,58.7944,0.001977
45.298,58.8460,0.001977
45.329,58.9008,0.001977
45.360,58.9512,0.001977
45.390,59.0014,0.001977
45.407,59.0293,0.001977
45.437,59.0774,0.001977
45.468,59.1277,0.002005
45.483,59.1521,0.002005
45.499,59.1769,0.002005
45.515,59.2011,0.002005
45.531,59.2270,0.002005
45.547,59.2510,0.002005
45.563,59.2750,0.002005
45.579,59.2997,0.002005
45.595,59.3248,0.002005
45.611,59.3477,0.002005
45.627,59.3710,0.002005
45.643,59.3941,0.002005
45.659,59.4183,0.002005
45.675,59.4405,0.002005
45.691,59.4640,0.001911
45.708,59.4881,0.001911
45.725,59.5123,0.001911
45.741,59.5352,0.001911
45.762,59.5632,0.001911
45.778,59.5851,0.001911
45.810,59.6272,0.001911
45.841,59.6694,0.001911
45.872,59.7085,0.001911
45.887,59.7276,0.001911
45.903,59.7487,0.001911
45.933,59.7855,0.001911
45.964,59.8239,0.001798
45.980,59.8429,0.001798
45.996,59.8619,0.001798
46.011,59.8795,0.001798
46.027,59.8984,0.001798
46.043,59.9172,0.001798
46.059,59.9354,0.001798
46.075,59.9537,0.001798
46.091,59.9720,0.001798
46.107,59.9895,0.001798
46.123,60.0077,0.001798
46.139,60.0247,0.001798
46.155,60.0420,0.001798
46.171,60.0595,0.001798
46.187,60.0765,0.001666
46.203,60.0927,0.001666
46.219,60.1092,0.001666
46.235,60.1252,0.001666
46.251,60.1409,0.001666
46.267,60.1571,0.001666
46.283,60.1727,0.001666
46.298,60.1882,0.001666
46.315,60.2038,0.001666
46.331,60.2186,0.001666
46.347,60.2337,0.001666
46.363,60.2486,0.001666
46.379,60.2631,0.001666
46.395,60.2774,0.001666
46.411,60.2918,0.001666
46.427,60.3052,0.001619
46.443,60.3190,0.001619
46.459,60.3324,0.001619
46.475,60.3461,0.001619
46.490,60.3591,0.001619
46.507,60.3720,0.001619
46.524,60.3861,0.001619
46.549,60.4059,0.001619
46.571,60.4217,0.001619
46.587,60.4343,0.001619
46.602,60.4458,0.001619
46.619,60.4576,0.001619
46.635,60.4690,0.001619
46.651,60.4803,0.001619
46.666,60.4908,0.001600
46.682,60.5017,0.001600
46.699,60.5129,0.001600
46.715,60.5229,0.001600
46.731,60.5332,0.001600
46.747,60.5435,0.001600
46.762,60.5532,0.001600
46.778,60.5628,0.001600
46.794,60.5723,0.001600
46.811,60.5820,0.001600
46.827,60.5910,0.001600
46.842,60.5996,0.001600
46.859,60.6084,0.001600
46.875,60.6172,0.001600
46.891,60.6254,0.001600
46.906,60.6332,0.001534
46.922,60.6413,0.001534
46.939,60.6492,0.001534
46.954,60.6565,0.001534
46.971,60.6641,0.001534
46.987,60.6711,0.001534
47.003,60.6783,0.001534
47.019,60.6849,0.001534
47.035,60.6916,0.001534
47.050,60.6978,0.001534
47.067,60.7041,0.001534
47.082,60.7100,0.001534
47.098,60.7163,0.001534
47.122,60.7240,0.001534
47.138,60.7293,0.001534
47.153,60.7344,0.001534
47.169,60.7392,0.001487
47.186,60.7442,0.001487
47.202,60.7487,0.001487
47.217,60.7529,0.001487
47.234,60.7572,0.001487
47.250,60.7612,0.001487
47.266,60.7649,0.001487
47.281,60.7684,0.001487
47.298,60.7719,0.001487
47.314,60.7751,0.001487
47.329,60.7781,0.001487
47.345,60.7809,0.001487
47.362,60.7836,0.001487
47.378,60.7860,0.001487
47.393,60.7882,0.001487
47.409,60.7902,0.001290
47.426,60.7921,0.001290
47.441,60.7938,0.001290
47.458,60.7952,0.001290
47.473,60.7964,0.001290
47.490,60.7975,0.001290
47.506,60.7984,0.001290
47.521,60.7991,0.001290
47.538,60.7996,0.001290
47.554,60.7999,0.001290
47.569,60.8000,0.001290
47.585,60.8000,0.001290
47.603,60.8000,0.001290
47.631,60.8000,0.001290
47.661,60.8000,0.001290
47.677,60.8000,0.001290
47.694,60.8000,0.001148
47.709,60.8000,0.001148
47.726,60.8000,0.001148
47.742,60.8000,0.001148
47.757,60.8000,0.001148
47.773,60.8000,0.001148
47.790,60.8000,0.001148
47.805,60.8000,0.001148
47.822,60.8000,0.001148
47.837,60.8000,0.001148
47.853,60.8000,0.001148
47.870,60.8000,0.001148
47.886,60.8000,0.001148
47.901,60.8000,0.001148
47.918,60.8000,0.001148
47.933,60.8000,0.001280
47.949,60.8000,0.001280
47.965,60.8000,0.001280
47.981,60.8000,0.001280
47.997,60.8000,0.001280
48.013,60.8000,0.001280
48.029,60.8000,0.001280
48.046,60.8000,0.001280
48.061,60.8000,0.001280
48.078,60.8000,0.001280
48.093,60.8000,0.001280
48.109,60.8000,0.001280
48.125,60.8000,0.001280
48.141,60.8000,0.001280
48.157,60.8000,0.001280
48.173,60.8000,0.001280
48.189,60.8000,0.001280
48.217,60.8000,0.001421
48.233,60.8000,0.001421
48.249,60.8000,0.001421
48.265,60.8000,0.001421
48.284,60.8000,0.001421
48.301,60.8000,0.001421
48.325,60.8000,0.001421
48.345,60.8000,0.001421
48.361,60.8000,0.001421
48.377,60.8000,0.001421
48.393,60.8000,0.001421
48.409,60.8000,0.001421
48.425,60.8000,0.001421
48.441,60.8000,0.001468
48.457,60.8000,0.001468
48.473,60.8000,0.001468
48.489,60.8000,0.001468
48.505,60.8000,0.001468
48.521,60.8000,0.001468
48.537,60.8000,0.001468
48.553,60.8000,0.001468
48.569,60.8000,0.001468
48.585,60.8000,0.001468
48.601,60.8000,0.001468
48.617,60.8000,0.001468
48.633,60.8000,0.001468
48.649,60.8000,0.001468
48.665,60.8000,0.001468
48.681,60.8000,0.001440
48.697,60.8000,0.001440
48.713,60.8000,0.001440
48.730,60.8000,0.001440
48.756,60.8000,0.001440
48.778,60.8000,0.001440
48.793,60.8000,0.001440
48.809,60.8000,0.001440
48.825,60.8000,0.001440
48.841,60.8000,0.001440
48.857,60.8000,0.001440
48.873,60.8000,0.001440
48.889,60.8000,0.001440
48.905,60.8000,0.001440
48.921,60.8000,0.001421
48.937,60.8000,0.001421
48.953,60.8000,0.001421
48.969,60.8000,0.001421
48.985,60.8000,0.001421
49.001,60.8000,0.001421
49.017,60.8000,0.001421
49.033,60.8000,0.001421
49.049,60.8000,0.001421
49.065,60.8000,0.001421
49.081,60.8000,0.001421
49.097,60.8000,0.001421
49.113,60.8000,0.001421
49.131,60.8000,0.001421
49.160,60.8000,0.001421
49.177,60.8000,0.001421
49.193,60.8000,0.001421
49.210,60.8000,0.001421
49.238,60.8000,0.001421
49.258,60.8000,0.001421
49.286,60.8000,0.001421
49.305,60.8000,0.001421
49.321,60.8000,0.001421
49.336,60.8000,0.001421
49.353,60.8000,0.001421
49.369,60.8000,0.001421
49.384,60.8000,0.001421
49.400,60.8000,0.001421
49.416,60.8000,0.001374
49.433,60.8000,0.001374
49.449,60.8000,0.001374
49.464,60.8000,0.001374
49.480,60.8000,0.001374
49.496,60.8000,0.001374
49.513,60.8000,0.001374
49.529,60.8000,0.001374
49.556,60.8000,0.001374
49.576,60.8000,0.001374
49.593,60.8000,0.001374
49.609,60.8000,0.001374
49.624,60.8000,0.001374
49.641,60.8000,0.001374
49.657,60.8000,0.001374
49.673,60.8000,0.001374
49.689,60.8000,0.001384
49.704,60.8000,0.001384
49.726,60.8000,0.001384
49.749,60.8000,0.001384
49.768,60.8000,0.001384
49.786,60.8000,0.001384
49.801,60.8000,0.001384
49.817,60.8000,0.001384
49.841,60.8000,0.001384
49.856,60.8000,0.001384
49.874,60.8000,0.001384
49.903,60.8000,0.001384
49.923,60.8000,0.001384
49.951,60.8000,0.001431
49.969,60.8000,0.001431
49.997,60.8000,0.001431
50.016,60.8000,0.001431
50.033,60.8000,0.001431
50.049,60.8000,0.001431
50.066,60.8000,0.001431
50.090,60.8000,0.001431
50.121,60.8000,0.001431
50.137,60.8000,0.001431
50.168,60.8000,0.001431
50.199,60.8000,0.001487
50.229,60.8000,0.001487
50.260,60.8000,0.001487
50.290,60.8000,0.001487
50.305,60.8000,0.001487
50.321,60.8000,0.001487
50.352,60.8000,0.001487
50.368,60.8000,0.001487
50.399,60.8000,0.001487
50.414,60.8000,0.001487
50.431,60.8000,0.001497
50.446,60.8000,0.001497
50.463,60.8000,0.001497
50.479,60.8000,0.001497
50.494,60.8000,0.001497
50.510,60.8000,0.001497
50.526,60.8000,0.001497
50.543,60.8000,0.001497
50.559,60.8000,0.001497
50.574,60.8000,0.001497
50.591,60.8000,0.001497
50.607,60.8000,0.001497
50.623,60.8000,0.001497
50.638,60.8000,0.001497
50.655,60.8000,0.001497
50.670,60.8000,0.001497
50.686,60.8000,0.001431
50.702,60.8000,0.001431
50.719,60.8000,0.001431
50.734,60.8000,0.001431
50.750,60.8000,0.001431
50.766,60.8000,0.001431
50.783,60.8000,0.001431
50.798,60.8000,0.001431
50.815,60.8000,0.001431
50.831,60.8000,0.001431
50.846,60.8000,0.001431
50.862,60.8000,0.001431
50.878,60.8000,0.001431
50.896,60.8000,0.001431
50.911,60.8000,0.001431
50.927,60.8000,0.001431
50.942,60.8000,0.001431
50.958,60.8000,0.001450
50.974,60.8000,0.001450
50.990,60.8000,0.001450
51.006,60.8000,0.001450
51.022,60.8000,0.001450
51.038,60.8000,0.001450
51.055,60.8000,0.001450
51.070,60.8000,0.001450
51.087,60.8000,0.001450
51.102,60.8000,0.001450
51.119,60.8000,0.001450
51.135,60.8000,0.001450
51.150,60.8000,0.001450
51.166,60.8000,0.001421
51.182,60.8000,0.001421
51.198,60.8000,0.001421
51.214,60.8000,0.001421
51.230,60.8000,0.001421
51.246,60.8000,0.001421
51.262,60.8000,0.001421
51.278,60.8000,0.001421
51.294,60.8000,0.001421
51.310,60.8000,0.001421
51.326,60.8000,0.001421
51.342,60.8000,0.001421
51.358,60.8000,0.001421
51.374,60.8000,0.001421
51.392,60.8000,0.001421
51.418,60.8000,0.001308
51.438,60.8000,0.001308
51.454,60.8000,0.001308
51.470,60.8000,0.001308
51.486,60.8000,0.001308
51.512,60.8000,0.001308
51.527,60.8000,0.001308
51.543,60.8000,0.001308
51.559,60.8000,0.001308
51.575,60.8000,0.001308
51.591,60.8000,0.001308
51.607,60.8000,0.001308
51.623,60.8000,0.001308
51.639,60.8000,0.001308
51.655,60.8000,0.001308
51.671,60.8000,0.001224
51.687,60.8000,0.001224
51.704,60.8000,0.001224
51.727,60.8000,0.001224
51.758,60.8000,0.001224
51.789,60.8000,0.001224
51.821,60.8000,0.001224
51.851,60.7996,0.001224
51.867,60.7991,0.001224
51.883,60.7985,0.001224
51.913,60.7967,0.001233
51.944,60.7941,0.001233
51.962,60.7922,0.001233
51.989,60.7890,0.001233
52.008,60.7865,0.001233
52.023,60.7843,0.001233
52.039,60.7817,0.001233
52.065,60.7772,0.001233
52.081,60.7740,0.001233
52.097,60.7707,0.001233
52.113,60.7673,0.001233
52.129,60.7635,0.001233
52.146,60.7596,0.001233
52.161,60.7557,0.001939
52.177,60.7515,0.001939
52.193,60.7471,0.001939
52.209,60.7423,0.001939
52.225,60.7376,0.001939
52.241,60.7327,0.001939
52.257,60.7271,0.001939
52.273,60.7221,0.001939
52.293,60.7149,0.001939
52.315,60.7067,0.001939
52.331,60.7005,0.001939
52.361,60.6886,0.001939
52.392,60.6754,0.001939
52.422,60.6625,0.004292
52.452,60.6476,0.004292
52.483,60.6328,0.004292
52.499,60.6250,0.004292
52.530,60.6085,0.004292
52.546,60.5998,0.004292
52.576,60.5828,0.004292
52.593,60.5733,0.004292
52.623,60.5551,0.004292
52.639,60.5453,0.004292
52.655,60.5352,0.003906
52.670,60.5255,0.003906
52.693,60.5109,0.003906
52.718,60.4943,0.003906
52.735,60.4825,0.003906
52.751,60.4713,0.003906
52.767,60.4596,0.003906
52.783,60.4482,0.003906
52.798,60.4369,0.003906
52.816,60.4226,0.003906
52.838,60.4067,0.003906
52.870,60.3818,0.003906
52.901,60.3569,0.003906
52.931,60.3316,0.001760
52.947,60.3177,0.001760
52.978,60.2918,0.001760
53.009,60.2632,0.001760
53.025,60.2491,0.001760
53.055,60.2213,0.001760
53.071,60.2067,0.001760
53.086,60.1913,0.001760
53.102,60.1764,0.001760
53.119,60.1602,0.001760
53.149,60.1308,0.001760
53.180,60.0989,0.001685
53.195,60.0828,0.001685
53.212,60.0650,0.001685
53.242,60.0321,0.001685
53.259,60.0147,0.001685
53.275,59.9971,0.001685
53.291,59.9793,0.001685
53.308,59.9607,0.001685
53.324,59.9430,0.001685
53.339,59.9249,0.001685
53.356,59.9062,0.001685
53.372,59.8863,0.001685
53.388,59.8675,0.001685
53.412,59.8393,0.001685
53.428,59.8196,0.001685
53.459,59.7817,0.001685
53.489,59.7437,0.001685
53.520,59.7049,0.001685
53.551,59.6648,0.001685
53.581,59.6245,0.001685
53.612,59.5835,0.001685
53.628,59.5615,0.001685
53.651,59.5296,0.001685
53.675,59.4960,0.001685
53.691,59.4730,0.001685
53.720,59.4309,0.001704
53.737,59.4075,0.001704
53.752,59.3855,0.001704
53.768,59.3613,0.001704
53.786,59.3328,0.001704
53.813,59.2945,0.001704
53.832,59.2655,0.001704
53.848,59.2402,0.001704
53.864,59.2165,0.001704
53.881,59.1898,0.001704
53.896,59.1669,0.001704
53.913,59.1403,0.001704
53.928,59.1156,0.001704
53.944,59.0905,0.001770
53.960,59.0642,0.001770
53.976,59.0386,0.001770
53.992,59.0127,0.001770
54.008,58.9863,0.001770
54.024,58.9593,0.001770
54.040,58.9312,0.001770
54.056,58.9057,0.001770
54.072,58.8788,0.001770
54.088,58.8510,0.001770
54.104,58.8218,0.001770
54.120,58.7957,0.001770
54.136,58.7679,0.001770
54.153,58.7373,0.001770
54.178,58.6925,0.001770
54.200,58.6538,0.001864
54.218,58.6220,0.001864
54.248,58.5655,0.001864
54.274,58.5186,0.001864
54.290,58.4876,0.001864
54.306,58.4582,0.001864
54.322,58.4287,0.001864
54.338,58.3972,0.001864
54.354,58.3677,0.001864
54.370,58.3370,0.001864
54.389,58.2973,0.001864
54.417,58.2449,0.001864
54.434,58.2113,0.001920
54.450,58.1779,0.001920
54.466,58.1474,0.001920
54.482,58.1163,0.001920
54.498,58.0830,0.001920
54.514,58.0509,0.001920
54.530,58.0182,0.001920
54.546,57.9834,0.001920
54.562,57.9523,0.001920
54.578,57.9186,0.001920
54.594,57.8857,0.001920
54.610,57.8507,0.001920
54.626,57.8170,0.001920
54.642,57.7831,0.001920
54.658,57.7497,0.001920
54.674,57.7136,0.001949
54.690,57.6809,0.001949
54.706,57.6460,0.001949
54.722,57.6142,0.001949
54.738,57.5820,0.001949
54.754,57.5479,0.001949
54.770,57.5149,0.001949
54.787,57.4816,0.001949
54.802,57.4508,0.001949
54.824,57.4049,0.001949
54.852,57.3491,0.001949
54.871,57.3133,0.001949
54.887,57.2811,0.001949
54.903,57.2488,0.001949
54.920,57.2171,0.001967
54.944,57.1710,0.001967
54.975,57.1119,0.001967
55.006,57.0535,0.001967
55.037,56.9963,0.001967
55.067,56.9410,0.001967
55.099,56.8842,0.001967
55.114,56.8548,0.001967
55.145,56.8000,0.001967
55.176,56.7473,0.002043
55.193,56.7172,0.002043
55.222,56.6668,0.002043
55.239,56.6393,0.002043
55.254,56.6126,0.002043
55.270,56.5858,0.002043
55.286,56.5596,0.002043
55.303,56.5326,0.002043
55.319,56.5061,0.002043
55.334,56.4808,0.002043
55.350,56.4552,0.002043
55.377,56.4119,0.002043
55.394,56.3848,0.002043
55.410,56.3610,0.002137
55.426,56.3363,0.002137
55.442,56.3111,0.002137
55.458,56.2870,0.002137
55.474,56.2629,0.002137
55.489,56.2392,0.002137
55.511,56.2061,0.002137
55.537,56.1689,0.002137
55.553,56.1445,0.002137
55.569,56.1213,0.002137
55.585,56.0985,0.002137
55.601,56.0757,0.002137
55.618,56.0530,0.002137
55.634,56.0307,0.002137
55.650,56.0071,0.002137
55.665,55.9868,0.002193
55.681,55.9651,0.002193
55.698,55.9424,0.002193
55.714,55.9207,0.002193
55.729,55.9010,0.002193
55.746,55.8785,0.002193
55.765,55.8548,0.002193
55.781,55.8335,0.002193
55.797,55.8124,0.002193
55.828,55.7736,0.002193
55.844,55.7540,0.002193
55.875,55.7169,0.002193
55.890,55.6977,0.002193
55.906,55.6793,0.002193
55.921,55.6615,0.002193
55.938,55.6399,0.002231
55.954,55.6234,0.002231
55.970,55.6050,0.002231
55.985,55.5877,0.002231
56.003,55.5673,0.002231
56.030,55.5374,0.002231
56.049,55.5170,0.002231
56.066,55.4992,0.002231
56.081,55.4832,0.002231
56.097,55.4664,0.002231
56.113,55.4498,0.002231
56.129,55.4335,0.002231
56.147,55.4152,0.002231
56.168,55.3935,0.002353
56.184,55.3784,0.002353
56.215,55.3483,0.002353
56.231,55.3336,0.002353
56.247,55.3195,0.002353
56.262,55.3047,0.002353
56.293,55.2764,0.002353
56.309,55.2626,0.002353
56.325,55.2480,0.002353
56.355,55.2221,0.002353
56.371,55.2093,0.002353
56.403,55.1832,0.002353
56.419,55.1706,0.002504
56.435,55.1579,0.002504
56.466,55.1338,0.002504
56.481,55.1222,0.002504
56.497,55.1102,0.002504
56.513,55.0987,0.002504
56.530,55.0869,0.002504
56.545,55.0760,0.002504
56.561,55.0643,0.002504
56.577,55.0536,0.002504
56.593,55.0430,0.002504
56.609,55.0325,0.002504
56.626,55.0219,0.002504
56.641,55.0120,0.002504
56.657,55.0019,0.002551
56.673,54.9921,0.002551
56.690,54.9817,0.002551
56.714,54.9682,0.002551
56.744,54.9509,0.002551
56.776,54.9339,0.002551
56.806,54.9182,0.002551
56.838,54.9024,0.002551
56.868,54.8886,0.002551
56.885,54.8810,0.002551
56.915,54.8680,0.002664
56.946,54.8549,0.002664
56.963,54.8486,0.002664
56.979,54.8424,0.002664
57.010,54.8313,0.002664
57.041,54.8207,0.002664
57.058,54.8154,0.002664
57.086,54.8066,0.002664
57.104,54.8014,0.002664
57.120,54.7972,0.002664
57.136,54.7931,0.002664
57.153,54.7888,0.002664
57.172,54.7840,0.002664
57.195,54.7793,0.002739
57.216,54.7751,0.002739
57.235,54.7715,0.002739
57.256,54.7678,0.002739
57.290,54.7627,0.002739
57.318,54.7591,0.002739
57.349,54.7559,0.002739
57.365,54.7545,0.002739
57.380,54.7532,0.002739
57.395,54.7523,0.002739
57.410,54.7515,0.002739
57.426,54.7508,0.002739
57.442,54.7504,0.002767
57.473,54.7500,0.002767
57.489,54.7500,0.002767
57.504,54.7500,0.002767
57.520,54.7500,0.002767
57.538,54.7500,0.002767
57.566,54.7500,0.002767
57.584,54.7500,0.002767
57.600,54.7500,0.002767
57.615,54.7500,0.002767
57.632,54.7503,0.002767
57.648,54.7508,0.002767
57.665,54.7514,0.002767
57.681,54.7523,0.002767
57.696,54.7532,0.002805
57.712,54.7545,0.002805
57.729,54.7560,0.002805
57.746,54.7577,0.002805
57.768,54.7603,0.002805
57.799,54.7645,0.002805
57.815,54.7670,0.002805
57.831,54.7695,0.002805
57.861,54.7752,0.002805
57.877,54.7784,0.002805
57.908,54.7852,0.002805
57.931,54.7907,0.002805
57.951,54.7958,0.002805
57.967,54.8001,0.002720
57.984,54.8047,0.002720
58.000,54.8094,0.002720
58.016,54.8143,0.002720
58.031,54.8194,0.002720
58.047,54.8246,0.002720
58.064,54.8301,0.002720
58.079,54.8361,0.002720
58.097,54.8423,0.002720
58.127,54.8536,0.002720
58.157,54.8664,0.002720
58.174,54.8731,0.002720
58.189,54.8799,0.002655
58.205,54.8872,0.002655
58.222,54.8950,0.002655
58.238,54.9021,0.002655
58.253,54.9098,0.002655
58.269,54.9177,0.002655
58.290,54.9284,0.002655
58.312,54.9405,0.002655
58.333,54.9517,0.002655
58.349,54.9607,0.002655
58.366,54.9702,0.002655
58.382,54.9795,0.002655
58.397,54.9883,0.002655
58.424,55.0051,0.002655
58.445,55.0180,0.002655
58.461,55.0282,0.002636
58.478,55.0397,0.002636
58.498,55.0531,0.002636
58.528,55.0736,0.002636
58.544,55.0845,0.002636
58.574,55.1072,0.002636
58.605,55.1298,0.002636
58.621,55.1418,0.002636
58.637,55.1542,0.002636
58.654,55.1681,0.002636
58.669,55.1801,0.002636
58.685,55.1925,0.002636
58.715,55.2176,0.002560
58.731,55.2315,0.002560
58.747,55.2454,0.002560
58.763,55.2586,0.002560
58.785,55.2782,0.002560
58.807,55.2988,0.002560
58.827,55.3168,0.002560
58.844,55.3329,0.002560
58.870,55.3572,0.002560
58.891,55.3770,0.002560
58.907,55.3941,0.002560
58.923,55.4096,0.002560
58.940,55.4258,0.002560
58.962,55.4486,0.002560
58.993,55.4805,0.002560
59.024,55.5141,0.002560
59.056,55.5490,0.002560
59.086,55.5818,0.002560
59.101,55.6002,0.002560
59.117,55.6177,0.002560
59.133,55.6364,0.002560
59.164,55.6725,0.002560
59.194,55.7079,0.002485
59.213,55.7306,0.002485
59.241,55.7650,0.002485
59.273,55.8045,0.002485
59.288,55.8247,0.002485
59.305,55.8455,0.002485
59.321,55.8664,0.002485
59.336,55.8873,0.002485
59.352,55.9079,0.002485
59.368,55.9289,0.002485
59.385,55.9518,0.002485
59.401,55.9730,0.002485
59.417,55.9946,0.002485
59.432,56.0168,0.002316
59.448,56.0384,0.002316
59.465,56.0621,0.002316
59.481,56.0836,0.002316
59.496,56.1061,0.002316
59.513,56.1292,0.002316
59.528,56.1533,0.002316
59.544,56.1758,0.002316
59.561,56.2000,0.002316
59.577,56.2238,0.002316
59.593,56.2481,0.002316
59.608,56.2713,0.002316
59.625,56.2962,0.002316
59.641,56.3208,0.002316
59.656,56.3455,0.002316
59.673,56.3708,0.002203
59.689,56.3958,0.002203
59.704,56.4205,0.002203
59.721,56.4469,0.002203
59.736,56.4718,0.002203
59.752,56.4985,0.002203
59.769,56.5247,0.002203
59.785,56.5515,0.002203
59.800,56.5764,0.002203
59.829,56.6262,0.002203
59.845,56.6524,0.002203
59.861,56.6793,0.002203
59.878,56.7075,0.002203
59.895,56.7399,0.002203
59.923,56.7862,0.002090
59.942,56.8189,0.002090
59.958,56.8478,0.002090
59.973,56.8755,0.002090
59.990,56.9051,0.002090
60.005,56.9338,0.002090
60.022,56.9633,0.002090
60.037,56.9920,0.002090
60.054,57.0232,0.002090
60.069,57.0512,0.002090
60.085,57.0814,0.002090
60.102,57.1134,0.002090
60.117,57.1413,0.002090
60.133,57.1718,0.002090
60.150,57.2047,0.002090
60.170,57.2448,0.002090
60.186,57.2750,0.002014
60.202,57.3058,0.002014
60.219,57.3385,0.002014
60.248,57.3978,0.002014
60.280,57.4604,0.002014
60.310,57.5241,0.002014
60.325,57.5543,0.002014
60.342,57.5882,0.002014
60.357,57.6204,0.002014
60.388,57.6862,0.002014
60.411,57.7349,0.002014
60.433,57.7817,0.002014
60.451,57.8185,0.001930
60.473,57.8640,0.001930
60.496,57.9122,0.001930
60.515,57.9513,0.001930
60.531,57.9846,0.001930
60.548,58.0188,0.001930
60.563,58.0493,0.001930
60.580,58.0827,0.001930
60.596,58.1149,0.001930
60.611,58.1457,0.001930
60.627,58.1773,0.001930
60.644,58.2099,0.001930
60.659,58.2414,0.001930
60.675,58.2709,0.001911
60.691,58.3024,0.001911
60.708,58.3353,0.001911
60.723,58.3634,0.001911
60.739,58.3935,0.001911
60.755,58.4243,0.001911
60.771,58.4540,0.001911
60.787,58.4834,0.001911
60.803,58.5133,0.001911
60.819,58.5419,0.001911
60.835,58.5713,0.001911
60.852,58.6014,0.001911
60.867,58.6301,0.001911
60.888,58.6664,0.001911
60.914,58.7136,0.001911
60.938,58.7540,0.001911
60.961,58.7948,0.001939
60.979,58.8256,0.001939
60.995,58.8528,0.001939
61.011,58.8796,0.001939
61.027,58.9063,0.001939
61.043,58.9330,0.001939
61.059,58.9593,0.001939
61.075,58.9863,0.001939
61.093,59.0139,0.001939
61.115,59.0508,0.001939
61.146,59.1009,0.001939
61.162,59.1243,0.001939
61.178,59.1505,0.001939
61.209,59.1990,0.001883
61.240,59.2454,0.001883
61.271,59.2926,0.001883
61.302,59.3380,0.001883
61.318,59.3602,0.001883
61.334,59.3839,0.001883
61.350,59.4057,0.001883
61.380,59.4490,0.001883
61.411,59.4924,0.001883
61.427,59.5138,0.001883
61.458,59.5561,0.001779
61.473,59.5759,0.001779
61.489,59.5970,0.001779
61.505,59.6181,0.001779
61.521,59.6390,0.001779
61.537,59.6602,0.001779
61.553,59.6800,0.001779
61.569,59.7000,0.001779
61.585,59.7208,0.001779
61.601,59.7400,0.001779
61.617,59.7601,0.001779
61.633,59.7795,0.001779
61.650,59.8011,0.001779
61.673,59.8279,0.001779
61.704,59.8651,0.001694
61.720,59.8822,0.001694
61.751,59.9166,0.001694
61.767,59.9357,0.001694
61.798,59.9692,0.001694
61.814,59.9863,0.001694
61.844,60.0195,0.001694
61.861,60.0361,0.001694
61.891,60.0681,0.001694
61.906,60.0830,0.001694
61.923,60.0994,0.001666
61.953,60.1289,0.001666
61.984,60.1582,0.001666
61.999,60.1731,0.001666
62.015,60.1878,0.001666
62.032,60.2037,0.001666
62.048,60.2173,0.001666
62.064,60.2317,0.001666
62.080,60.2460,0.001666
62.096,60.2596,0.001666
62.111,60.2729,0.001666
62.128,60.2864,0.001666
62.145,60.3016,0.001666
62.169,60.3208,0.001666
62.185,60.3339,0.001628
62.209,60.3518,0.001628
62.231,60.3695,0.001628
62.247,60.3813,0.001628
62.262,60.3925,0.001628
62.278,60.4040,0.001628
62.309,60.4265,0.001628
62.340,60.4473,0.001628
62.371,60.4684,0.001628
62.388,60.4792,0.001628
62.418,60.4981,0.001572
62.434,60.5082,0.001572
62.465,60.5262,0.001572
62.495,60.5433,0.001572
62.512,60.5525,0.001572
62.528,60.5618,0.001572
62.544,60.5701,0.001572
62.559,60.5776,0.001572
62.576,60.5862,0.001572
62.604,60.5998,0.001572
62.623,60.6088,0.001572
62.641,60.6168,0.001572
62.656,60.6235,0.001572
62.671,60.6301,0.001563
62.687,60.6369,0.001563
62.705,60.6442,0.001563
62.728,60.6530,0.001563
62.759,60.6647,0.001563
62.790,60.6755,0.001563
62.820,60.6852,0.001563
62.851,60.6945,0.001563
62.882,60.7029,0.001563
62.898,60.7072,0.001563
62.929,60.7147,0.001478
62.944,60.7183,0.001478
62.960,60.7215,0.001478
62.976,60.7247,0.001478
62.991,60.7277,0.001478
63.015,60.7319,0.001478
63.037,60.7354,0.001478
63.056,60.7380,0.001478
63.072,60.7400,0.001478
63.089,60.7420,0.001478
63.114,60.7446,0.001478
63.135,60.7463,0.001478
63.153,60.7475,0.001478
63.176,60.7488,0.001478
63.192,60.7494,0.001243
63.224,60.7500,0.001243
63.240,60.7500,0.001243
63.270,60.7500,0.001243
63.301,60.7500,0.001243
63.316,60.7500,0.001243
63.348,60.7500,0.001243
63.379,60.7500,0.001243
63.410,60.7500,0.001243
63.440,60.7500,0.001233
63.457,60.7500,0.001233
63.473,60.7500,0.001233
63.488,60.7500,0.001233
63.505,60.7500,0.001233
63.536,60.7500,0.001233
63.551,60.7500,0.001233
63.582,60.7500,0.001233
63.611,60.7500,0.001233
63.629,60.7500,0.001233
63.645,60.7500,0.001233
63.661,60.7500,0.001233
63.677,60.7500,0.001346
63.693,60.7500,0.001346
63.709,60.7500,0.001346
63.725,60.7500,0.001346
63.741,60.7500,0.001346
63.757,60.7500,0.001346
63.773,60.7500,0.001346
63.789,60.7500,0.001346
63.805,60.7500,0.001346
63.821,60.7500,0.001346
63.837,60.7500,0.001346
63.853,60.7500,0.001346
63.869,60.7500,0.001346
63.885,60.7500,0.001346
63.901,60.7500,0.001346
63.918,60.7500,0.001393
63.937,60.7500,0.001393
63.954,60.7500,0.001393
63.984,60.7500,0.001393
64.014,60.7500,0.001393
64.029,60.7500,0.001393
64.045,60.7500,0.001393
64.061,60.7500,0.001393
64.078,60.7500,0.001393
64.107,60.7500,0.001393
64.138,60.7500,0.001393
64.154,60.7500,0.001393
64.170,60.7500,0.001403
64.186,60.7500,0.001403
64.202,60.7500,0.001403
64.218,60.7500,0.001403
64.234,60.7500,0.001403
64.250,60.7500,0.001403
64.266,60.7500,0.001403
64.282,60.7500,0.001403
64.298,60.7500,0.001403
64.314,60.7500,0.001403
64.330,60.7500,0.001403
64.346,60.7500,0.001403
64.362,60.7500,0.001403
64.378,60.7500,0.001403
64.395,60.7500,0.001403
64.418,60.7500,0.001403
64.449,60.7500,0.001412
64.480,60.7500,0.001412
64.511,60.7500,0.001412
64.527,60.7500,0.001412
64.558,60.7500,0.001412
64.574,60.7500,0.001412
64.604,60.7500,0.001412
64.635,60.7500,0.001412
64.651,60.7500,0.001412
64.667,60.7500,0.001412
64.682,60.7500,0.001412
64.698,60.7500,0.001431
64.714,60.7500,0.001431
64.729,60.7500,0.001431
64.746,60.7500,0.001431
64.762,60.7500,0.001431
64.778,60.7500,0.001431
64.794,60.7500,0.001431
64.810,60.7500,0.001431
64.828,60.7500,0.001431
64.852,60.7500,0.001431
64.874,60.7500,0.001431
64.891,60.7500,0.001431
64.915,60.7500,0.001431
64.931,60.7500,0.001431
64.962,60.7500,0.001431
64.992,60.7500,0.001431
65.008,60.7500,0.001431
65.039,60.7500,0.001431
65.070,60.7500,0.001431
65.101,60.7500,0.001431
65.132,60.7500,0.001431
65.148,60.7500,0.001431
65.163,60.7500,0.001412
65.179,60.7500,0.001412
65.195,60.7500,0.001412
65.226,60.7500,0.001412
65.257,60.7500,0.001412
65.273,60.7500,0.001412
65.289,60.7500,0.001412
65.305,60.7500,0.001412
65.321,60.7500,0.001412
65.349,60.7500,0.001412
65.368,60.7500,0.001412
65.385,60.7500,0.001412
65.412,60.7500,0.001421
65.432,60.7500,0.001421
65.449,60.7500,0.001421
65.465,60.7500,0.001421
65.481,60.7500,0.001421
65.496,60.7500,0.001421
65.513,60.7500,0.001421
65.528,60.7500,0.001421
65.544,60.7500,0.001421
65.560,60.7500,0.001421
65.577,60.7500,0.001421
65.593,60.7500,0.001421
65.608,60.7500,0.001421
65.624,60.7500,0.001421
65.641,60.7500,0.001421
65.659,60.7500,0.001440
65.675,60.7500,0.001440
65.690,60.7500,0.001440
65.722,60.7500,0.001440
65.752,60.7500,0.001440
65.769,60.7500,0.001440
65.798,60.7500,0.001440
65.817,60.7500,0.001440
65.844,60.7500,0.001440
65.864,60.7500,0.001440
65.880,60.7500,0.001440
65.896,60.7500,0.001440
65.912,60.7500,0.001431
65.928,60.7500,0.001431
65.945,60.7500,0.001431
65.967,60.7500,0.001431
65.982,60.7500,0.001431
66.013,60.7500,0.001431
66.029,60.7500,0.001431
66.060,60.7500,0.001431
66.076,60.7500,0.001431
66.092,60.7500,0.001431
66.122,60.7500,0.001431
66.138,60.7500,0.001431
66.154,60.7500,0.001431
66.170,60.7500,0.001459
66.201,60.7500,0.001459
66.216,60.7500,0.001459
66.232,60.7500,0.001459
66.248,60.7500,0.001459
66.265,60.7500,0.001459
66.280,60.7500,0.001459
66.297,60.7500,0.001459
66.324,60.7500,0.001459
66.344,60.7500,0.001459
66.360,60.7500,0.001459
66.377,60.7500,0.001459
66.393,60.7500,0.001459
66.408,60.7500,0.001440
66.425,60.7500,0.001440
66.440,60.7500,0.001440
66.456,60.7500,0.001440
66.472,60.7500,0.001440
66.489,60.7500,0.001440
66.509,60.7500,0.001440
66.540,60.7500,0.001440
66.556,60.7500,0.001440
66.586,60.7500,0.001440
66.617,60.7500,0.001440
66.648,60.7500,0.001440
66.665,60.7500,0.001440
66.695,60.7500,0.001468
66.712,60.7500,0.001468
66.728,60.7500,0.001468
66.744,60.7500,0.001468
66.760,60.7500,0.001468
66.776,60.7500,0.001468
66.792,60.7500,0.001468
66.808,60.7500,0.001468
66.824,60.7500,0.001468
66.850,60.7500,0.001468
66.866,60.7500,0.001468
66.883,60.7500,0.001468
66.910,60.7500,0.001468
66.930,60.7500,0.001468
66.946,60.7500,0.001478
66.962,60.7500,0.001478
66.978,60.7500,0.001478
66.994,60.7500,0.001478
67.010,60.7500,0.001478
67.026,60.7500,0.001478
67.044,60.7500,0.001478
67.059,60.7500,0.001478
67.082,60.7500,0.001478
67.097,60.7500,0.001478
67.113,60.7500,0.001478
67.129,60.7500,0.001478
67.159,60.7500,0.001478
67.190,60.7500,0.001403
67.221,60.7500,0.001403
67.252,60.7500,0.001403
67.267,60.7500,0.001403
67.298,60.7500,0.001403
67.314,60.7500,0.001403
67.330,60.7500,0.001403
67.346,60.7500,0.001403
67.362,60.7500,0.001403
67.378,60.7500,0.001403
67.406,60.7500,0.001403
67.422,60.7500,0.001403
67.438,60.7500,0.001412
67.454,60.7500,0.001412
67.470,60.7500,0.001412
67.486,60.7500,0.001412
67.502,60.7500,0.001412
67.518,60.7500,0.001412
67.534,60.7500,0.001412
67.550,60.7500,0.001412
67.566,60.7500,0.001412
67.582,60.7500,0.001412
67.597,60.7500,0.001412
67.613,60.7500,0.001412
67.630,60.7500,0.001412
67.645,60.7500,0.001412
67.662,60.7500,0.001412
67.678,60.7500,0.001412
67.693,60.7500,0.001337
67.710,60.7500,0.001337
67.726,60.7500,0.001337
67.741,60.7500,0.001337
67.758,60.7500,0.001337
67.774,60.7500,0.001337
67.790,60.7500,0.001337
67.806,60.7500,0.001337
67.821,60.7500,0.001337
67.841,60.7500,0.001337
67.869,60.7500,0.001337
67.886,60.7500,0.001337
67.902,60.7500,0.001337
67.918,60.7500,0.001337
67.933,60.7500,0.001337
67.962,60.7500,0.001233
67.979,60.7500,0.001233
67.994,60.7500,0.001233
68.011,60.7500,0.001233
68.026,60.7500,0.001233
68.043,60.7500,0.001233
68.059,60.7500,0.001233
68.075,60.7500,0.001233
68.090,60.7499,0.001233
68.106,60.7495,0.001233
68.123,60.7489,0.001233
68.139,60.7482,0.001233
68.154,60.7473,0.001233
68.170,60.7462,0.001233
68.186,60.7448,0.001224
68.202,60.7433,0.001224
68.219,60.7416,0.001224
68.235,60.7397,0.001224
68.250,60.7377,0.001224
68.266,60.7354,0.001224
68.283,60.7328,0.001224
68.298,60.7303,0.001224
68.314,60.7275,0.001224
68.330,60.7244,0.001224
68.346,60.7211,0.001224
68.363,60.7174,0.001224
68.394,60.7101,0.001224
68.412,60.7056,0.001224
68.441,60.6979,0.002014
68.458,60.6929,0.002014
68.475,60.6880,0.002014
68.491,60.6831,0.002014
68.514,60.6754,0.002014
68.530,60.6698,0.002014
68.546,60.6640,0.002014
68.563,60.6581,0.002014
68.579,60.6520,0.002014
68.595,60.6457,0.002014
68.611,60.6394,0.002014
68.626,60.6326,0.002014
68.642,60.6258,0.002014
68.659,60.6187,0.002014
68.687,60.6055,0.004358
68.707,60.5962,0.004358
68.723,60.5887,0.004358
68.738,60.5809,0.004358
68.754,60.5727,0.004358
68.771,60.5640,0.004358
68.787,60.5557,0.004358
68.802,60.5470,0.004358
68.819,60.5378,0.004358
68.835,60.5286,0.004358
68.851,60.5190,0.004358
68.872,60.5064,0.004358
68.888,60.4970,0.004358
68.919,60.4773,0.003878
68.934,60.4671,0.003878
68.951,60.4557,0.003878
68.982,60.4355,0.003878
69.013,60.4137,0.003878
69.037,60.3956,0.003878
69.053,60.3844,0.003878
69.068,60.3730,0.003878
69.084,60.3607,0.003878
69.101,60.3477,0.003878
69.117,60.3354,0.003878
69.132,60.3230,0.003878
69.149,60.3091,0.003878
69.164,60.2967,0.003878
69.180,60.2833,0.001741
69.196,60.2698,0.001741
69.212,60.2562,0.001741
69.228,60.2418,0.001741
69.244,60.2278,0.001741
69.260,60.2141,0.001741
69.283,60.1927,0.001741
69.306,60.1717,0.001741
69.325,60.1538,0.001741
69.340,60.1392,0.001741
69.356,60.1241,0.001741
69.372,60.1082,0.001741
69.388,60.0925,0.001741
69.405,60.0756,0.001741
69.420,60.0603,0.001741
69.436,60.0430,0.001676
69.452,60.0271,0.001676
69.468,60.0099,0.001676
69.484,59.9927,0.001676
69.500,59.9762,0.001676
69.517,59.9573,0.001676
69.533,59.9400,0.001676
69.551,59.9194,0.001676
69.582,59.8851,0.001676
69.597,59.8669,0.001676
69.612,59.8496,0.001676
69.628,59.8314,0.001676
69.644,59.8123,0.001676
69.660,59.7931,0.001676
69.676,59.7740,0.001704
69.692,59.7545,0.001704
69.709,59.7328,0.001704
69.737,59.6968,0.001704
69.756,59.6739,0.001704
69.772,59.6530,0.001704
69.788,59.6323,0.001704
69.804,59.6124,0.001704
69.820,59.5912,0.001704
69.838,59.5654,0.001704
69.862,59.5350,0.001704
69.892,59.4929,0.001704
69.924,59.4491,0.001704
69.954,59.4059,0.001704
69.970,59.3832,0.001704
69.986,59.3597,0.001704
70.017,59.3156,0.001704
70.033,59.2908,0.001704
70.064,59.2446,0.001704
70.079,59.2216,0.001704
70.106,59.1804,0.001704
70.125,59.1510,0.001704
70.142,59.1242,0.001704
70.173,59.0765,0.001704
70.204,59.0249,0.001770
70.221,58.9978,0.001770
70.252,58.9480,0.001770
70.283,58.8959,0.001770
70.298,58.8703,0.001770
70.329,58.8184,0.001770
70.347,58.7886,0.001770
70.375,58.7397,0.001770
70.393,58.7066,0.001770
70.409,58.6790,0.001770
70.424,58.6517,0.001854
70.441,58.6220,0.001854
70.461,58.5859,0.001854
70.483,58.5460,0.001854
70.499,58.5154,0.001854
70.523,58.4736,0.001854
70.546,58.4294,0.001854
70.562,58.3985,0.001854
70.592,58.3409,0.001854
70.624,58.2800,0.001854
70.644,58.2426,0.001854
70.660,58.2111,0.001854
70.676,58.1799,0.001892
70.692,58.1486,0.001892
70.708,58.1154,0.001892
70.724,58.0844,0.001892
70.740,58.0521,0.001892
70.755,58.0205,0.001892
70.772,57.9860,0.001892
70.787,57.9550,0.001892
70.804,57.9193,0.001892
70.824,57.8786,0.001892
70.855,57.8145,0.001892
70.871,57.7810,0.001892
70.886,57.7461,0.001892
70.903,57.7121,0.001892
70.934,57.6457,0.002024
70.966,57.5796,0.002024
70.995,57.5183,0.002024
71.012,57.4844,0.002024
71.028,57.4519,0.002024
71.043,57.4196,0.002024
71.060,57.3855,0.002024
71.077,57.3529,0.002024
71.092,57.3225,0.002024
71.108,57.2910,0.002024
71.123,57.2604,0.002024
71.140,57.2274,0.002024
71.157,57.1946,0.002024
71.180,57.1500,0.002024
71.200,57.1108,0.002014
71.217,57.0796,0.002014
71.232,57.0500,0.002014
71.248,57.0190,0.002014
71.265,56.9894,0.002014
71.280,56.9606,0.002014
71.296,56.9311,0.002014
71.313,56.9001,0.002014
71.329,56.8707,0.002014
71.345,56.8427,0.002014
71.360,56.8151,0.002014
71.377,56.7841,0.002014
71.395,56.7526,0.002014
71.410,56.7258,0.001996
71.441,56.6725,0.001996
71.463,56.6349,0.001996
71.488,56.5930,0.001996
71.505,56.5635,0.001996
71.521,56.5374,0.001996
71.537,56.5113,0.001996
71.552,56.4854,0.001996
71.569,56.4576,0.001996
71.585,56.4322,0.001996
71.601,56.4067,0.001996
71.616,56.3817,0.001996
71.636,56.3499,0.001996
71.658,56.3158,0.001996
71.673,56.2909,0.001996
71.704,56.2445,0.002127
71.735,56.1970,0.002127
71.754,56.1681,0.002127
71.771,56.1444,0.002127
71.786,56.1212,0.002127
71.802,56.0982,0.002127
71.818,56.0747,0.002127
71.835,56.0503,0.002127
71.858,56.0184,0.002127
71.889,55.9749,0.002127
71.919,55.9340,0.002259
71.934,55.9114,0.002259
71.965,55.8709,0.002259
71.995,55.8313,0.002259
72.010,55.8113,0.002259
72.027,55.7902,0.002259
72.042,55.7706,0.002259
72.058,55.7500,0.002259
72.074,55.7306,0.002259
72.090,55.7106,0.002259
72.106,55.6910,0.002259
72.124,55.6687,0.002259
72.150,55.6379,0.002400
72.170,55.6142,0.002400
72.186,55.5946,0.002400
72.202,55.5770,0.002400
72.218,55.5575,0.002400
72.234,55.5404,0.002400
72.250,55.5223,0.002400
72.267,55.5035,0.002400
72.289,55.4797,0.002400
72.309,55.4579,0.002400
72.325,55.4405,0.002400
72.341,55.4237,0.002400
72.357,55.4075,0.002400
72.373,55.3911,0.002400
72.389,55.3747,0.002400
72.405,55.3585,0.002400
72.421,55.3427,0.002438
72.437,55.3266,0.002438
72.453,55.3114,0.002438
72.469,55.2960,0.002438
72.485,55.2805,0.002438
72.501,55.2663,0.002438
72.517,55.2516,0.002438
72.533,55.2367,0.002438
72.549,55.2227,0.002438
72.566,55.2078,0.002438
72.581,55.1946,0.002438
72.600,55.1778,0.002438
72.629,55.1537,0.002438
72.645,55.1407,0.002438
72.662,55.1273,0.002438
72.691,55.1037,0.002476
72.709,55.0898,0.002476
72.725,55.0776,0.002476
72.741,55.0658,0.002476
72.757,55.0543,0.002476
72.773,55.0426,0.002476
72.789,55.0307,0.002476
72.805,55.0198,0.002476
72.821,55.0087,0.002476
72.847,54.9914,0.002476
72.863,54.9802,0.002476
72.879,54.9707,0.002476
72.895,54.9602,0.002476
72.911,54.9502,0.002476
72.927,54.9406,0.002476
72.943,54.9312,0.002598
72.959,54.9217,0.002598
72.975,54.9126,0.002598
72.991,54.9038,0.002598
73.007,54.8946,0.002598
73.023,54.8857,0.002598
73.042,54.8762,0.002598
73.066,54.8642,0.002598
73.087,54.8537,0.002598
73.103,54.8460,0.002598
73.120,54.8385,0.002598
73.135,54.8311,0.002598
73.151,54.8244,0.002598
73.167,54.8174,0.002598
73.184,54.8107,0.002598
73.204,54.8024,0.002711
73.220,54.7960,0.002711
73.236,54.7901,0.002711
73.266,54.7795,0.002711
73.282,54.7738,0.002711
73.298,54.7687,0.002711
73.313,54.7638,0.002711
73.329,54.7591,0.002711
73.360,54.7501,0.002711
73.391,54.7421,0.002711
73.407,54.7379,0.002711
73.422,54.7344,0.002711
73.438,54.7309,0.002786
73.455,54.7276,0.002786
73.472,54.7242,0.002786
73.487,54.7214,0.002786
73.503,54.7186,0.002786
73.519,54.7160,0.002786
73.535,54.7136,0.002786
73.551,54.7115,0.002786
73.567,54.7095,0.002786
73.583,54.7076,0.002786
73.599,54.7060,0.002786
73.615,54.7045,0.002786
73.631,54.7033,0.002786
73.647,54.7023,0.002786
73.664,54.7014,0.002786
73.679,54.7008,0.002786
73.695,54.7004,0.002796
73.711,54.7002,0.002796
73.728,54.7000,0.002796
73.747,54.7000,0.002796
73.763,54.7000,0.002796
73.779,54.7000,0.002796
73.794,54.7000,0.002796
73.810,54.7000,0.002796
73.825,54.7000,0.002796
73.856,54.7000,0.002796
73.887,54.7000,0.002796
73.902,54.7002,0.002796
73.925,54.7007,0.002796
73.949,54.7017,0.002796
73.981,54.7036,0.002796
74.011,54.7061,0.002796
74.041,54.7096,0.002796
74.072,54.7136,0.002796
74.088,54.7159,0.002796
74.118,54.7210,0.002796
74.149,54.7267,0.002796
74.166,54.7304,0.002796
74.196,54.7370,0.002758
74.212,54.7410,0.002758
74.229,54.7452,0.002758
74.245,54.7495,0.002758
74.260,54.7537,0.002758
74.277,54.7586,0.002758
74.294,54.7638,0.002758
74.309,54.7686,0.002758
74.324,54.7736,0.002758
74.340,54.7790,0.002758
74.356,54.7847,0.002758
74.373,54.7907,0.002758
74.389,54.7967,0.002758
74.404,54.8027,0.002758
74.420,54.8092,0.002758
74.437,54.8160,0.002758
74.452,54.8223,0.002758
74.475,54.8326,0.002711
74.491,54.8398,0.002711
74.508,54.8475,0.002711
74.523,54.8548,0.002711
74.542,54.8644,0.002711
74.567,54.8768,0.002711
74.587,54.8874,0.002711
74.605,54.8971,0.002711
74.628,54.9101,0.002711
74.658,54.9273,0.002711
74.674,54.9369,0.002711
74.705,54.9560,0.002692
74.722,54.9659,0.002692
74.752,54.9859,0.002692
74.783,55.0063,0.002692
74.799,55.0177,0.002692
74.830,55.0392,0.002692
74.845,55.0503,0.002692
74.862,55.0624,0.002692
74.892,55.0851,0.002692
74.923,55.1093,0.002692
74.939,55.1217,0.002617
74.955,55.1350,0.002617
74.974,55.1506,0.002617
75.001,55.1731,0.002617
75.020,55.1884,0.002617
75.044,55.2106,0.002617
75.060,55.2239,0.002617
75.076,55.2386,0.002617
75.092,55.2528,0.002617
75.108,55.2674,0.002617
75.124,55.2831,0.002617
75.141,55.2981,0.002617
75.156,55.3132,0.002551
75.172,55.3287,0.002551
75.188,55.3443,0.002551
75.204,55.3600,0.002551
75.220,55.3761,0.002551
75.236,55.3927,0.002551
75.252,55.4090,0.002551
75.268,55.4253,0.002551
75.284,55.4422,0.002551
75.303,55.4624,0.002551
75.326,55.4885,0.002551
75.348,55.5117,0.002551
75.364,55.5296,0.002551
75.380,55.5487,0.002551
75.397,55.5672,0.002551
75.412,55.5845,0.002447
75.428,55.6033,0.002447
75.444,55.6214,0.002447
75.460,55.6404,0.002447
75.477,55.6613,0.002447
75.492,55.6795,0.002447
75.509,55.7003,0.002447
75.527,55.7227,0.002447
75.543,55.7425,0.002447
75.567,55.7731,0.002447
75.583,55.7933,0.002447
75.599,55.8138,0.002447
75.615,55.8347,0.002447
75.631,55.8567,0.002447
75.647,55.8767,0.002447
75.663,55.8989,0.002447
75.679,55.9204,0.002447
75.695,55.9418,0.002325
75.711,55.9636,0.002325
75.727,55.9858,0.002325
75.743,56.0085,0.002325
75.759,56.0319,0.002325
75.775,56.0541,0.002325
75.791,56.0768,0.002325
75.807,56.1006,0.002325
75.823,56.1240,0.002325
75.839,56.1474,0.002325
75.856,56.1723,0.002325
75.884,56.2145,0.002325
75.903,56.2438,0.002325
75.920,56.2704,0.002325
75.946,56.3092,0.002325
75.977,56.3601,0.002240
76.000,56.3946,0.002240
76.016,56.4214,0.002240
76.039,56.4606,0.002240
76.072,56.5144,0.002240
76.102,56.5631,0.002240
76.117,56.5880,0.002240
76.138,56.6233,0.002240
76.154,56.6504,0.002240
76.170,56.6791,0.002118
76.186,56.7069,0.002118
76.208,56.7454,0.002118
76.226,56.7774,0.002118
76.257,56.8316,0.002118
76.272,56.8598,0.002118
76.303,56.9160,0.002118
76.319,56.9454,0.002118
76.349,57.0027,0.002118
76.365,57.0312,0.002118
76.382,57.0636,0.002118
76.411,57.1201,0.002043
76.443,57.1785,0.002043
76.458,57.2094,0.002043
76.474,57.2404,0.002043
76.504,57.3002,0.002043
76.522,57.3350,0.002043
76.538,57.3669,0.002043
76.553,57.3979,0.002043
76.570,57.4318,0.002043
76.585,57.4637,0.002043
76.601,57.4964,0.002043
76.618,57.5299,0.002043
76.634,57.5631,0.002043
76.649,57.5955,0.002043
76.666,57.6316,0.002043
76.691,57.6819,0.002005
76.707,57.7173,0.002005
76.723,57.7516,0.002005
76.738,57.7836,0.002005
76.757,57.8242,0.002005
76.783,57.8786,0.002005
76.802,57.9166,0.002005
76.822,57.9569,0.002005
76.846,58.0043,0.002005
76.866,58.0462,0.002005
76.883,58.0809,0.002005
76.898,58.1109,0.002005
76.914,58.1417,0.001996
76.930,58.1729,0.001996
76.946,58.2041,0.001996
76.962,58.2358,0.001996
76.979,58.2667,0.001996
76.994,58.2963,0.001996
77.011,58.3285,0.001996
77.027,58.3589,0.001996
77.042,58.3870,0.001996
77.059,58.4189,0.001996
77.081,58.4598,0.001996
77.109,58.5113,0.001996
77.140,58.5668,0.001996
77.170,58.6204,0.001939
77.188,58.6517,0.001939
77.218,58.7049,0.001939
77.249,58.7573,0.001939
77.264,58.7849,0.001939
77.281,58.8127,0.001939
77.296,58.8385,0.001939
77.312,58.8657,0.001939
77.328,58.8913,0.001939
77.344,58.9177,0.001939
77.360,58.9439,0.001939
77.376,58.9700,0.001939
77.392,58.9958,0.001939
77.408,59.0210,0.001826
77.424,59.0464,0.001826
77.441,59.0729,0.001826
77.457,59.0982,0.001826
77.480,59.1349,0.001826
77.511,59.1808,0.001826
77.526,59.2043,0.001826
77.557,59.2498,0.001826
77.587,59.2957,0.001826
77.618,59.3391,0.001826
77.649,59.3844,0.001826
77.680,59.4265,0.001779
77.697,59.4494,0.001779
77.712,59.4706,0.001779
77.728,59.4932,0.001779
77.744,59.5148,0.001779
77.760,59.5351,0.001779
77.787,59.5712,0.001779
77.803,59.5924,0.001779
77.820,59.6135,0.001779
77.849,59.6501,0.001779
77.867,59.6736,0.001779
77.883,59.6927,0.001779
77.899,59.7124,0.001779
77.915,59.7322,0.001779
77.931,59.7513,0.001779
77.947,59.7702,0.001732
77.963,59.7891,0.001732
77.979,59.8079,0.001732
77.995,59.8267,0.001732
78.011,59.8455,0.001732
78.027,59.8628,0.001732
78.044,59.8822,0.001732
78.060,59.8994,0.001732
78.075,59.9157,0.001732
78.091,59.9333,0.001732
78.107,59.9509,0.001732
78.123,59.9672,0.001732
78.139,59.9839,0.001732
78.155,60.0009,0.001732
78.171,60.0169,0.001732
78.187,60.0332,0.001657
78.203,60.0494,0.001657
78.219,60.0654,0.001657
78.235,60.0804,0.001657
78.251,60.0965,0.001657
78.267,60.1116,0.001657
78.284,60.1271,0.001657
78.299,60.1412,0.001657
78.315,60.1553,0.001657
78.347,60.1845,0.001657
78.376,60.2100,0.001657
78.394,60.2248,0.001657
78.411,60.2395,0.001657
78.426,60.2520,0.001657
78.442,60.2648,0.001600
78.458,60.2775,0.001600
78.474,60.2903,0.001600
78.490,60.3028,0.001600
78.506,60.3152,0.001600
78.522,60.3275,0.001600
78.538,60.3396,0.001600
78.554,60.3508,0.001600
78.570,60.3623,0.001600
78.586,60.3736,0.001600
78.602,60.3848,0.001600
78.618,60.3958,0.001600
78.634,60.4065,0.001600
78.650,60.4171,0.001600
78.666,60.4274,0.001600
78.682,60.4377,0.001591
78.698,60.4477,0.001591
78.713,60.4578,0.001591
78.731,60.4679,0.001591
78.747,60.4773,0.001591
78.762,60.4861,0.001591
78.778,60.4949,0.001591
78.793,60.5037,0.001591
78.810,60.5120,0.001591
78.826,60.5205,0.001591
78.842,60.5293,0.001591
78.858,60.5371,0.001591
78.874,60.5448,0.001591
78.902,60.5584,0.001591
78.918,60.5652,0.001591
78.934,60.5728,0.001534
78.950,60.5795,0.001534
78.967,60.5867,0.001534
78.994,60.5977,0.001534
79.014,60.6050,0.001534
79.031,60.6120,0.001534
79.047,60.6172,0.001534
79.062,60.6225,0.001534
79.078,60.6284,0.001534
79.097,60.6343,0.001534
79.112,60.6388,0.001534
79.133,60.6450,0.001534
79.149,60.6494,0.001534
79.180,60.6578,0.001534
79.211,60.6652,0.001384
79.240,60.6716,0.001384
79.271,60.6777,0.001384
79.287,60.6805,0.001384
79.317,60.6854,0.001384
79.334,60.6878,0.001384
79.350,60.6898,0.001384
79.365,60.6916,0.001384
79.383,60.6935,0.001384
79.399,60.6951,0.001384
79.425,60.6971,0.001384
79.445,60.6982,0.001167
79.462,60.6991,0.001167
79.477,60.6996,0.001167
79.494,60.6999,0.001167
79.510,60.7000,0.001167
79.526,60.7000,0.001167
79.542,60.7000,0.001167
79.557,60.7000,0.001167
79.575,60.7000,0.001167
79.597,60.7000,0.001167
79.628,60.7000,0.001167
79.644,60.7000,0.001167
79.674,60.7000,0.001130
79.706,60.7000,0.001130
79.737,60.7000,0.001130
79.752,60.7000,0.001130
79.767,60.7000,0.001130
79.798,60.7000,0.001130
79.815,60.7000,0.001130
79.844,60.7000,0.001130
79.862,60.7000,0.001130
79.878,60.7000,0.001130
79.893,60.7000,0.001130
79.909,60.7000,0.001327
79.925,60.7000,0.001327
79.942,60.7000,0.001327
79.957,60.7000,0.001327
79.973,60.7000,0.001327
79.999,60.7000,0.001327
80.016,60.7000,0.001327
80.031,60.7000,0.001327
80.048,60.7000,0.001327
80.064,60.7000,0.001327
80.080,60.7000,0.001327
80.096,60.7000,0.001327
80.112,60.7000,0.001327
80.128,60.7000,0.001327
80.144,60.7000,0.001327
80.161,60.7000,0.001412
80.186,60.7000,0.001412
80.207,60.7000,0.001412
80.224,60.7000,0.001412
80.240,60.7000,0.001412
80.256,60.7000,0.001412
80.272,60.7000,0.001412
80.287,60.7000,0.001412
80.303,60.7000,0.001412
80.320,60.7000,0.001412
80.336,60.7000,0.001412
80.351,60.7000,0.001412
80.367,60.7000,0.001412
80.384,60.7000,0.001412
80.399,60.7000,0.001412
80.415,60.7000,0.001384
80.431,60.7000,0.001384
80.447,60.7000,0.001384
80.464,60.7000,0.001384
80.479,60.7000,0.001384
80.498,60.7000,0.001384
80.527,60.7000,0.001384
80.543,60.7000,0.001384
80.559,60.7000,0.001384
80.576,60.7000,0.001384
80.604,60.7000,0.001384
80.624,60.7000,0.001384
80.639,60.7000,0.001384
80.655,60.7000,0.001412
80.671,60.7000,0.001412
80.688,60.7000,0.001412
80.703,60.7000,0.001412
80.719,60.7000,0.001412
80.736,60.7000,0.001412
80.752,60.7000,0.001412
80.774,60.7000,0.001412
80.805,60.7000,0.001412
80.836,60.7000,0.001412
80.852,60.7000,0.001412
80.868,60.7000,0.001412
80.884,60.7000,0.001412
80.914,60.7000,0.001459
80.930,60.7000,0.001459
80.960,60.7000,0.001459
80.977,60.7000,0.001459
81.008,60.7000,0.001459
81.023,60.7000,0.001459
81.041,60.7000,0.001459
81.069,60.7000,0.001459
81.102,60.7000,0.001459
81.118,60.7000,0.001459
81.134,60.7000,0.001459
81.150,60.7000,0.001459
81.166,60.7000,0.001459
81.182,60.7000,0.001459
81.198,60.7000,0.001403
81.214,60.7000,0.001403
81.231,60.7000,0.001403
81.256,60.7000,0.001403
81.272,60.7000,0.001403
81.288,60.7000,0.001403
81.319,60.7000,0.001403
81.335,60.7000,0.001403
81.365,60.7000,0.001403
81.396,60.7000,0.001403
81.426,60.7000,0.001403
81.456,60.7000,0.001374
81.471,60.7000,0.001374
81.487,60.7000,0.001374
81.502,60.7000,0.001374
81.518,60.7000,0.001374
81.535,60.7000,0.001374
81.564,60.7000,0.001374
81.582,60.7000,0.001374
81.599,60.7000,0.001374
81.626,60.7000,0.001374
81.646,60.7000,0.001374
81.662,60.7000,0.001374
81.678,60.7000,0.001440
81.694,60.7000,0.001440
81.710,60.7000,0.001440
81.726,60.7000,0.001440
81.742,60.7000,0.001440
81.758,60.7000,0.001440
81.781,60.7000,0.001440
81.796,60.7000,0.001440
81.827,60.7000,0.001440
81.843,60.7000,0.001440
81.874,60.7000,0.001440
81.890,60.7000,0.001440
81.919,60.7000,0.001440
81.935,60.7000,0.001440
81.951,60.7000,0.001440
81.966,60.7000,0.001440
81.982,60.7000,0.001440
81.998,60.7000,0.001440
82.016,60.7000,0.001440
82.033,60.7000,0.001440
82.060,60.7000,0.001440
82.078,60.7000,0.001440
82.094,60.7000,0.001440
82.109,60.7000,0.001440
82.126,60.7000,0.001440
82.142,60.7000,0.001440
82.157,60.7000,0.001440
82.173,60.7000,0.001440
82.200,60.7000,0.001403
82.216,60.7000,0.001403
82.232,60.7000,0.001403
82.248,60.7000,0.001403
82.263,60.7000,0.001403
82.285,60.7000,0.001403
82.308,60.7000,0.001403
82.328,60.7000,0.001403
82.343,60.7000,0.001403
82.360,60.7000,0.001403
82.376,60.7000,0.001403
82.392,60.7000,0.001403
82.407,60.7000,0.001403
82.424,60.7000,0.001421
82.440,60.7000,0.001421
82.455,60.7000,0.001421
82.472,60.7000,0.001421
82.488,60.7000,0.001421
82.504,60.7000,0.001421
82.520,60.7000,0.001421
82.536,60.7000,0.001421
82.551,60.7000,0.001421
82.567,60.7000,0.001421
82.584,60.7000,0.001421
82.604,60.7000,0.001421
82.619,60.7000,0.001421
82.650,60.7000,0.001421
82.665,60.7000,0.001421
82.681,60.7000,0.001468
82.697,60.7000,0.001468
82.728,60.7000,0.001468
82.758,60.7000,0.001468
82.774,60.7000,0.001468
82.790,60.7000,0.001468
82.807,60.7000,0.001468
82.824,60.7000,0.001468
82.839,60.7000,0.001468
82.869,60.7000,0.001468
82.887,60.7000,0.001468
82.903,60.7000,0.001468
82.918,60.7000,0.001478
82.934,60.7000,0.001478
82.951,60.7000,0.001478
82.967,60.7000,0.001478
82.993,60.7000,0.001478
83.009,60.7000,0.001478
83.040,60.7000,0.001478
83.071,60.7000,0.001478
83.087,60.7000,0.001478
83.118,60.7000,0.001478
83.148,60.7000,0.001478
83.179,60.7000,0.001421
83.209,60.7000,0.001421
83.241,60.7000,0.001421
83.271,60.7000,0.001421
83.287,60.7000,0.001421
83.302,60.7000,0.001421
83.318,60.7000,0.001421
83.335,60.7000,0.001421
83.350,60.7000,0.001421
83.366,60.7000,0.001421
83.383,60.7000,0.001421
83.398,60.7000,0.001421
83.414,60.7000,0.001412
83.430,60.7000,0.001412
83.448,60.7000,0.001412
83.472,60.7000,0.001412
83.502,60.7000,0.001412
83.532,60.7000,0.001412
83.563,60.7000,0.001412
83.593,60.7000,0.001412
83.609,60.7000,0.001412
83.626,60.7000,0.001412
83.656,60.7000,0.001403
83.672,60.7000,0.001403
83.704,60.7000,0.001403
83.720,60.7000,0.001403
83.750,60.7000,0.001403
83.766,60.7000,0.001403
83.782,60.7000,0.001403
83.798,60.7000,0.001403
83.817,60.7000,0.001403
83.843,60.7000,0.001403
83.862,60.7000,0.001403
83.879,60.7000,0.001403
83.894,60.7000,0.001403
83.910,60.7000,0.001346
83.926,60.7000,0.001346
83.942,60.7000,0.001346
83.958,60.7000,0.001346
83.974,60.7000,0.001346
83.990,60.7000,0.001346
84.006,60.7000,0.001346
84.022,60.7000,0.001346
84.038,60.7000,0.001346
84.054,60.7000,0.001346
84.070,60.7000,0.001346
84.086,60.7000,0.001346
84.102,60.7000,0.001346
84.122,60.7000,0.001346
84.149,60.7000,0.001346
84.166,60.7000,0.001290
84.182,60.7000,0.001290
84.198,60.7000,0.001290
84.214,60.7000,0.001290
84.230,60.7000,0.001290
84.246,60.7000,0.001290
84.262,60.7000,0.001290
84.279,60.7000,0.001290
84.306,60.7000,0.001290
84.326,60.6997,0.001290
84.342,60.6993,0.001290
84.358,60.6986,0.001290
84.374,60.6977,0.001290
84.402,60.6957,0.001290
84.418,60.6943,0.001290
84.434,60.6929,0.001280
84.450,60.6910,0.001280
84.466,60.6890,0.001280
84.482,60.6869,0.001280
84.498,60.6845,0.001280
84.515,60.6819,0.001280
84.530,60.6792,0.001280
84.547,60.6762,0.001280
84.562,60.6733,0.001280
84.578,60.6699,0.001280
84.594,60.6664,0.001280
84.610,60.6628,0.001280
84.626,60.6589,0.001280
84.643,60.6545,0.001280
84.662,60.6489,0.002297
84.678,60.6447,0.002297
84.696,60.6395,0.002297
84.725,60.6301,0.002297
84.756,60.6197,0.002297
84.772,60.6142,0.002297
84.802,60.6027,0.002297
84.819,60.5962,0.002297
84.834,60.5903,0.002297
84.849,60.5841,0.002297
84.866,60.5770,0.002297
84.882,60.5699,0.002297
84.898,60.5628,0.002297
84.913,60.5556,0.002297
84.941,60.5423,0.004547
84.958,60.5341,0.004547
84.973,60.5262,0.004547
84.990,60.5177,0.004547
85.012,60.5062,0.004547
85.034,60.4934,0.004547
85.053,60.4829,0.004547
85.070,60.4732,0.004547
85.086,60.4638,0.004547
85.102,60.4541,0.004547
85.119,60.4437,0.004547
85.142,60.4288,0.004547
85.172,60.4092,0.003728
85.188,60.3989,0.003728
85.204,60.3876,0.003728
85.234,60.3667,0.003728
85.250,60.3553,0.003728
85.266,60.3432,0.003728
85.297,60.3205,0.003728
85.314,60.3075,0.003728
85.344,60.2839,0.003728
85.374,60.2596,0.003728
85.389,60.2475,0.003728
85.405,60.2340,0.001610
85.422,60.2203,0.001610
85.438,60.2059,0.001610
85.467,60.1803,0.001610
85.498,60.1524,0.001610
85.515,60.1369,0.001610
85.531,60.1228,0.001610
85.546,60.1080,0.001610
85.562,60.0925,0.001610
85.578,60.0777,0.001610
85.594,60.0618,0.001610
85.610,60.0462,0.001610
85.629,60.0272,0.001610
85.653,60.0023,0.001619
85.674,59.9807,0.001619
85.692,59.9619,0.001619
85.716,59.9356,0.001619
85.738,59.9126,0.001619
85.754,59.8946,0.001619
85.770,59.8773,0.001619
85.787,59.8583,0.001619
85.802,59.8408,0.001619
85.819,59.8223,0.001619
85.835,59.8039,0.001619
85.850,59.7857,0.001619
85.866,59.7663,0.001619
85.883,59.7469,0.001619
85.898,59.7282,0.001619
85.914,59.7084,0.001657
85.930,59.6890,0.001657
85.946,59.6689,0.001657
85.963,59.6482,0.001657
85.978,59.6280,0.001657
85.997,59.6053,0.001657
86.026,59.5666,0.001657
86.042,59.5458,0.001657
86.058,59.5242,0.001657
86.075,59.5024,0.001657
86.090,59.4814,0.001657
86.106,59.4596,0.001657
86.122,59.4375,0.001657
86.139,59.4149,0.001657
86.154,59.3930,0.001704
86.170,59.3706,0.001704
86.188,59.3453,0.001704
86.213,59.3079,0.001704
86.234,59.2782,0.001704
86.251,59.2537,0.001704
86.266,59.2295,0.001704
86.283,59.2058,0.001704
86.298,59.1829,0.001704
86.314,59.1569,0.001704
86.330,59.1338,0.001704
86.346,59.1091,0.001704
86.362,59.0838,0.001704
86.378,59.0590,0.001704
86.394,59.0334,0.001704
86.410,59.0085,0.001751
86.427,58.9807,0.001751
86.442,58.9549,0.001751
86.458,58.9287,0.001751
86.474,58.9043,0.001751
86.490,58.8778,0.001751
86.506,58.8504,0.001751
86.523,58.8232,0.001751
86.538,58.7962,0.001751
86.554,58.7697,0.001751
86.570,58.7421,0.001751
86.586,58.7144,0.001751
86.602,58.6864,0.001751
86.618,58.6584,0.001751
86.634,58.6295,0.001751
86.650,58.6021,0.001751
86.666,58.5737,0.001751
86.682,58.5454,0.001751
86.698,58.5160,0.001836
86.714,58.4872,0.001836
86.731,58.4558,0.001836
86.746,58.4283,0.001836
86.762,58.3979,0.001836
86.778,58.3685,0.001836
86.795,58.3365,0.001836
86.818,58.2909,0.001836
86.834,58.2627,0.001836
86.850,58.2305,0.001836
86.880,58.1705,0.001836
86.896,58.1416,0.001836
86.927,58.0786,0.001836
86.958,58.0183,0.001949
86.973,57.9863,0.001949
86.992,57.9481,0.001949
87.020,57.8903,0.001949
87.037,57.8551,0.001949
87.067,57.7918,0.001949
87.098,57.7283,0.001949
87.114,57.6937,0.001949
87.130,57.6606,0.001949
87.159,57.5981,0.001949
87.175,57.5640,0.001949
87.191,57.5305,0.002061
87.207,57.4975,0.002061
87.223,57.4638,0.002061
87.239,57.4305,0.002061
87.268,57.3730,0.002061
87.287,57.3341,0.002061
87.303,57.3022,0.002061
87.319,57.2699,0.002061
87.335,57.2388,0.002061
87.351,57.2057,0.002061
87.367,57.1748,0.002061
87.383,57.1447,0.002061
87.399,57.1138,0.002061
87.415,57.0820,0.002061
87.430,57.0523,0.002061
87.447,57.0224,0.002033
87.464,56.9894,0.002033
87.479,56.9610,0.002033
87.495,56.9320,0.002033
87.511,56.9023,0.002033
87.527,56.8728,0.002033
87.542,56.8434,0.002033
87.558,56.8141,0.002033
87.575,56.7852,0.002033
87.591,56.7544,0.002033
87.607,56.7276,0.002033
87.622,56.7004,0.002033
87.639,56.6723,0.002033
87.654,56.6439,0.002033
87.671,56.6157,0.002033
87.686,56.5892,0.002033
87.716,56.5392,0.002061
87.731,56.5115,0.002061
87.748,56.4856,0.002061
87.764,56.4578,0.002061
87.779,56.4328,0.002061
87.795,56.4070,0.002061
87.812,56.3806,0.002061
87.827,56.3553,0.002061
87.843,56.3283,0.002061
87.860,56.3037,0.002061
87.876,56.2784,0.002061
87.891,56.2538,0.002061
87.908,56.2285,0.002061
87.924,56.2035,0.002061
87.939,56.1803,0.002222
87.956,56.1552,0.002222
87.971,56.1316,0.002222
87.987,56.1077,0.002222
88.003,56.0844,0.002222
88.020,56.0602,0.002222
88.036,56.0364,0.002222
88.052,56.0138,0.002222
88.068,55.9910,0.002222
88.084,55.9669,0.002222
88.102,55.9418,0.002222
88.133,55.8998,0.002222
88.165,55.8568,0.002222
88.194,55.8171,0.002287
88.212,55.7924,0.002287
88.239,55.7582,0.002287
88.256,55.7356,0.002287
88.272,55.7162,0.002287
88.288,55.6953,0.002287
88.319,55.6569,0.002287
88.335,55.6369,0.002287
88.350,55.6188,0.002287
88.380,55.5828,0.002287
88.398,55.5613,0.002287
88.413,55.5439,0.002287
88.429,55.5249,0.002372
88.445,55.5067,0.002372
88.463,55.4872,0.002372
88.487,55.4592,0.002372
88.509,55.4354,0.002372
88.526,55.4176,0.002372
88.542,55.4008,0.002372
88.558,55.3839,0.002372
88.573,55.3677,0.002372
88.590,55.3508,0.002372
88.605,55.3344,0.002372
88.621,55.3184,0.002372
88.638,55.3019,0.002372
88.654,55.2859,0.002372
88.670,55.2707,0.002495
88.685,55.2552,0.002495
88.701,55.2403,0.002495
88.717,55.2253,0.002495
88.733,55.2104,0.002495
88.750,55.1954,0.002495
88.771,55.1764,0.002495
88.787,55.1622,0.002495
88.803,55.1483,0.002495
88.818,55.1346,0.002495
88.835,55.1202,0.002495
88.851,55.1071,0.002495
88.873,55.0887,0.002495
88.904,55.0636,0.002495
88.935,55.0399,0.002617
88.951,55.0270,0.002617
88.981,55.0049,0.002617
89.012,54.9833,0.002617
89.043,54.9615,0.002617
89.058,54.9512,0.002617
89.074,54.9405,0.002617
89.091,54.9294,0.002617
89.120,54.9111,0.002617
89.139,54.8991,0.002617
89.154,54.8899,0.002617
89.170,54.8801,0.002692
89.186,54.8709,0.002692
89.204,54.8608,0.002692
89.228,54.8473,0.002692
89.243,54.8387,0.002692
89.274,54.8229,0.002692
89.304,54.8073,0.002692
89.324,54.7981,0.002692
89.341,54.7907,0.002692
89.356,54.7834,0.002692
89.372,54.7764,0.002692
89.388,54.7694,0.002692
89.404,54.7627,0.002692
89.421,54.7561,0.002720
89.436,54.7501,0.002720
89.452,54.7438,0.002720
89.468,54.7380,0.002720
89.484,54.7320,0.002720
89.500,54.7268,0.002720
89.516,54.7212,0.002720
89.532,54.7163,0.002720
89.548,54.7113,0.002720
89.564,54.7065,0.002720
89.580,54.7019,0.002720
89.596,54.6976,0.002720
89.612,54.6933,0.002720
89.628,54.6894,0.002720
89.644,54.6855,0.002720
89.660,54.6818,0.002702
89.676,54.6785,0.002702
89.692,54.6752,0.002702
89.708,54.6721,0.002702
89.724,54.6694,0.002702
89.740,54.6668,0.002702
89.758,54.6641,0.002702
89.773,54.6620,0.002702
89.801,54.6585,0.002702
89.820,54.6564,0.002702
89.836,54.6549,0.002702
89.852,54.6537,0.002702
89.879,54.6519,0.002702
89.910,54.6507,0.002777
89.926,54.6503,0.002777
89.942,54.6501,0.002777
89.958,54.6501,0.002777
89.974,54.6501,0.002777
89.990,54.6501,0.002777
90.006,54.6501,0.002777
90.022,54.6501,0.002777
90.038,54.6501,0.002777
90.055,54.6501,0.002777
90.075,54.6503,0.002777
90.098,54.6511,0.002777
90.118,54.6519,0.002777
90.135,54.6530,0.002777
90.160,54.6549,0.002777
90.190,54.6580,0.002880
90.221,54.6615,0.002880
90.252,54.6661,0.002880
90.283,54.6713,0.002880
90.313,54.6771,0.002880
90.343,54.6833,0.002880
90.359,54.6869,0.002880
90.390,54.6948,0.002880
90.405,54.6988,0.002880
90.437,54.7077,0.002805
90.459,54.7148,0.002805
90.482,54.7217,0.002805
90.501,54.7282,0.002805
90.516,54.7333,0.002805
90.532,54.7390,0.002805
90.548,54.7451,0.002805
90.564,54.7511,0.002805
90.579,54.7575,0.002805
90.595,54.7639,0.002805
90.612,54.7707,0.002805
90.631,54.7792,0.002805
90.653,54.7892,0.002805
90.683,54.8034,0.002711
90.714,54.8187,0.002711
90.745,54.8344,0.002711
90.775,54.8507,0.002711
90.791,54.8602,0.002711
90.823,54.8781,0.002711
90.854,54.8970,0.002711
90.870,54.9064,0.002711
90.886,54.9168,0.002711
90.901,54.9264,0.002711
90.917,54.9368,0.002720
90.933,54.9475,0.002720
90.948,54.9575,0.002720
90.964,54.9682,0.002720
90.979,54.9791,0.002720
90.995,54.9905,0.002720
91.012,55.0024,0.002720
91.028,55.0141,0.002720
91.043,55.0257,0.002720
91.060,55.0384,0.002720
91.075,55.0504,0.002720
91.092,55.0632,0.002720
91.108,55.0767,0.002720
91.125,55.0912,0.002720
91.141,55.1034,0.002720
91.163,55.1217,0.002720
91.194,55.1484,0.002626
91.225,55.1752,0.002626
91.256,55.2038,0.002626
91.286,55.2306,0.002626
91.317,55.2603,0.002626
91.332,55.2751,0.002626
91.347,55.2900,0.002626
91.363,55.3061,0.002626
91.379,55.3219,0.002626
91.395,55.3380,0.002626
91.411,55.3545,0.002560
91.428,55.3716,0.002560
91.444,55.3889,0.002560
91.459,55.4049,0.002560
91.476,55.4231,0.002560
91.492,55.4398,0.002560
91.508,55.4578,0.002560
91.533,55.4860,0.002560
91.550,55.5048,0.002560
91.565,55.5226,0.002560
91.581,55.5409,0.002560
91.598,55.5609,0.002560
91.613,55.5785,0.002560
91.630,55.5983,0.002560
91.645,55.6168,0.002560
91.662,55.6377,0.002560
91.678,55.6563,0.002560
91.694,55.6762,0.002438
91.709,55.6958,0.002438
91.725,55.7159,0.002438
91.742,55.7372,0.002438
91.757,55.7568,0.002438
91.773,55.7777,0.002438
91.789,55.7988,0.002438
91.805,55.8198,0.002438
91.821,55.8414,0.002438
91.838,55.8647,0.002438
91.853,55.8846,0.002438
91.869,55.9065,0.002438
91.885,55.9301,0.002438
91.902,55.9530,0.002438
91.917,55.9743,0.002438
91.933,55.9965,0.002297
91.949,56.0195,0.002297
91.966,56.0440,0.002297
91.982,56.0669,0.002297
91.997,56.0903,0.002297
92.013,56.1130,0.002297
92.030,56.1383,0.002297
92.046,56.1620,0.002297
92.061,56.1861,0.002297
92.086,56.2234,0.002297
92.102,56.2490,0.002297
92.118,56.2738,0.002297
92.134,56.2992,0.002297
92.151,56.3257,0.002297
92.166,56.3503,0.002297
92.182,56.3752,0.002156
92.198,56.4014,0.002156
92.214,56.4274,0.002156
92.230,56.4540,0.002156
92.246,56.4800,0.002156
92.262,56.5069,0.002156
92.278,56.5345,0.002156
92.295,56.5642,0.002156
92.310,56.5892,0.002156
92.326,56.6158,0.002156
92.343,56.6452,0.002156
92.358,56.6728,0.002156
92.374,56.7000,0.002156
92.390,56.7284,0.002156
92.406,56.7575,0.002156
92.422,56.7848,0.002156
92.438,56.8134,0.002061
92.454,56.8430,0.002061
92.470,56.8733,0.002061
92.486,56.9013,0.002061
92.502,56.9307,0.002061
92.519,56.9636,0.002061
92.537,56.9978,0.002061
92.568,57.0574,0.002061
92.584,57.0869,0.002061
92.608,57.1328,0.002061
92.623,57.1633,0.002061
92.640,57.1958,0.002061
92.656,57.2269,0.002061
92.672,57.2580,0.002061
92.688,57.2895,0.002052
92.704,57.3240,0.002052
92.720,57.3549,0.002052
92.736,57.3861,0.002052
92.752,57.4196,0.002052
92.768,57.4519,0.002052
92.784,57.4849,0.002052
92.800,57.5193,0.002052
92.816,57.5523,0.002052
92.833,57.5892,0.002052
92.863,57.6513,0.002052
92.880,57.6879,0.002052
92.896,57.7237,0.002052
92.912,57.7556,0.002052
92.928,57.7882,0.001930
92.944,57.8210,0.001930
92.960,57.8553,0.001930
92.976,57.8884,0.001930
92.992,57.9211,0.001930
93.008,57.9523,0.001930
93.024,57.9853,0.001930
93.040,58.0170,0.001930
93.056,58.0488,0.001930
93.072,58.0796,0.001930
93.088,58.1123,0.001930
93.104,58.1432,0.001930
93.120,58.1732,0.001930
93.143,58.2182,0.001930
93.159,58.2492,0.001930
93.180,58.2892,0.001873
93.203,58.3318,0.001873
93.223,58.3685,0.001873
93.239,58.3992,0.001873
93.255,58.4281,0.001873
93.271,58.4589,0.001873
93.287,58.4860,0.001873
93.303,58.5157,0.001873
93.318,58.5435,0.001873
93.335,58.5725,0.001873
93.351,58.6008,0.001873
93.367,58.6294,0.001873
93.383,58.6564,0.001873
93.399,58.6850,0.001873
93.414,58.7118,0.001873
93.430,58.7387,0.001949
93.447,58.7681,0.001949
93.471,58.8076,0.001949
93.497,58.8496,0.001949
93.527,58.8996,0.001949
93.542,58.9244,0.001949
93.559,58.9508,0.001949
93.576,58.9776,0.001949
93.605,59.0245,0.001949
93.622,59.0513,0.001949
93.641,59.0802,0.001949
93.666,59.1195,0.001949
93.686,59.1491,0.001949
93.703,59.1751,0.001930
93.718,59.1971,0.001930
93.735,59.2219,0.001930
93.750,59.2443,0.001930
93.767,59.2689,0.001930
93.782,59.2906,0.001930
93.798,59.3133,0.001930
93.814,59.3362,0.001930
93.831,59.3592,0.001930
93.847,59.3812,0.001930
93.862,59.4028,0.001930
93.879,59.4253,0.001930
93.894,59.4464,0.001930
93.910,59.4676,0.001836
93.927,59.4898,0.001836
93.943,59.5112,0.001836
93.959,59.5322,0.001836
93.975,59.5525,0.001836
93.991,59.5734,0.001836
94.009,59.5962,0.001836
94.036,59.6306,0.001836
94.054,59.6525,0.001836
94.071,59.6726,0.001836
94.086,59.6915,0.001836
94.103,59.7123,0.001836
94.119,59.7302,0.001836
94.135,59.7495,0.001836
94.151,59.7678,0.001836
94.168,59.7869,0.001779
94.190,59.8127,0.001779
94.206,59.8306,0.001779
94.237,59.8638,0.001779
94.257,59.8863,0.001779
94.274,59.9044,0.001779
94.290,59.9206,0.001779
94.305,59.9376,0.001779
94.322,59.9543,0.001779
94.337,59.9698,0.001779
94.353,59.9860,0.001779
94.370,60.0024,0.001779
94.385,60.0179,0.001779
94.401,60.0333,0.001779
94.417,60.0490,0.001685
94.433,60.0639,0.001685
94.449,60.0792,0.001685
94.465,60.0936,0.001685
94.481,60.1083,0.001685
94.497,60.1228,0.001685
94.514,60.1377,0.001685
94.530,60.1514,0.001685
94.553,60.1716,0.001685
94.576,60.1908,0.001685
94.594,60.2052,0.001685
94.609,60.2181,0.001685
94.626,60.2316,0.001685
94.642,60.2436,0.001685
94.657,60.2558,0.001553
94.673,60.2679,0.001553
94.690,60.2807,0.001553
94.705,60.2920,0.001553
94.721,60.3037,0.001553
94.737,60.3152,0.001553
94.754,60.3269,0.001553
94.770,60.3380,0.001553
94.786,60.3491,0.001553
94.810,60.3654,0.001553
94.826,60.3756,0.001553
94.842,60.3858,0.001553
94.858,60.3958,0.001553
94.875,60.4062,0.001553
94.902,60.4224,0.001525
94.922,60.4339,0.001525
94.938,60.4431,0.001525
94.955,60.4521,0.001525
94.971,60.4611,0.001525
94.986,60.4690,0.001525
95.003,60.4777,0.001525
95.018,60.4854,0.001525
95.034,60.4932,0.001525
95.050,60.5011,0.001525
95.066,60.5086,0.001525
95.082,60.5157,0.001525
95.098,60.5228,0.001525
95.114,60.5298,0.001525
95.130,60.5366,0.001525
95.147,60.5433,0.001525
95.162,60.5496,0.001478
95.178,60.5558,0.001478
95.194,60.5615,0.001478
95.210,60.5672,0.001478
95.226,60.5728,0.001478
95.242,60.5783,0.001478
95.258,60.5833,0.001478
95.274,60.5883,0.001478
95.290,60.5931,0.001478
95.306,60.5977,0.001478
95.322,60.6022,0.001478
95.349,60.6091,0.001478
95.367,60.6135,0.001478
95.395,60.6198,0.001478
95.413,60.6235,0.001478
95.429,60.6266,0.001478
95.445,60.6296,0.001337
95.461,60.6323,0.001337
95.477,60.6349,0.001337
95.493,60.6372,0.001337
95.509,60.6393,0.001337
95.525,60.6413,0.001337
95.542,60.6431,0.001337
95.557,60.6445,0.001337
95.573,60.6460,0.001337
95.590,60.6472,0.001337
95.606,60.6482,0.001337
95.624,60.6489,0.001337
95.644,60.6497,0.001337
95.660,60.6499,0.001337
95.676,60.6501,0.001337
95.707,60.6501,0.001224
95.722,60.6501,0.001224
95.753,60.6501,0.001224
95.784,60.6501,0.001224
95.800,60.6501,0.001224
95.831,60.6501,0.001224
95.862,60.6501,0.001224
95.892,60.6501,0.001224
95.915,60.6501,0.001224
95.939,60.6501,0.001224
95.957,60.6501,0.001224
95.973,60.6501,0.001224
95.989,60.6501,0.001224
96.005,60.6501,0.001224
96.021,60.6501,0.001224
96.038,60.6501,0.001224
96.053,60.6501,0.001224
96.069,60.6501,0.001224
96.085,60.6501,0.001224
96.101,60.6501,0.001224
96.117,60.6501,0.001224
96.133,60.6501,0.001224
96.149,60.6501,0.001224
96.165,60.6501,0.001224
96.181,60.6501,0.001224
96.197,60.6501,0.001374
96.213,60.6501,0.001374
96.229,60.6501,0.001374
96.245,60.6501,0.001374
96.261,60.6501,0.001374
96.277,60.6501,0.001374
96.293,60.6501,0.001374
