Elapsed Time (s),Position (mm),Force (N)
-0.016,51.7000,0.003389
0.000,51.7000,0.003389
0.015,51.7000,0.003389
0.032,51.7000,0.003389
0.047,51.7000,0.003389
0.063,51.7000,0.003389
0.079,51.7000,0.003389
0.095,51.7000,0.003389
0.111,51.7000,0.003389
0.127,51.7000,0.003389
0.144,51.7000,0.003389
0.164,51.7000,0.003530
0.180,51.7000,0.003530
0.211,51.7000,0.003530
0.227,51.7000,0.003530
0.258,51.7000,0.003530
0.289,51.7000,0.003530
0.318,51.7000,0.003530
0.334,51.7000,0.003530
0.350,51.7000,0.003530
0.366,51.7000,0.003530
0.383,51.7000,0.003530
0.399,51.7000,0.003530
0.415,51.7000,0.003643
0.430,51.7000,0.003643
0.447,51.7000,0.003643
0.475,51.7000,0.003643
0.494,51.7000,0.003643
0.510,51.7000,0.003643
0.527,51.7000,0.003643
0.542,51.7000,0.003643
0.558,51.7000,0.003643
0.574,51.7000,0.003643
0.590,51.7000,0.003643
0.606,51.7000,0.003643
0.622,51.7000,0.003643
0.638,51.7000,0.003643
0.654,51.7000,0.003643
0.670,51.7000,0.003737
0.686,51.7000,0.003737
0.702,51.7000,0.003737
0.718,51.7000,0.003737
0.734,51.7000,0.003737
0.750,51.7000,0.003737
0.766,51.7000,0.003737
0.782,51.7000,0.003737
0.799,51.7000,0.003737
0.814,51.7000,0.003737
0.830,51.7000,0.003737
0.846,51.7000,0.003737
0.875,51.7000,0.003737
0.893,51.7000,0.003737
0.909,51.7000,0.003737
0.939,51.7000,0.003784
0.955,51.7000,0.003784
0.971,51.7000,0.003784
0.988,51.7000,0.003784
1.003,51.7000,0.003784
1.019,51.7000,0.003784
1.035,51.7000,0.003784
1.051,51.7000,0.003784
1.067,51.7000,0.003784
1.083,51.7000,0.003784
1.099,51.7000,0.003784
1.115,51.7000,0.003784
1.131,51.7000,0.003784
1.147,51.7000,0.003784
1.163,51.7000,0.003765
1.179,51.7000,0.003765
1.196,51.7000,0.003765
1.220,51.7000,0.003765
1.237,51.7000,0.003765
1.252,51.7000,0.003765
1.267,51.7000,0.003765
1.297,51.7000,0.003765
1.328,51.7000,0.003765
1.359,51.7000,0.003765
1.390,51.7000,0.003765
1.418,51.7000,0.003765
1.434,51.7000,0.003765
1.450,51.7000,0.003775
1.466,51.7000,0.003775
1.482,51.7000,0.003775
1.498,51.7000,0.003775
1.514,51.7000,0.003775
1.530,51.7000,0.003775
1.547,51.7000,0.003775
1.562,51.7000,0.003775
1.578,51.7000,0.003775
1.594,51.7000,0.003775
1.610,51.7000,0.003775
1.626,51.7000,0.003775
1.642,51.7000,0.003775
1.658,51.7000,0.003775
1.679,51.7000,0.003775
1.704,51.7000,0.003775
1.722,51.7000,0.003841
1.738,51.7000,0.003841
1.754,51.7000,0.003841
1.770,51.7000,0.003841
1.786,51.7000,0.003841
1.802,51.7000,0.003841
1.818,51.7000,0.003841
1.834,51.7000,0.003841
1.850,51.7000,0.003841
1.867,51.7000,0.003841
1.887,51.7000,0.003841
1.903,51.7000,0.003841
1.919,51.7000,0.003841
1.944,51.7000,0.003878
1.961,51.7000,0.003878
1.981,51.7000,0.003878
2.012,51.7000,0.003878
2.042,51.7000,0.003878
2.074,51.7000,0.003878
2.104,51.7000,0.003878
2.135,51.7000,0.003878
2.151,51.7000,0.003878
2.167,51.7000,0.003841
2.183,51.7000,0.003841
2.198,51.7000,0.003841
2.215,51.7000,0.003841
2.231,51.7000,0.003841
2.248,51.7000,0.003841
2.263,51.7000,0.003841
2.279,51.7000,0.003841
2.295,51.7000,0.003841
2.311,51.7000,0.003841
2.327,51.7000,0.003841
2.342,51.7000,0.003841
2.359,51.7000,0.003841
2.374,51.7000,0.003841
2.390,51.7000,0.003841
2.407,51.7000,0.003841
2.423,51.7000,0.003841
2.438,51.7000,0.003841
2.455,51.7000,0.003841
2.476,51.7000,0.003812
2.493,51.7000,0.003812
2.522,51.7000,0.003812
2.541,51.7000,0.003812
2.568,51.7000,0.003812
2.587,51.7000,0.003812
2.604,51.7000,0.003812
2.620,51.7000,0.003812
2.646,51.7000,0.003812
2.681,51.7000,0.003812
2.700,51.7000,0.003812
2.722,51.7000,0.003794
2.753,51.7000,0.003794
2.768,51.7000,0.003794
2.783,51.7000,0.003794
2.800,51.7000,0.003794
2.830,51.7000,0.003794
2.846,51.7000,0.003794
2.877,51.7000,0.003794
2.907,51.7000,0.003794
2.923,51.7000,0.003794
2.939,51.7000,0.003794
2.956,51.7000,0.003794
2.975,51.7000,0.003794
3.003,51.7000,0.003794
3.020,51.7000,0.003794
3.047,51.7000,0.003794
3.066,51.7000,0.003794
3.081,51.7000,0.003794
3.097,51.7000,0.003794
3.114,51.7000,0.003794
3.129,51.7000,0.003794
3.146,51.7000,0.003794
3.161,51.7000,0.003831
3.177,51.7000,0.003831
3.194,51.7000,0.003831
3.209,51.7000,0.003831
3.225,51.7000,0.003831
3.242,51.7000,0.003831
3.258,51.7000,0.003831
3.273,51.7000,0.003831
3.289,51.7000,0.003831
3.305,51.7000,0.003831
3.321,51.7000,0.003831
3.337,51.7000,0.003831
3.355,51.7000,0.003831
3.385,51.7000,0.003831
3.402,51.7000,0.003831
3.417,51.7000,0.003831
3.433,51.7000,0.003831
3.449,51.7000,0.003822
3.465,51.7000,0.003822
3.482,51.7000,0.003822
3.497,51.7000,0.003822
3.513,51.7000,0.003822
3.537,51.7000,0.003822
3.553,51.7000,0.003822
3.569,51.7000,0.003822
3.586,51.7000,0.003822
3.601,51.7000,0.003822
3.617,51.7000,0.003822
3.634,51.7000,0.003822
3.649,51.7000,0.003822
3.666,51.7000,0.003822
3.693,51.7000,0.003728
3.713,51.7000,0.003728
3.731,51.7000,0.003728
3.756,51.7000,0.003728
3.786,51.7000,0.003728
3.802,51.7000,0.003728
3.831,51.7000,0.003728
3.862,51.7000,0.003728
3.893,51.7000,0.003728
3.909,51.7000,0.003728
3.924,51.7000,0.003728
3.940,51.7000,0.003558
3.971,51.7000,0.003558
3.988,51.7000,0.003558
4.018,51.7000,0.003558
4.035,51.7000,0.003558
4.065,51.7000,0.003558
4.093,51.7000,0.003558
4.109,51.7000,0.003558
4.125,51.7000,0.003558
4.141,51.7000,0.003558
4.158,51.6999,0.003558
4.188,51.6992,0.003436
4.205,51.6984,0.003436
4.222,51.6974,0.003436
4.250,51.6954,0.003436
4.269,51.6936,0.003436
4.285,51.6920,0.003436
4.301,51.6901,0.003436
4.317,51.6880,0.003436
4.333,51.6858,0.003436
4.350,51.6832,0.003436
4.365,51.6807,0.003436
4.381,51.6778,0.003436
4.397,51.6749,0.003436
4.413,51.6716,0.003436
4.429,51.6682,0.004754
4.445,51.6647,0.004754
4.461,51.6608,0.004754
4.477,51.6568,0.004754
4.493,51.6525,0.004754
4.509,51.6483,0.004754
4.525,51.6437,0.004754
4.541,51.6390,0.004754
4.557,51.6339,0.004754
4.572,51.6287,0.004754
4.593,51.6219,0.004754
4.617,51.6135,0.004754
4.633,51.6078,0.004754
4.649,51.6014,0.004754
4.665,51.5955,0.004754
4.681,51.5888,0.004754
4.697,51.5821,0.011409
4.713,51.5755,0.011409
4.730,51.5678,0.011409
4.758,51.5552,0.011409
4.777,51.5461,0.011409
4.793,51.5378,0.011409
4.810,51.5298,0.011409
4.835,51.5170,0.011409
4.851,51.5082,0.011409
4.881,51.4913,0.011409
4.897,51.4826,0.011409
4.928,51.4640,0.011409
4.958,51.4458,0.014430
4.974,51.4361,0.014430
4.990,51.4257,0.014430
5.021,51.4059,0.014430
5.037,51.3952,0.014430
5.068,51.3734,0.014430
5.098,51.3515,0.014430
5.129,51.3286,0.014430
5.157,51.3079,0.014430
5.172,51.2958,0.014430
5.188,51.2831,0.008415
5.205,51.2700,0.008415
5.221,51.2569,0.008415
5.237,51.2435,0.008415
5.253,51.2305,0.008415
5.269,51.2168,0.008415
5.284,51.2034,0.008415
5.300,51.1896,0.008415
5.316,51.1754,0.008415
5.332,51.1610,0.008415
5.348,51.1463,0.008415
5.364,51.1315,0.008415
5.380,51.1168,0.008415
5.397,51.1016,0.008415
5.413,51.0856,0.008415
5.429,51.0695,0.008415
5.445,51.0544,0.004547
5.461,51.0389,0.004547
5.477,51.0227,0.004547
5.492,51.0066,0.004547
5.508,50.9904,0.004547
5.525,50.9733,0.004547
5.540,50.9566,0.004547
5.556,50.9397,0.004547
5.572,50.9225,0.004547
5.589,50.9043,0.004547
5.605,50.8866,0.004547
5.620,50.8693,0.004547
5.636,50.8515,0.004547
5.652,50.8332,0.004547
5.668,50.8146,0.004547
5.685,50.7954,0.004547
5.715,50.7603,0.004434
5.731,50.7402,0.004434
5.747,50.7219,0.004434
5.763,50.7021,0.004434
5.780,50.6811,0.004434
5.809,50.6444,0.004434
5.826,50.6224,0.004434
5.842,50.6011,0.004434
5.860,50.5795,0.004434
5.889,50.5415,0.004434
5.907,50.5171,0.004434
5.923,50.4959,0.004434
5.940,50.4728,0.004490
5.968,50.4334,0.004490
5.986,50.4083,0.004490
6.003,50.3856,0.004490
6.019,50.3617,0.004490
6.035,50.3397,0.004490
6.051,50.3169,0.004490
6.066,50.2945,0.004490
6.082,50.2709,0.004490
6.099,50.2461,0.004490
6.115,50.2222,0.004490
6.137,50.1879,0.004490
6.153,50.1648,0.004490
6.169,50.1398,0.004490
6.200,50.0920,0.004594
6.232,50.0417,0.004594
6.261,49.9948,0.004594
6.292,49.9444,0.004594
6.323,49.8950,0.004594
6.338,49.8685,0.004594
6.355,49.8417,0.004594
6.371,49.8144,0.004594
6.387,49.7867,0.004594
6.403,49.7599,0.004594
6.419,49.7334,0.004594
6.434,49.7062,0.004763
6.451,49.6765,0.004763
6.468,49.6475,0.004763
6.492,49.6035,0.004763
6.514,49.5652,0.004763
6.530,49.5355,0.004763
6.546,49.5064,0.004763
6.562,49.4780,0.004763
6.578,49.4484,0.004763
6.594,49.4186,0.004763
6.610,49.3891,0.004763
6.626,49.3593,0.004763
6.642,49.3283,0.004763
6.659,49.2962,0.004763
6.674,49.2674,0.005055
6.690,49.2363,0.005055
6.706,49.2059,0.005055
6.722,49.1747,0.005055
6.739,49.1423,0.005055
6.769,49.0819,0.005055
6.785,49.0502,0.005055
6.801,49.0183,0.005055
6.818,48.9829,0.005055
6.834,48.9508,0.005055
6.863,48.8907,0.005055
6.881,48.8548,0.005055
6.897,48.8201,0.005055
6.913,48.7878,0.005055
6.929,48.7531,0.005356
6.945,48.7205,0.005356
6.962,48.6834,0.005356
6.977,48.6499,0.005356
6.993,48.6182,0.005356
7.010,48.5816,0.005356
7.026,48.5480,0.005356
7.043,48.5131,0.005356
7.060,48.4764,0.005356
7.078,48.4406,0.005356
7.094,48.4076,0.005356
7.110,48.3746,0.005356
7.140,48.3127,0.005356
7.172,48.2495,0.005356
7.187,48.2202,0.005563
7.219,48.1587,0.005563
7.249,48.0980,0.005563
7.265,48.0690,0.005563
7.282,48.0356,0.005563
7.305,47.9927,0.005563
7.321,47.9625,0.005563
7.337,47.9334,0.005563
7.353,47.9034,0.005563
7.369,47.8743,0.005563
7.385,47.8454,0.005563
7.401,47.8164,0.005563
7.417,47.7876,0.005563
7.434,47.7572,0.005563
7.449,47.7291,0.005780
7.465,47.7009,0.005780
7.489,47.6586,0.005780
7.512,47.6184,0.005780
7.529,47.5904,0.005780
7.545,47.5619,0.005780
7.561,47.5357,0.005780
7.577,47.5097,0.005780
7.594,47.4808,0.005780
7.610,47.4543,0.005780
7.625,47.4287,0.005780
7.641,47.4023,0.005780
7.657,47.3778,0.005780
7.673,47.3519,0.005780
7.689,47.3264,0.005780
7.705,47.3003,0.006062
7.721,47.2757,0.006062
7.737,47.2504,0.006062
7.753,47.2254,0.006062
7.769,47.2015,0.006062
7.785,47.1768,0.006062
7.801,47.1517,0.006062
7.817,47.1280,0.006062
7.832,47.1051,0.006062
7.849,47.0814,0.006062
7.865,47.0580,0.006062
7.880,47.0346,0.006062
7.897,47.0113,0.006062
7.914,46.9862,0.006062
7.945,46.9425,0.006410
7.961,46.9210,0.006410
7.977,46.8986,0.006410
7.993,46.8766,0.006410
8.009,46.8552,0.006410
8.025,46.8341,0.006410
8.041,46.8113,0.006410
8.061,46.7862,0.006410
8.083,46.7571,0.006410
8.101,46.7341,0.006410
8.121,46.7080,0.006410
8.144,46.6789,0.006410
8.176,46.6403,0.006410
8.206,46.6042,0.006787
8.236,46.5678,0.006787
8.252,46.5488,0.006787
8.283,46.5126,0.006787
8.304,46.4887,0.006787
8.328,46.4619,0.006787
8.345,46.4437,0.006787
8.361,46.4266,0.006787
8.376,46.4097,0.006787
8.401,46.3832,0.006787
8.417,46.3667,0.006787
8.433,46.3502,0.007069
8.448,46.3345,0.007069
8.465,46.3172,0.007069
8.480,46.3024,0.007069
8.497,46.2858,0.007069
8.513,46.2700,0.007069
8.528,46.2557,0.007069
8.545,46.2390,0.007069
8.561,46.2250,0.007069
8.576,46.2105,0.007069
8.593,46.1949,0.007069
8.621,46.1697,0.007069
8.641,46.1527,0.007069
8.657,46.1387,0.007069
8.672,46.1256,0.007069
8.689,46.1114,0.007342
8.705,46.0984,0.007342
8.721,46.0852,0.007342
8.737,46.0725,0.007342
8.753,46.0597,0.007342
8.769,46.0473,0.007342
8.785,46.0349,0.007342
8.801,46.0229,0.007342
8.816,46.0113,0.007342
8.833,45.9992,0.007342
8.849,45.9874,0.007342
8.864,45.9766,0.007342
8.880,45.9654,0.007342
8.898,45.9535,0.007342
8.928,45.9329,0.007342
8.944,45.9230,0.007342
8.960,45.9131,0.007653
8.976,45.9023,0.007653
8.992,45.8929,0.007653
9.023,45.8745,0.007653
9.040,45.8650,0.007653
9.055,45.8563,0.007653
9.071,45.8471,0.007653
9.088,45.8384,0.007653
9.103,45.8304,0.007653
9.121,45.8212,0.007653
9.146,45.8083,0.007653
9.171,45.7966,0.007653
9.193,45.7865,0.007653
9.224,45.7726,0.007898
9.240,45.7660,0.007898
9.255,45.7597,0.007898
9.270,45.7532,0.007898
9.301,45.7417,0.007898
9.332,45.7307,0.007898
9.363,45.7201,0.007898
9.378,45.7154,0.007898
9.394,45.7103,0.007898
9.424,45.7016,0.007898
9.454,45.6935,0.008011
9.471,45.6895,0.008011
9.487,45.6856,0.008011
9.502,45.6822,0.008011
9.524,45.6773,0.008011
9.552,45.6720,0.008011
9.579,45.6674,0.008011
9.598,45.6644,0.008011
9.614,45.6622,0.008011
9.630,45.6601,0.008011
9.647,45.6582,0.008011
9.662,45.6566,0.008011
9.679,45.6550,0.008114
9.702,45.6532,0.008114
9.718,45.6522,0.008114
9.748,45.6508,0.008114
9.779,45.6502,0.008114
9.809,45.6501,0.008114
9.840,45.6501,0.008114
9.870,45.6501,0.008114
9.887,45.6501,0.008114
9.916,45.6501,0.008180
9.934,45.6501,0.008180
9.951,45.6503,0.008180
9.966,45.6507,0.008180
9.982,45.6512,0.008180
10.008,45.6525,0.008180
10.024,45.6535,0.008180
10.040,45.6548,0.008180
10.056,45.6563,0.008180
10.073,45.6581,0.008180
10.101,45.6615,0.008180
10.120,45.6641,0.008180
10.136,45.6665,0.008180
10.153,45.6694,0.008180
10.178,45.6737,0.008142
10.209,45.6802,0.008142
10.240,45.6871,0.008142
10.256,45.6909,0.008142
10.287,45.6992,0.008142
10.317,45.7076,0.008142
10.349,45.7174,0.008142
10.364,45.7222,0.008142
10.395,45.7329,0.008142
10.425,45.7439,0.008142
10.457,45.7563,0.008142
10.472,45.7623,0.008142
10.488,45.7689,0.008142
10.504,45.7762,0.008142
10.521,45.7834,0.008142
10.536,45.7902,0.008142
10.565,45.8041,0.008142
10.581,45.8120,0.008142
10.597,45.8195,0.008142
10.613,45.8278,0.008142
10.630,45.8366,0.008142
10.645,45.8446,0.008142
10.661,45.8538,0.008048
10.677,45.8625,0.008048
10.693,45.8719,0.008048
10.709,45.8811,0.008048
10.725,45.8907,0.008048
10.741,45.9002,0.008048
10.758,45.9109,0.008048
10.773,45.9205,0.008048
10.789,45.9307,0.008048
10.805,45.9419,0.008048
10.821,45.9523,0.008048
10.837,45.9631,0.008048
10.853,45.9739,0.008048
10.869,45.9855,0.008048
10.885,45.9968,0.008048
10.901,46.0084,0.008048
10.917,46.0203,0.007869
10.933,46.0327,0.007869
10.949,46.0451,0.007869
10.965,46.0570,0.007869
10.981,46.0706,0.007869
10.998,46.0839,0.007869
11.027,46.1081,0.007869
11.045,46.1226,0.007869
11.062,46.1372,0.007869
11.089,46.1608,0.007869
11.108,46.1779,0.007869
11.125,46.1929,0.007869
11.140,46.2069,0.007869
11.157,46.2227,0.007869
11.173,46.2377,0.007869
11.189,46.2519,0.007869
11.205,46.2672,0.007662
11.221,46.2828,0.007662
11.236,46.2987,0.007662
11.252,46.3144,0.007662
11.269,46.3309,0.007662
11.285,46.3474,0.007662
11.300,46.3642,0.007662
11.317,46.3802,0.007662
11.332,46.3970,0.007662
11.349,46.4158,0.007662
11.370,46.4372,0.007662
11.399,46.4695,0.007662
11.415,46.4871,0.007662
11.446,46.5226,0.007418
11.476,46.5584,0.007418
11.498,46.5842,0.007418
11.524,46.6151,0.007418
11.541,46.6353,0.007418
11.557,46.6558,0.007418
11.586,46.6917,0.007418
11.605,46.7158,0.007418
11.622,46.7370,0.007418
11.645,46.7670,0.007418
11.661,46.7878,0.007418
11.677,46.8087,0.007163
11.694,46.8316,0.007163
11.718,46.8631,0.007163
11.740,46.8936,0.007163
11.758,46.9183,0.007163
11.774,46.9410,0.007163
11.790,46.9630,0.007163
11.805,46.9849,0.007163
11.821,47.0074,0.007163
11.840,47.0348,0.007163
11.864,47.0707,0.007163
11.886,47.1014,0.007163
11.902,47.1257,0.007163
11.918,47.1490,0.007163
11.934,47.1731,0.006825
11.949,47.1976,0.006825
11.966,47.2228,0.006825
11.982,47.2467,0.006825
11.997,47.2712,0.006825
12.014,47.2971,0.006825
12.030,47.3228,0.006825
12.045,47.3477,0.006825
12.061,47.3731,0.006825
12.077,47.3992,0.006825
12.093,47.4253,0.006825
12.109,47.4516,0.006825
12.125,47.4782,0.006825
12.145,47.5113,0.006825
12.170,47.5533,0.006825
12.189,47.5853,0.006825
12.219,47.6374,0.006580
12.249,47.6905,0.006580
12.280,47.7452,0.006580
12.296,47.7736,0.006580
12.312,47.8019,0.006580
12.333,47.8417,0.006580
12.358,47.8859,0.006580
12.376,47.9196,0.006580
12.397,47.9604,0.006580
12.419,47.9998,0.006307
12.440,48.0402,0.006307
12.457,48.0709,0.006307
12.473,48.1020,0.006307
12.497,48.1489,0.006307
12.512,48.1789,0.006307
12.528,48.2101,0.006307
12.558,48.2695,0.006307
12.574,48.3019,0.006307
12.604,48.3636,0.006307
12.636,48.4256,0.006307
12.665,48.4880,0.006307
12.696,48.5511,0.005864
12.712,48.5858,0.005864
12.728,48.6186,0.005864
12.744,48.6524,0.005864
12.766,48.6995,0.005864
12.788,48.7460,0.005864
12.808,48.7873,0.005864
12.824,48.8212,0.005864
12.840,48.8532,0.005864
12.856,48.8864,0.005864
12.872,48.9188,0.005864
12.890,48.9552,0.005864
12.914,49.0028,0.005864
12.929,49.0349,0.005563
12.960,49.0958,0.005563
12.992,49.1582,0.005563
13.023,49.2168,0.005563
13.053,49.2766,0.005563
13.085,49.3347,0.005563
13.115,49.3928,0.005563
13.132,49.4232,0.005563
13.162,49.4778,0.005422
13.193,49.5335,0.005422
13.209,49.5620,0.005422
13.239,49.6136,0.005422
13.256,49.6434,0.005422
13.272,49.6715,0.005422
13.288,49.6988,0.005422
13.304,49.7268,0.005422
13.320,49.7549,0.005422
13.336,49.7818,0.005422
13.352,49.8078,0.005422
13.368,49.8351,0.005422
13.387,49.8664,0.005422
13.410,49.9044,0.005422
13.432,49.9388,0.005130
13.448,49.9651,0.005130
13.464,49.9899,0.005130
13.480,50.0148,0.005130
13.496,50.0404,0.005130
13.512,50.0648,0.005130
13.528,50.0901,0.005130
13.544,50.1138,0.005130
13.560,50.1385,0.005130
13.576,50.1625,0.005130
13.592,50.1861,0.005130
13.608,50.2104,0.005130
13.625,50.2357,0.005130
13.646,50.2658,0.005130
13.661,50.2890,0.005130
13.687,50.3254,0.004782
13.704,50.3494,0.004782
13.720,50.3714,0.004782
13.736,50.3925,0.004782
13.752,50.4148,0.004782
13.773,50.4445,0.004782
13.795,50.4737,0.004782
13.811,50.4945,0.004782
13.828,50.5166,0.004782
13.859,50.5569,0.004782
13.889,50.5960,0.004782
13.905,50.6164,0.004782
13.921,50.6354,0.004565
13.952,50.6729,0.004565
13.982,50.7098,0.004565
13.997,50.7277,0.004565
14.013,50.7473,0.004565
14.029,50.7648,0.004565
14.044,50.7829,0.004565
14.061,50.8010,0.004565
14.079,50.8228,0.004565
14.105,50.8511,0.004565
14.124,50.8719,0.004565
14.143,50.8931,0.004565
14.168,50.9183,0.004424
14.189,50.9400,0.004424
14.206,50.9574,0.004424
14.221,50.9734,0.004424
14.236,50.9886,0.004424
14.252,51.0046,0.004424
14.269,51.0209,0.004424
14.285,51.0363,0.004424
14.300,51.0514,0.004424
14.324,51.0736,0.004424
14.351,51.0986,0.004424
14.371,51.1164,0.004424
14.386,51.1306,0.004424
14.402,51.1444,0.004424
14.419,51.1586,0.004255
14.434,51.1719,0.004255
14.454,51.1884,0.004255
14.476,51.2072,0.004255
14.492,51.2194,0.004255
14.522,51.2446,0.004255
14.553,51.2672,0.004255
14.584,51.2906,0.004255
14.614,51.3123,0.004255
14.629,51.3231,0.004255
14.660,51.3456,0.004076
14.675,51.3551,0.004076
14.707,51.3760,0.004076
14.722,51.3856,0.004076
14.738,51.3957,0.004076
14.757,51.4071,0.004076
14.785,51.4237,0.004076
14.803,51.4339,0.004076
14.819,51.4434,0.004076
14.834,51.4516,0.004076
14.850,51.4604,0.004076
14.877,51.4746,0.004076
14.893,51.4829,0.004076
14.910,51.4908,0.003765
14.925,51.4984,0.003765
14.941,51.5059,0.003765
14.958,51.5136,0.003765
14.974,51.5206,0.003765
14.989,51.5275,0.003765
15.006,51.5347,0.003765
15.021,51.5408,0.003765
15.038,51.5474,0.003765
15.053,51.5536,0.003765
15.069,51.5595,0.003765
15.086,51.5653,0.003765
15.101,51.5709,0.003765
15.118,51.5765,0.003765
15.134,51.5817,0.003765
15.150,51.5868,0.003765
15.165,51.5915,0.003050
15.182,51.5964,0.003050
15.198,51.6009,0.003050
15.214,51.6050,0.003050
15.229,51.6090,0.003050
15.245,51.6130,0.003050
15.261,51.6166,0.003050
15.277,51.6200,0.003050
15.293,51.6234,0.003050
15.309,51.6265,0.003050
15.325,51.6295,0.003050
15.341,51.6322,0.003050
15.357,51.6347,0.003050
15.377,51.6375,0.003050
15.404,51.6410,0.003050
15.436,51.6444,0.001638
15.452,51.6457,0.001638
15.467,51.6470,0.001638
15.483,51.6479,0.001638
15.499,51.6487,0.001638
15.515,51.6493,0.001638
15.531,51.6498,0.001638
15.548,51.6501,0.001638
15.563,51.6501,0.001638
15.579,51.6501,0.001638
15.595,51.6501,0.001638
15.611,51.6501,0.001638
15.627,51.6501,0.001638
15.643,51.6501,0.001638
15.659,51.6501,0.000951
15.676,51.6501,0.000951
15.691,51.6501,0.000951
15.707,51.6501,0.000951
15.723,51.6501,0.000951
15.739,51.6501,0.000951
15.755,51.6501,0.000951
15.771,51.6501,0.000951
15.787,51.6501,0.000951
15.803,51.6501,0.000951
15.819,51.6501,0.000951
15.835,51.6501,0.000951
15.851,51.6501,0.000951
15.867,51.6501,0.000951
15.883,51.6501,0.000951
15.899,51.6501,0.000951
15.915,51.6501,0.001883
15.932,51.6501,0.001883
15.947,51.6501,0.001883
15.963,51.6501,0.001883
15.985,51.6501,0.001883
16.001,51.6501,0.001883
16.017,51.6501,0.001883
16.033,51.6501,0.001883
16.050,51.6501,0.001883
16.065,51.6501,0.001883
16.081,51.6501,0.001883
16.097,51.6501,0.001883
16.113,51.6501,0.001883
16.129,51.6501,0.001883
16.146,51.6501,0.001883
16.161,51.6501,0.001883
16.177,51.6501,0.001883
16.193,51.6501,0.002852
16.209,51.6501,0.002852
16.225,51.6501,0.002852
16.241,51.6501,0.002852
16.257,51.6501,0.002852
16.273,51.6501,0.002852
16.289,51.6501,0.002852
16.305,51.6501,0.002852
16.321,51.6501,0.002852
16.337,51.6501,0.002852
16.356,51.6501,0.002852
16.380,51.6501,0.002852
16.401,51.6501,0.002852
16.418,51.6501,0.002852
16.442,51.6501,0.002852
16.472,51.6501,0.003248
16.503,51.6501,0.003248
16.519,51.6501,0.003248
16.540,51.6501,0.003248
16.556,51.6501,0.003248
16.572,51.6501,0.003248
16.588,51.6501,0.003248
16.605,51.6501,0.003248
16.628,51.6501,0.003248
16.658,51.6501,0.003248
16.674,51.6501,0.003248
16.690,51.6501,0.003473
16.721,51.6501,0.003473
16.736,51.6501,0.003473
16.752,51.6501,0.003473
16.768,51.6501,0.003473
16.799,51.6501,0.003473
16.829,51.6501,0.003473
16.860,51.6501,0.003473
16.875,51.6501,0.003473
16.891,51.6501,0.003473
16.908,51.6501,0.003473
16.924,51.6501,0.003473
16.954,51.6501,0.003596
16.971,51.6501,0.003596
16.987,51.6501,0.003596
17.003,51.6501,0.003596
17.020,51.6501,0.003596
17.039,51.6501,0.003596
17.063,51.6501,0.003596
17.080,51.6501,0.003596
17.095,51.6501,0.003596
17.111,51.6501,0.003596
17.128,51.6501,0.003596
17.144,51.6501,0.003596
17.159,51.6501,0.003596
17.175,51.6501,0.003596
17.191,51.6501,0.003662
17.208,51.6501,0.003662
17.223,51.6501,0.003662
17.240,51.6501,0.003662
17.255,51.6501,0.003662
17.271,51.6501,0.003662
17.288,51.6501,0.003662
17.303,51.6501,0.003662
17.320,51.6501,0.003662
17.336,51.6501,0.003662
17.354,51.6501,0.003662
17.371,51.6501,0.003662
17.387,51.6501,0.003662
17.403,51.6501,0.003662
17.433,51.6501,0.003737
17.449,51.6501,0.003737
17.480,51.6501,0.003737
17.496,51.6501,0.003737
17.511,51.6501,0.003737
17.527,51.6501,0.003737
17.544,51.6501,0.003737
17.560,51.6501,0.003737
17.586,51.6501,0.003737
17.602,51.6501,0.003737
17.618,51.6501,0.003737
17.634,51.6501,0.003737
17.651,51.6501,0.003737
17.681,51.6501,0.003746
17.698,51.6501,0.003746
17.715,51.6501,0.003746
17.730,51.6501,0.003746
17.746,51.6501,0.003746
17.762,51.6501,0.003746
17.780,51.6501,0.003746
17.806,51.6501,0.003746
17.826,51.6501,0.003746
17.842,51.6501,0.003746
17.859,51.6501,0.003746
17.874,51.6501,0.003746
17.890,51.6501,0.003746
17.906,51.6501,0.003746
17.922,51.6501,0.003746
17.938,51.6501,0.003728
17.954,51.6501,0.003728
17.971,51.6501,0.003728
17.986,51.6501,0.003728
18.002,51.6501,0.003728
18.018,51.6501,0.003728
18.035,51.6501,0.003728
18.050,51.6501,0.003728
18.066,51.6501,0.003728
18.083,51.6501,0.003728
18.098,51.6501,0.003728
18.115,51.6501,0.003728
18.146,51.6501,0.003728
18.170,51.6501,0.003728
18.193,51.6501,0.003746
18.210,51.6501,0.003746
18.225,51.6501,0.003746
18.241,51.6501,0.003746
18.257,51.6501,0.003746
18.273,51.6501,0.003746
18.289,51.6501,0.003746
18.305,51.6501,0.003746
18.321,51.6501,0.003746
18.337,51.6501,0.003746
18.353,51.6501,0.003746
18.369,51.6501,0.003746
18.385,51.6501,0.003746
18.401,51.6501,0.003746
18.417,51.6501,0.003746
18.433,51.6501,0.003765
18.449,51.6501,0.003765
18.465,51.6501,0.003765
18.481,51.6501,0.003765
18.497,51.6501,0.003765
18.513,51.6501,0.003765
18.529,51.6501,0.003765
18.545,51.6501,0.003765
18.561,51.6501,0.003765
18.577,51.6501,0.003765
18.593,51.6501,0.003765
18.609,51.6501,0.003765
18.625,51.6501,0.003765
18.642,51.6501,0.003765
18.668,51.6501,0.003765
18.684,51.6501,0.003765
18.700,51.6501,0.003784
18.717,51.6501,0.003784
18.732,51.6501,0.003784
18.748,51.6501,0.003784
18.764,51.6501,0.003784
18.780,51.6501,0.003784
18.796,51.6501,0.003784
18.812,51.6501,0.003784
18.828,51.6501,0.003784
18.845,51.6501,0.003784
18.876,51.6501,0.003784
18.892,51.6501,0.003784
18.908,51.6501,0.003784
18.924,51.6501,0.003794
18.940,51.6501,0.003794
18.960,51.6501,0.003794
18.983,51.6501,0.003794
19.004,51.6501,0.003794
19.020,51.6501,0.003794
19.036,51.6501,0.003794
19.052,51.6501,0.003794
19.068,51.6501,0.003794
19.084,51.6501,0.003794
19.100,51.6501,0.003794
19.116,51.6501,0.003794
19.132,51.6501,0.003794
19.148,51.6501,0.003794
19.164,51.6501,0.003803
19.180,51.6501,0.003803
19.196,51.6501,0.003803
19.212,51.6501,0.003803
19.228,51.6501,0.003803
19.244,51.6501,0.003803
19.260,51.6501,0.003803
19.277,51.6501,0.003803
19.292,51.6501,0.003803
19.308,51.6501,0.003803
19.325,51.6501,0.003803
19.355,51.6501,0.003803
19.372,51.6501,0.003803
19.388,51.6501,0.003803
19.404,51.6501,0.003803
19.420,51.6501,0.003709
19.436,51.6501,0.003709
19.452,51.6501,0.003709
19.468,51.6501,0.003709
19.484,51.6501,0.003709
19.500,51.6501,0.003709
19.516,51.6501,0.003709
19.532,51.6501,0.003709
19.548,51.6501,0.003709
19.564,51.6501,0.003709
19.580,51.6501,0.003709
19.596,51.6501,0.003709
19.611,51.6501,0.003709
19.628,51.6501,0.003709
19.645,51.6501,0.003709
19.665,51.6501,0.003473
19.681,51.6501,0.003473
19.697,51.6501,0.003473
19.721,51.6501,0.003473
19.737,51.6501,0.003473
19.752,51.6501,0.003473
19.768,51.6501,0.003473
19.784,51.6501,0.003473
19.800,51.6501,0.003473
19.817,51.6501,0.003473
19.833,51.6501,0.003473
19.849,51.6501,0.003473
19.864,51.6501,0.003473
19.881,51.6501,0.003473
19.896,51.6498,0.003473
19.912,51.6493,0.003313
19.929,51.6487,0.003313
19.946,51.6478,0.003313
19.975,51.6458,0.003313
19.993,51.6444,0.003313
20.009,51.6427,0.003313
20.025,51.6409,0.003313
20.040,51.6390,0.003313
20.057,51.6368,0.003313
20.073,51.6344,0.003313
20.101,51.6297,0.003313
20.120,51.6262,0.003313
20.138,51.6228,0.003313
20.162,51.6177,0.003313
20.178,51.6140,0.004490
20.209,51.6064,0.004490
20.224,51.6024,0.004490
20.257,51.5931,0.004490
20.287,51.5840,0.004490
20.318,51.5739,0.004490
20.334,51.5684,0.004490
20.365,51.5570,0.004490
20.382,51.5508,0.004490
20.411,51.5393,0.011343
20.442,51.5259,0.011343
20.457,51.5197,0.011343
20.473,51.5126,0.011343
20.489,51.5048,0.011343
20.505,51.4973,0.011343
20.521,51.4898,0.011343
20.536,51.4820,0.011343
20.552,51.4738,0.011343
20.569,51.4650,0.011343
20.585,51.4565,0.011343
20.600,51.4480,0.011343
20.617,51.4390,0.011343
20.633,51.4292,0.011343
20.649,51.4204,0.011343
20.665,51.4109,0.014299
20.681,51.4013,0.014299
20.697,51.3912,0.014299
20.713,51.3809,0.014299
20.729,51.3709,0.014299
20.744,51.3605,0.014299
20.760,51.3499,0.014299
20.776,51.3389,0.014299
20.792,51.3281,0.014299
20.808,51.3164,0.014299
20.824,51.3054,0.014299
20.841,51.2935,0.014299
20.857,51.2812,0.014299
20.877,51.2661,0.014299
20.893,51.2538,0.014299
20.909,51.2413,0.014299
20.924,51.2287,0.008105
20.940,51.2165,0.008105
20.955,51.2041,0.008105
20.971,51.1917,0.008105
21.001,51.1650,0.008105
21.017,51.1520,0.008105
21.032,51.1386,0.008105
21.048,51.1248,0.008105
21.066,51.1072,0.008105
21.094,51.0820,0.008105
21.112,51.0657,0.008105
21.129,51.0499,0.008105
21.144,51.0355,0.008105
21.160,51.0195,0.004518
21.176,51.0044,0.004518
21.193,50.9874,0.004518
21.209,50.9720,0.004518
21.224,50.9561,0.004518
21.240,50.9397,0.004518
21.256,50.9225,0.004518
21.272,50.9055,0.004518
21.288,50.8877,0.004518
21.312,50.8624,0.004518
21.327,50.8460,0.004518
21.343,50.8280,0.004518
21.359,50.8109,0.004518
21.376,50.7914,0.004518
21.391,50.7740,0.004518
21.407,50.7557,0.004434
21.423,50.7370,0.004434
21.439,50.7169,0.004434
21.455,50.6989,0.004434
21.471,50.6798,0.004434
21.487,50.6605,0.004434
21.503,50.6398,0.004434
21.519,50.6203,0.004434
21.535,50.6009,0.004434
21.551,50.5804,0.004434
21.568,50.5590,0.004434
21.583,50.5392,0.004434
21.599,50.5185,0.004434
21.615,50.4979,0.004434
21.631,50.4756,0.004434
21.647,50.4550,0.004434
21.663,50.4335,0.004509
21.681,50.4092,0.004509
21.698,50.3844,0.004509
21.714,50.3622,0.004509
21.744,50.3184,0.004509
21.760,50.2972,0.004509
21.776,50.2744,0.004509
21.792,50.2519,0.004509
21.823,50.2059,0.004509
21.839,50.1829,0.004509
21.866,50.1422,0.004509
21.882,50.1182,0.004509
21.898,50.0927,0.004509
21.914,50.0690,0.004641
21.930,50.0440,0.004641
21.946,50.0184,0.004641
21.961,49.9938,0.004641
21.979,49.9662,0.004641
22.009,49.9173,0.004641
22.026,49.8913,0.004641
22.044,49.8593,0.004641
22.071,49.8171,0.004641
22.090,49.7846,0.004641
22.106,49.7568,0.004641
22.122,49.7312,0.004641
22.139,49.7015,0.004641
22.154,49.6762,0.004641
22.170,49.6483,0.004641
22.186,49.6202,0.004641
22.202,49.5925,0.004810
22.218,49.5639,0.004810
22.234,49.5351,0.004810
22.250,49.5069,0.004810
22.266,49.4777,0.004810
22.282,49.4481,0.004810
22.298,49.4180,0.004810
22.314,49.3890,0.004810
22.330,49.3590,0.004810
22.346,49.3302,0.004810
22.361,49.3001,0.004810
22.378,49.2694,0.004810
22.409,49.2100,0.004810
22.424,49.1801,0.004810
22.440,49.1488,0.005055
22.457,49.1176,0.005055
22.473,49.0862,0.005055
22.488,49.0544,0.005055
22.505,49.0216,0.005055
22.521,48.9894,0.005055
22.537,48.9571,0.005055
22.553,48.9254,0.005055
22.568,48.8936,0.005055
22.584,48.8613,0.005055
22.602,48.8237,0.005055
22.630,48.7676,0.005055
22.649,48.7272,0.005055
22.664,48.6927,0.005055
22.680,48.6605,0.005055
22.697,48.6243,0.005366
22.713,48.5911,0.005366
22.729,48.5565,0.005366
22.745,48.5232,0.005366
22.760,48.4909,0.005366
22.776,48.4573,0.005366
22.793,48.4230,0.005366
22.809,48.3891,0.005366
22.824,48.3588,0.005366
22.841,48.3231,0.005366
22.857,48.2920,0.005366
22.872,48.2616,0.005366
22.889,48.2290,0.005366
22.904,48.1970,0.005366
22.930,48.1474,0.005366
22.946,48.1156,0.005366
22.961,48.0857,0.005591
22.977,48.0540,0.005591
22.993,48.0235,0.005591
23.009,47.9935,0.005591
23.026,47.9616,0.005591
23.042,47.9318,0.005591
23.058,47.9017,0.005591
23.074,47.8727,0.005591
23.090,47.8429,0.005591
23.105,47.8136,0.005591
23.121,47.7850,0.005591
23.137,47.7563,0.005591
23.153,47.7271,0.005591
23.170,47.6979,0.005591
23.186,47.6700,0.005799
23.202,47.6414,0.005799
23.217,47.6137,0.005799
23.233,47.5856,0.005799
23.249,47.5579,0.005799
23.265,47.5311,0.005799
23.281,47.5040,0.005799
23.298,47.4763,0.005799
23.314,47.4491,0.005799
23.329,47.4235,0.005799
23.351,47.3868,0.005799
23.373,47.3515,0.005799
23.393,47.3185,0.005799
23.410,47.2924,0.005799
23.426,47.2646,0.005799
23.442,47.2413,0.005799
23.466,47.2029,0.006232
23.481,47.1795,0.006232
23.498,47.1536,0.006232
23.513,47.1299,0.006232
23.529,47.1058,0.006232
23.545,47.0824,0.006232
23.562,47.0576,0.006232
23.577,47.0346,0.006232
23.593,47.0113,0.006232
23.609,46.9880,0.006232
23.626,46.9642,0.006232
23.641,46.9419,0.006232
23.658,46.9178,0.006232
23.674,46.8959,0.006232
23.689,46.8747,0.006561
23.705,46.8517,0.006561
23.722,46.8295,0.006561
23.737,46.8088,0.006561
23.753,46.7872,0.006561
23.770,46.7643,0.006561
23.795,46.7308,0.006561
23.820,46.6984,0.006561
23.837,46.6766,0.006561
23.868,46.6376,0.006561
23.898,46.6002,0.006561
23.914,46.5804,0.006561
23.931,46.5606,0.006843
23.961,46.5239,0.006843
23.993,46.4867,0.006843
24.015,46.4613,0.006843
24.039,46.4355,0.006843
24.056,46.4159,0.006843
24.072,46.3975,0.006843
24.088,46.3808,0.006843
24.104,46.3626,0.006843
24.120,46.3463,0.006843
24.137,46.3277,0.006843
24.163,46.3006,0.006843
24.185,46.2787,0.006843
24.200,46.2631,0.007116
24.217,46.2466,0.007116
24.233,46.2315,0.007116
24.248,46.2160,0.007116
24.264,46.2012,0.007116
24.280,46.1851,0.007116
24.300,46.1672,0.007116
24.317,46.1518,0.007116
24.332,46.1375,0.007116
24.362,46.1107,0.007116
24.378,46.0967,0.007116
24.409,46.0707,0.007116
24.424,46.0577,0.007116
24.440,46.0447,0.007361
24.456,46.0318,0.007361
24.472,46.0188,0.007361
24.488,46.0065,0.007361
24.504,45.9940,0.007361
24.530,45.9739,0.007361
24.546,45.9616,0.007361
24.562,45.9504,0.007361
24.578,45.9383,0.007361
24.597,45.9254,0.007361
24.624,45.9065,0.007361
24.642,45.8945,0.007361
24.658,45.8841,0.007361
24.674,45.8737,0.007361
24.690,45.8631,0.007653
24.706,45.8533,0.007653
24.722,45.8433,0.007653
24.738,45.8341,0.007653
24.754,45.8241,0.007653
24.770,45.8156,0.007653
24.787,45.8057,0.007653
24.803,45.7971,0.007653
24.826,45.7845,0.007653
24.857,45.7682,0.007653
24.872,45.7604,0.007653
24.888,45.7532,0.007653
24.921,45.7375,0.007653
24.949,45.7250,0.007851
24.965,45.7184,0.007851
24.982,45.7114,0.007851
25.011,45.6997,0.007851
25.027,45.6936,0.007851
25.043,45.6878,0.007851
25.058,45.6823,0.007851
25.086,45.6725,0.007851
25.102,45.6674,0.007851
25.118,45.6623,0.007851
25.134,45.6576,0.007851
25.159,45.6504,0.007851
25.182,45.6445,0.007851
25.198,45.6403,0.007973
25.215,45.6363,0.007973
25.230,45.6327,0.007973
25.246,45.6292,0.007973
25.263,45.6259,0.007973
25.278,45.6229,0.007973
25.295,45.6199,0.007973
25.311,45.6173,0.007973
25.327,45.6147,0.007973
25.346,45.6121,0.007973
25.368,45.6092,0.007973
25.399,45.6060,0.007973
25.414,45.6047,0.007973
25.430,45.6034,0.007973
25.461,45.6016,0.008077
25.492,45.6004,0.008077
25.508,45.6002,0.008077
25.538,45.6001,0.008077
25.569,45.6001,0.008077
25.585,45.6001,0.008077
25.608,45.6001,0.008077
25.625,45.6001,0.008077
25.641,45.6001,0.008077
25.657,45.6001,0.008077
25.676,45.6003,0.008152
25.707,45.6013,0.008152
25.738,45.6030,0.008152
25.768,45.6054,0.008152
25.784,45.6070,0.008152
25.800,45.6088,0.008152
25.816,45.6106,0.008152
25.833,45.6130,0.008152
25.848,45.6151,0.008152
25.864,45.6176,0.008152
25.881,45.6204,0.008152
25.902,45.6244,0.008152
25.925,45.6290,0.008152
25.945,45.6332,0.008114
25.961,45.6367,0.008114
25.977,45.6409,0.008114
26.004,45.6476,0.008114
26.024,45.6533,0.008114
26.040,45.6579,0.008114
26.057,45.6629,0.008114
26.072,45.6677,0.008114
26.088,45.6731,0.008114
26.105,45.6786,0.008114
26.121,45.6840,0.008114
26.144,45.6927,0.008114
26.160,45.6988,0.008114
26.176,45.7051,0.008086
26.192,45.7117,0.008086
26.209,45.7186,0.008086
26.236,45.7304,0.008086
26.256,45.7393,0.008086
26.274,45.7474,0.008086
26.289,45.7546,0.008086
26.304,45.7623,0.008086
26.320,45.7705,0.008086
26.337,45.7790,0.008086
26.352,45.7870,0.008086
26.368,45.7955,0.008086
26.385,45.8051,0.008086
26.401,45.8141,0.008086
26.417,45.8228,0.008086
26.432,45.8319,0.008086
26.448,45.8417,0.008086
26.464,45.8513,0.008086
26.480,45.8613,0.008086
26.496,45.8717,0.008086
26.512,45.8820,0.008086
26.529,45.8925,0.008086
26.545,45.9036,0.008086
26.560,45.9141,0.008086
26.576,45.9250,0.008086
26.592,45.9365,0.008086
26.609,45.9485,0.008086
26.639,45.9709,0.008086
26.656,45.9835,0.008086
26.672,45.9960,0.008086
26.701,46.0185,0.007926
26.717,46.0317,0.007926
26.733,46.0443,0.007926
26.749,46.0576,0.007926
26.768,46.0735,0.007926
26.794,46.0960,0.007926
26.813,46.1125,0.007926
26.833,46.1310,0.007926
26.856,46.1514,0.007926
26.877,46.1707,0.007926
26.893,46.1857,0.007926
26.909,46.2010,0.007926
26.925,46.2158,0.007719
26.941,46.2325,0.007719
26.957,46.2472,0.007719
26.973,46.2637,0.007719
26.989,46.2792,0.007719
27.005,46.2955,0.007719
27.021,46.3118,0.007719
27.037,46.3287,0.007719
27.053,46.3456,0.007719
27.069,46.3628,0.007719
27.085,46.3805,0.007719
27.101,46.3974,0.007719
27.117,46.4154,0.007719
27.133,46.4330,0.007719
27.149,46.4511,0.007719
27.165,46.4692,0.007408
27.181,46.4876,0.007408
27.198,46.5077,0.007408
27.213,46.5258,0.007408
27.229,46.5449,0.007408
27.257,46.5784,0.007408
27.273,46.5986,0.007408
27.289,46.6176,0.007408
27.305,46.6376,0.007408
27.321,46.6582,0.007408
27.337,46.6781,0.007408
27.353,46.6980,0.007408
27.369,46.7199,0.007408
27.386,46.7433,0.007408
27.402,46.7620,0.007408
27.429,46.7988,0.007088
27.449,46.8260,0.007088
27.465,46.8471,0.007088
27.482,46.8712,0.007088
27.497,46.8916,0.007088
27.513,46.9141,0.007088
27.530,46.9379,0.007088
27.545,46.9595,0.007088
27.561,46.9827,0.007088
27.577,47.0069,0.007088
27.593,47.0292,0.007088
27.609,47.0535,0.007088
27.625,47.0779,0.007088
27.642,47.1024,0.007088
27.660,47.1299,0.006815
27.675,47.1531,0.006815
27.706,47.2008,0.006815
27.721,47.2244,0.006815
27.737,47.2490,0.006815
27.753,47.2750,0.006815
27.769,47.3004,0.006815
27.785,47.3259,0.006815
27.811,47.3685,0.006815
27.828,47.3956,0.006815
27.859,47.4475,0.006815
27.876,47.4778,0.006815
27.905,47.5263,0.006542
27.923,47.5558,0.006542
27.940,47.5887,0.006542
27.959,47.6188,0.006542
27.983,47.6611,0.006542
28.003,47.6980,0.006542
28.018,47.7247,0.006542
28.035,47.7540,0.006542
28.051,47.7826,0.006542
28.067,47.8120,0.006542
28.083,47.8418,0.006542
28.098,47.8699,0.006542
28.115,47.9018,0.006542
28.131,47.9312,0.006542
28.146,47.9605,0.006542
28.162,47.9902,0.006260
28.178,48.0209,0.006260
28.194,48.0519,0.006260
28.210,48.0822,0.006260
28.227,48.1139,0.006260
28.242,48.1452,0.006260
28.258,48.1779,0.006260
28.275,48.2092,0.006260
28.291,48.2409,0.006260
28.309,48.2762,0.006260
28.337,48.3362,0.006260
28.365,48.3907,0.006260
28.381,48.4252,0.006260
28.400,48.4646,0.006260
28.415,48.4968,0.005836
28.431,48.5286,0.005836
28.461,48.5926,0.005836
28.476,48.6251,0.005836
28.492,48.6599,0.005836
28.508,48.6927,0.005836
28.525,48.7276,0.005836
28.541,48.7609,0.005836
28.557,48.7929,0.005836
28.572,48.8246,0.005836
28.589,48.8595,0.005836
28.605,48.8923,0.005836
28.620,48.9220,0.005836
28.636,48.9544,0.005836
28.652,48.9868,0.005836
28.669,49.0190,0.005836
28.685,49.0510,0.005836
28.701,49.0822,0.005554
28.717,49.1129,0.005554
28.733,49.1455,0.005554
28.749,49.1755,0.005554
28.764,49.2042,0.005554
28.780,49.2346,0.005554
28.796,49.2655,0.005554
28.812,49.2947,0.005554
28.828,49.3247,0.005554
28.845,49.3549,0.005554
28.860,49.3841,0.005554
28.877,49.4134,0.005554
28.892,49.4423,0.005554
28.909,49.4715,0.005554
28.925,49.5010,0.005554
28.940,49.5275,0.005413
28.957,49.5567,0.005413
28.973,49.5862,0.005413
28.989,49.6127,0.005413
29.004,49.6400,0.005413
29.020,49.6673,0.005413
29.037,49.6956,0.005413
29.053,49.7225,0.005413
29.069,49.7494,0.005413
29.084,49.7748,0.005413
29.105,49.8104,0.005413
29.128,49.8485,0.005413
29.148,49.8797,0.005413
29.166,49.9083,0.005413
29.191,49.9480,0.005130
29.212,49.9813,0.005130
29.229,50.0075,0.005130
29.244,50.0311,0.005130
29.260,50.0554,0.005130
29.276,50.0799,0.005130
29.299,50.1148,0.005130
29.329,50.1593,0.005130
29.360,50.2049,0.005130
29.390,50.2477,0.005130
29.406,50.2704,0.005130
29.437,50.3140,0.005130
29.465,50.3531,0.004829
29.481,50.3748,0.004829
29.497,50.3968,0.004829
29.513,50.4188,0.004829
29.529,50.4402,0.004829
29.545,50.4605,0.004829
29.561,50.4816,0.004829
29.577,50.5025,0.004829
29.593,50.5229,0.004829
29.609,50.5436,0.004829
29.625,50.5631,0.004829
29.641,50.5835,0.004829
29.657,50.6032,0.004829
29.673,50.6225,0.004829
29.689,50.6425,0.004556
29.705,50.6615,0.004556
29.722,50.6808,0.004556
29.738,50.6998,0.004556
29.762,50.7276,0.004556
29.793,50.7632,0.004556
29.808,50.7811,0.004556
29.824,50.7978,0.004556
29.857,50.8340,0.004556
29.886,50.8652,0.004556
29.918,50.8976,0.004556
29.948,50.9290,0.004387
29.979,50.9594,0.004387
30.009,50.9881,0.004387
30.025,51.0048,0.004387
30.041,51.0199,0.004387
30.057,51.0339,0.004387
30.073,51.0483,0.004387
30.092,51.0655,0.004387
30.118,51.0887,0.004387
30.137,51.1052,0.004387
30.155,51.1215,0.004387
30.180,51.1423,0.004227
30.201,51.1590,0.004227
30.217,51.1724,0.004227
30.233,51.1847,0.004227
30.249,51.1976,0.004227
30.264,51.2096,0.004227
30.281,51.2227,0.004227
30.297,51.2341,0.004227
30.313,51.2460,0.004227
30.329,51.2575,0.004227
30.345,51.2691,0.004227
30.361,51.2805,0.004227
30.377,51.2913,0.004227
30.393,51.3020,0.004227
30.409,51.3131,0.004227
30.425,51.3231,0.004048
30.441,51.3333,0.004048
30.458,51.3441,0.004048
30.473,51.3533,0.004048
30.489,51.3632,0.004048
30.505,51.3726,0.004048
30.521,51.3819,0.004048
30.537,51.3911,0.004048
30.553,51.3999,0.004048
30.579,51.4139,0.004048
30.595,51.4222,0.004048
30.611,51.4304,0.004048
30.627,51.4385,0.004048
30.643,51.4463,0.004048
30.659,51.4540,0.003746
30.675,51.4613,0.003746
30.692,51.4691,0.003746
30.723,51.4825,0.003746
30.739,51.4891,0.003746
30.755,51.4959,0.003746
30.771,51.5018,0.003746
30.786,51.5078,0.003746
30.804,51.5141,0.003746
30.819,51.5197,0.003746
30.838,51.5262,0.003746
30.864,51.5345,0.003746
30.884,51.5405,0.003746
30.899,51.5449,0.003746
30.915,51.5495,0.002928
30.930,51.5538,0.002928
30.947,51.5579,0.002928
30.962,51.5619,0.002928
30.979,51.5656,0.002928
30.995,51.5692,0.002928
31.010,51.5725,0.002928
31.027,51.5758,0.002928
31.043,51.5787,0.002928
31.059,51.5817,0.002928
31.075,51.5841,0.002928
31.090,51.5864,0.002928
31.112,51.5894,0.002928
31.127,51.5913,0.002928
31.144,51.5930,0.002928
31.159,51.5946,0.002928
31.177,51.5961,0.001393
31.192,51.5971,0.001393
31.207,51.5981,0.001393
31.223,51.5988,0.001393
31.239,51.5995,0.001393
31.256,51.5998,0.001393
31.272,51.6001,0.001393
31.287,51.6001,0.001393
31.304,51.6001,0.001393
31.320,51.6001,0.001393
31.336,51.6001,0.001393
31.352,51.6001,0.001393
31.377,51.6001,0.001393
31.405,51.6001,0.001393
31.435,51.6001,0.001393
31.451,51.6001,0.000772
31.481,51.6001,0.000772
31.497,51.6001,0.000772
31.527,51.6001,0.000772
31.546,51.6001,0.000772
31.575,51.6001,0.000772
31.592,51.6001,0.000772
31.608,51.6001,0.000772
31.624,51.6001,0.000772
31.640,51.6001,0.000772
31.665,51.6001,0.000772
31.681,51.6001,0.000772
31.697,51.6001,0.001817
31.714,51.6001,0.001817
31.730,51.6001,0.001817
31.746,51.6001,0.001817
31.761,51.6001,0.001817
31.777,51.6001,0.001817
31.794,51.6001,0.001817
31.809,51.6001,0.001817
31.826,51.6001,0.001817
31.841,51.6001,0.001817
31.862,51.6001,0.001817
31.884,51.6001,0.001817
31.905,51.6001,0.001817
31.922,51.6001,0.001817
31.937,51.6001,0.001817
31.953,51.6001,0.002702
31.969,51.6001,0.002702
31.986,51.6001,0.002702
32.006,51.6001,0.002702
32.024,51.6001,0.002702
32.039,51.6001,0.002702
32.070,51.6001,0.002702
32.086,51.6001,0.002702
32.116,51.6001,0.002702
32.147,51.6001,0.002702
32.178,51.6001,0.002702
32.193,51.6001,0.002702
32.223,51.6001,0.003022
32.240,51.6001,0.003022
32.255,51.6001,0.003022
32.270,51.6001,0.003022
32.287,51.6001,0.003022
32.302,51.6001,0.003022
32.318,51.6001,0.003022
32.334,51.6001,0.003022
32.351,51.6001,0.003022
32.366,51.6001,0.003022
32.382,51.6001,0.003022
32.398,51.6001,0.003022
32.416,51.6001,0.003022
32.431,51.6001,0.003022
32.457,51.6001,0.003191
32.478,51.6001,0.003191
32.494,51.6001,0.003191
32.510,51.6001,0.003191
32.526,51.6001,0.003191
32.542,51.6001,0.003191
32.558,51.6001,0.003191
32.574,51.6001,0.003191
32.590,51.6001,0.003191
32.606,51.6001,0.003191
32.622,51.6001,0.003191
32.638,51.6001,0.003191
32.654,51.6001,0.003191
32.670,51.6001,0.003191
32.686,51.6001,0.003342
32.702,51.6001,0.003342
32.718,51.6001,0.003342
32.734,51.6001,0.003342
32.750,51.6001,0.003342
32.780,51.6001,0.003342
32.796,51.6001,0.003342
32.812,51.6001,0.003342
32.828,51.6001,0.003342
32.844,51.6001,0.003342
32.860,51.6001,0.003342
32.876,51.6001,0.003342
32.892,51.6001,0.003342
32.909,51.6001,0.003342
32.924,51.6001,0.003342
32.940,51.6001,0.003408
32.956,51.6001,0.003408
32.972,51.6001,0.003408
32.988,51.6001,0.003408
33.004,51.6001,0.003408
33.020,51.6001,0.003408
33.036,51.6001,0.003408
33.052,51.6001,0.003408
33.068,51.6001,0.003408
33.084,51.6001,0.003408
33.100,51.6001,0.003408
33.116,51.6001,0.003408
33.132,51.6001,0.003408
33.148,51.6001,0.003408
33.164,51.6001,0.003408
33.180,51.6001,0.003408
33.196,51.6001,0.003408
33.212,51.6001,0.003408
33.228,51.6001,0.003408
33.244,51.6001,0.003408
33.260,51.6001,0.003408
33.276,51.6001,0.003408
33.292,51.6001,0.003408
33.308,51.6001,0.003408
33.338,51.6001,0.003408
33.354,51.6001,0.003408
33.370,51.6001,0.003408
33.386,51.6001,0.003408
33.402,51.6001,0.003408
33.418,51.6001,0.003408
33.434,51.6001,0.003530
33.450,51.6001,0.003530
33.466,51.6001,0.003530
33.482,51.6001,0.003530
33.498,51.6001,0.003530
33.514,51.6001,0.003530
33.530,51.6001,0.003530
33.546,51.6001,0.003530
33.562,51.6001,0.003530
33.578,51.6001,0.003530
33.594,51.6001,0.003530
33.610,51.6001,0.003530
33.626,51.6001,0.003530
33.642,51.6001,0.003530
33.658,51.6001,0.003530
33.673,51.6001,0.003521
33.690,51.6001,0.003521
33.705,51.6001,0.003521
33.722,51.6001,0.003521
33.737,51.6001,0.003521
33.754,51.6001,0.003521
33.771,51.6001,0.003521
33.788,51.6001,0.003521
33.819,51.6001,0.003521
33.836,51.6001,0.003521
33.866,51.6001,0.003521
33.897,51.6001,0.003521
33.913,51.6001,0.003521
33.929,51.6001,0.003483
33.945,51.6001,0.003483
33.961,51.6001,0.003483
33.976,51.6001,0.003483
33.992,51.6001,0.003483
34.008,51.6001,0.003483
34.025,51.6001,0.003483
34.040,51.6001,0.003483
34.057,51.6001,0.003483
34.073,51.6001,0.003483
34.088,51.6001,0.003483
34.105,51.6001,0.003483
34.121,51.6001,0.003483
34.137,51.6001,0.003483
34.154,51.6001,0.003483
34.177,51.6001,0.003483
34.192,51.6001,0.003530
34.208,51.6001,0.003530
34.239,51.6001,0.003530
34.270,51.6001,0.003530
34.287,51.6001,0.003530
34.317,51.6001,0.003530
34.348,51.6001,0.003530
34.379,51.6001,0.003530
34.409,51.6001,0.003530
34.440,51.6001,0.003521
34.458,51.6001,0.003521
34.473,51.6001,0.003521
34.489,51.6001,0.003521
34.504,51.6001,0.003521
34.520,51.6001,0.003521
34.537,51.6001,0.003521
34.565,51.6001,0.003521
34.588,51.6001,0.003521
34.612,51.6001,0.003521
34.632,51.6001,0.003521
34.649,51.6001,0.003521
34.664,51.6001,0.003521
34.680,51.6001,0.003502
34.697,51.6001,0.003502
34.712,51.6001,0.003502
34.729,51.6001,0.003502
34.744,51.6001,0.003502
34.760,51.6001,0.003502
34.778,51.6001,0.003502
34.797,51.6001,0.003502
34.813,51.6001,0.003502
34.829,51.6001,0.003502
34.859,51.6001,0.003502
34.875,51.6001,0.003502
34.905,51.6001,0.003502
34.921,51.6001,0.003483
34.936,51.6001,0.003483
34.952,51.6001,0.003483
34.976,51.6001,0.003483
34.999,51.6001,0.003483
35.029,51.6001,0.003483
35.045,51.6001,0.003483
35.075,51.6001,0.003483
35.091,51.6001,0.003483
35.121,51.6001,0.003483
35.152,51.6001,0.003483
35.168,51.6001,0.003483
35.200,51.6001,0.003379
35.215,51.6001,0.003379
35.230,51.6001,0.003379
35.246,51.6001,0.003379
35.262,51.6001,0.003379
35.278,51.6001,0.003379
35.294,51.6001,0.003379
35.309,51.6001,0.003379
35.326,51.6001,0.003379
35.342,51.6001,0.003379
35.358,51.6001,0.003379
35.374,51.6001,0.003379
35.390,51.6001,0.003379
35.406,51.6001,0.003379
35.422,51.6001,0.003379
35.438,51.6001,0.003238
35.454,51.6001,0.003238
35.470,51.6001,0.003238
35.486,51.6001,0.003238
35.502,51.6001,0.003238
35.527,51.6001,0.003238
35.543,51.6001,0.003238
35.559,51.6001,0.003238
35.575,51.6001,0.003238
35.591,51.6000,0.003238
35.607,51.5996,0.003238
35.623,51.5991,0.003238
35.639,51.5983,0.003238
35.655,51.5973,0.003238
35.671,51.5962,0.003238
35.686,51.5950,0.003182
35.704,51.5934,0.003182
35.726,51.5909,0.003182
35.756,51.5871,0.003182
35.772,51.5847,0.003182
35.788,51.5822,0.003182
35.819,51.5768,0.003182
35.835,51.5737,0.003182
35.865,51.5672,0.003182
35.881,51.5636,0.003182
35.912,51.5562,0.003182
35.927,51.5520,0.005742
35.943,51.5477,0.005742
35.962,51.5422,0.005742
35.989,51.5338,0.005742
36.007,51.5280,0.005742
36.025,51.5219,0.005742
36.052,51.5126,0.005742
36.071,51.5054,0.005742
36.087,51.4990,0.005742
36.103,51.4929,0.005742
36.120,51.4860,0.005742
36.144,51.4753,0.005742
36.171,51.4639,0.005742
36.191,51.4546,0.005742
36.206,51.4470,0.012953
36.237,51.4321,0.012953
36.252,51.4242,0.012953
36.268,51.4154,0.012953
36.290,51.4040,0.012953
36.311,51.3927,0.012953
36.327,51.3839,0.012953
36.343,51.3745,0.012953
36.359,51.3649,0.012953
36.375,51.3555,0.012953
36.391,51.3455,0.012953
36.407,51.3352,0.012953
36.423,51.3252,0.013546
36.439,51.3151,0.013546
36.455,51.3045,0.013546
36.471,51.2935,0.013546
36.488,51.2821,0.013546
36.503,51.2714,0.013546
36.524,51.2564,0.013546
36.545,51.2407,0.013546
36.561,51.2284,0.013546
36.583,51.2121,0.013546
36.599,51.1999,0.013546
36.614,51.1877,0.013546
36.630,51.1750,0.013546
36.651,51.1583,0.013546
36.670,51.1424,0.013546
36.700,51.1174,0.007022
36.716,51.1034,0.007022
36.746,51.0768,0.007022
36.782,51.0438,0.007022
36.807,51.0213,0.007022
36.824,51.0055,0.007022
36.854,50.9764,0.007022
36.870,50.9607,0.007022
36.887,50.9445,0.007022
36.903,50.9279,0.007022
36.932,50.8981,0.004509
36.952,50.8780,0.004509
36.967,50.8625,0.004509
36.982,50.8458,0.004509
36.998,50.8286,0.004509
37.015,50.8109,0.004509
37.030,50.7936,0.004509
37.047,50.7754,0.004509
37.063,50.7573,0.004509
37.079,50.7392,0.004509
37.094,50.7214,0.004509
37.110,50.7031,0.004509
37.133,50.6759,0.004509
37.150,50.6560,0.004509
37.165,50.6377,0.004434
37.181,50.6183,0.004434
37.204,50.5905,0.004434
37.228,50.5596,0.004434
37.245,50.5388,0.004434
37.261,50.5186,0.004434
37.278,50.4974,0.004434
37.293,50.4772,0.004434
37.309,50.4555,0.004434
37.327,50.4323,0.004434
37.351,50.4003,0.004434
37.383,50.3567,0.004434
37.413,50.3154,0.004434
37.443,50.2724,0.004490
37.473,50.2304,0.004490
37.488,50.2083,0.004490
37.504,50.1836,0.004490
37.535,50.1404,0.004490
37.565,50.0948,0.004490
37.585,50.0638,0.004490
37.611,50.0255,0.004490
37.631,49.9937,0.004490
37.657,49.9513,0.004490
37.677,49.9205,0.004650
37.694,49.8946,0.004650
37.710,49.8685,0.004650
37.725,49.8433,0.004650
37.741,49.8167,0.004650
37.757,49.7906,0.004650
37.773,49.7644,0.004650
37.789,49.7375,0.004650
37.806,49.7098,0.004650
37.822,49.6822,0.004650
37.837,49.6559,0.004650
37.853,49.6280,0.004650
37.869,49.6002,0.004650
37.885,49.5728,0.004650
37.901,49.5449,0.004650
37.917,49.5155,0.004857
37.933,49.4878,0.004857
37.949,49.4577,0.004857
37.965,49.4300,0.004857
37.981,49.4000,0.004857
38.000,49.3662,0.004857
38.027,49.3161,0.004857
38.045,49.2822,0.004857
38.062,49.2512,0.004857
38.078,49.2216,0.004857
38.094,49.1903,0.004857
38.120,49.1396,0.004857
38.144,49.0944,0.004857
38.166,49.0508,0.004857
38.181,49.0209,0.004857
38.203,48.9775,0.005149
38.219,48.9455,0.005149
38.235,48.9131,0.005149
38.251,48.8815,0.005149
38.267,48.8477,0.005149
38.283,48.8154,0.005149
38.299,48.7824,0.005149
38.315,48.7490,0.005149
38.331,48.7162,0.005149
38.347,48.6827,0.005149
38.363,48.6484,0.005149
38.379,48.6150,0.005149
38.395,48.5799,0.005149
38.411,48.5467,0.005497
38.427,48.5129,0.005497
38.444,48.4773,0.005497
38.460,48.4441,0.005497
38.475,48.4123,0.005497
38.491,48.3783,0.005497
38.507,48.3441,0.005497
38.523,48.3125,0.005497
38.539,48.2798,0.005497
38.555,48.2481,0.005497
38.572,48.2142,0.005497
38.597,48.1626,0.005497
38.628,48.1021,0.005497
38.644,48.0714,0.005497
38.674,48.0108,0.005704
38.706,47.9519,0.005704
38.736,47.8935,0.005704
38.756,47.8573,0.005704
38.772,47.8275,0.005704
38.788,47.7979,0.005704
38.804,47.7678,0.005704
38.820,47.7385,0.005704
38.836,47.7106,0.005704
38.852,47.6816,0.005704
38.868,47.6529,0.005704
38.884,47.6238,0.005704
38.900,47.5951,0.005704
38.916,47.5683,0.005940
38.932,47.5395,0.005940
38.948,47.5120,0.005940
38.964,47.4850,0.005940
38.980,47.4578,0.005940
38.997,47.4285,0.005940
39.012,47.4030,0.005940
39.028,47.3770,0.005940
39.044,47.3502,0.005940
39.060,47.3240,0.005940
39.076,47.2982,0.005940
39.092,47.2713,0.005940
39.108,47.2460,0.005940
39.124,47.2204,0.005940
39.140,47.1946,0.005940
39.156,47.1703,0.006354
39.172,47.1455,0.006354
39.189,47.1189,0.006354
39.205,47.0943,0.006354
39.220,47.0712,0.006354
39.236,47.0471,0.006354
39.253,47.0224,0.006354
39.281,46.9806,0.006354
39.312,46.9353,0.006354
39.329,46.9112,0.006354
39.344,46.8892,0.006354
39.360,46.8668,0.006354
39.377,46.8424,0.006354
39.405,46.8035,0.006636
39.424,46.7783,0.006636
39.440,46.7558,0.006636
39.456,46.7346,0.006636
39.472,46.7129,0.006636
39.488,46.6925,0.006636
39.504,46.6698,0.006636
39.520,46.6498,0.006636
39.536,46.6303,0.006636
39.552,46.6100,0.006636
39.568,46.5889,0.006636
39.584,46.5694,0.006636
39.600,46.5492,0.006636
39.616,46.5304,0.006636
39.632,46.5109,0.006636
39.648,46.4915,0.006636
39.664,46.4722,0.006890
39.680,46.4537,0.006890
39.696,46.4351,0.006890
39.712,46.4170,0.006890
39.728,46.3974,0.006890
39.748,46.3750,0.006890
39.763,46.3592,0.006890
39.791,46.3280,0.006890
39.808,46.3101,0.006890
39.823,46.2934,0.006890
39.840,46.2762,0.006890
39.861,46.2543,0.006890
39.877,46.2372,0.006890
39.893,46.2217,0.006890
39.909,46.2056,0.006890
39.925,46.1891,0.006890
39.941,46.1742,0.007192
39.957,46.1589,0.007192
39.972,46.1435,0.007192
39.989,46.1284,0.007192
40.005,46.1132,0.007192
40.020,46.0993,0.007192
40.037,46.0848,0.007192
40.052,46.0697,0.007192
40.069,46.0561,0.007192
40.085,46.0421,0.007192
40.100,46.0283,0.007192
40.116,46.0148,0.007192
40.132,46.0017,0.007192
40.149,45.9885,0.007192
40.165,45.9747,0.007192
40.181,45.9626,0.007192
40.197,45.9498,0.007474
40.212,45.9382,0.007474
40.229,45.9256,0.007474
40.245,45.9137,0.007474
40.261,45.9019,0.007474
40.276,45.8908,0.007474
40.293,45.8787,0.007474
40.309,45.8678,0.007474
40.325,45.8568,0.007474
40.341,45.8459,0.007474
40.357,45.8347,0.007474
40.379,45.8210,0.007474
40.411,45.8009,0.007474
40.440,45.7828,0.007728
40.471,45.7649,0.007728
40.487,45.7560,0.007728
40.517,45.7396,0.007728
40.548,45.7233,0.007728
40.564,45.7153,0.007728
40.581,45.7067,0.007728
40.596,45.6997,0.007728
40.612,45.6922,0.007728
40.628,45.6849,0.007728
40.647,45.6765,0.007728
40.674,45.6652,0.007964
40.692,45.6575,0.007964
40.711,45.6497,0.007964
40.727,45.6441,0.007964
40.751,45.6352,0.007964
40.781,45.6245,0.007964
40.813,45.6145,0.007964
40.829,45.6092,0.007964
40.859,45.6007,0.007964
40.890,45.5924,0.007964
40.921,45.5851,0.007964
40.937,45.5816,0.007964
40.953,45.5781,0.008133
40.984,45.5720,0.008133
41.014,45.5670,0.008133
41.029,45.5645,0.008133
41.060,45.5604,0.008133
41.080,45.5579,0.008133
41.107,45.5553,0.008133
41.124,45.5539,0.008133
41.141,45.5527,0.008133
41.157,45.5518,0.008133
41.172,45.5511,0.008180
41.189,45.5506,0.008180
41.208,45.5502,0.008180
41.223,45.5501,0.008180
41.246,45.5501,0.008180
41.277,45.5501,0.008180
41.307,45.5501,0.008180
41.339,45.5501,0.008180
41.369,45.5501,0.008180
41.401,45.5506,0.008180
41.432,45.5517,0.008274
41.462,45.5536,0.008274
41.478,45.5548,0.008274
41.494,45.5563,0.008274
41.510,45.5580,0.008274
41.540,45.5616,0.008274
41.556,45.5637,0.008274
41.572,45.5662,0.008274
41.588,45.5687,0.008274
41.604,45.5717,0.008274
41.620,45.5745,0.008274
41.637,45.5780,0.008274
41.665,45.5841,0.008208
41.684,45.5884,0.008208
41.701,45.5925,0.008208
41.716,45.5965,0.008208
41.732,45.6009,0.008208
41.748,45.6057,0.008208
41.767,45.6110,0.008208
41.789,45.6176,0.008208
41.805,45.6233,0.008208
41.835,45.6336,0.008208
41.865,45.6447,0.008208
41.896,45.6564,0.008208
41.927,45.6695,0.008095
41.959,45.6833,0.008095
41.989,45.6972,0.008095
42.005,45.7049,0.008095
42.036,45.7202,0.008095
42.052,45.7283,0.008095
42.068,45.7371,0.008095
42.084,45.7454,0.008095
42.100,45.7539,0.008095
42.116,45.7628,0.008095
42.138,45.7758,0.008095
42.160,45.7893,0.008105
42.180,45.8010,0.008105
42.197,45.8113,0.008105
42.213,45.8216,0.008105
42.228,45.8319,0.008105
42.244,45.8419,0.008105
42.260,45.8530,0.008105
42.276,45.8632,0.008105
42.292,45.8744,0.008105
42.308,45.8859,0.008105
42.324,45.8976,0.008105
42.340,45.9093,0.008105
42.356,45.9210,0.008105
42.372,45.9331,0.008105
42.388,45.9455,0.008105
42.404,45.9575,0.008105
42.420,45.9704,0.007982
42.437,45.9843,0.007982
42.452,45.9966,0.007982
42.468,46.0097,0.007982
42.484,46.0227,0.007982
42.500,46.0380,0.007982
42.523,46.0571,0.007982
42.546,46.0768,0.007982
42.576,46.1050,0.007982
42.592,46.1187,0.007982
42.607,46.1331,0.007982
42.639,46.1638,0.007982
42.654,46.1785,0.007982
42.670,46.1935,0.007982
42.686,46.2091,0.007747
42.718,46.2421,0.007747
42.748,46.2726,0.007747
42.778,46.3055,0.007747
42.794,46.3213,0.007747
42.810,46.3396,0.007747
42.826,46.3574,0.007747
42.842,46.3747,0.007747
42.858,46.3925,0.007747
42.874,46.4103,0.007747
42.890,46.4297,0.007747
42.917,46.4605,0.007446
42.937,46.4847,0.007446
42.955,46.5052,0.007446
42.970,46.5235,0.007446
42.985,46.5426,0.007446
43.002,46.5631,0.007446
43.019,46.5842,0.007446
43.041,46.6122,0.007446
43.073,46.6525,0.007446
43.103,46.6922,0.007446
43.119,46.7139,0.007446
43.150,46.7545,0.007446
43.165,46.7756,0.007088
43.181,46.7976,0.007088
43.196,46.8182,0.007088
43.227,46.8611,0.007088
43.243,46.8858,0.007088
43.273,46.9271,0.007088
43.290,46.9519,0.007088
43.305,46.9738,0.007088
43.321,46.9973,0.007088
43.337,47.0209,0.007088
43.356,47.0498,0.007088
43.382,47.0891,0.007088
43.401,47.1179,0.007088
43.418,47.1433,0.007088
43.433,47.1674,0.007088
43.450,47.1936,0.006778
43.465,47.2182,0.006778
43.482,47.2446,0.006778
43.498,47.2719,0.006778
43.521,47.3084,0.006778
43.537,47.3349,0.006778
43.567,47.3844,0.006778
43.582,47.4092,0.006778
43.603,47.4449,0.006778
43.619,47.4717,0.006778
43.635,47.4995,0.006778
43.652,47.5274,0.006778
43.667,47.5553,0.006778
43.683,47.5828,0.006778
43.699,47.6105,0.006514
43.716,47.6396,0.006514
43.732,47.6684,0.006514
43.748,47.6979,0.006514
43.763,47.7257,0.006514
43.779,47.7540,0.006514
43.796,47.7842,0.006514
43.812,47.8138,0.006514
43.827,47.8434,0.006514
43.843,47.8732,0.006514
43.859,47.9031,0.006514
43.875,47.9332,0.006514
43.891,47.9637,0.006514
43.907,47.9957,0.006514
43.924,48.0266,0.006514
43.939,48.0567,0.006222
43.955,48.0871,0.006222
43.974,48.1246,0.006222
44.001,48.1785,0.006222
44.019,48.2150,0.006222
44.035,48.2476,0.006222
44.052,48.2795,0.006222
44.068,48.3122,0.006222
44.083,48.3446,0.006222
44.100,48.3783,0.006222
44.116,48.4113,0.006222
44.131,48.4457,0.006222
44.155,48.4951,0.006222
44.172,48.5290,0.006222
44.187,48.5624,0.005846
44.203,48.5961,0.005846
44.222,48.6367,0.005846
44.247,48.6883,0.005846
44.267,48.7308,0.005846
44.283,48.7630,0.005846
44.301,48.7988,0.005846
44.325,48.8495,0.005846
44.341,48.8811,0.005846
44.359,48.9162,0.005846
44.379,48.9566,0.005846
44.395,48.9878,0.005846
44.411,49.0208,0.005846
44.427,49.0506,0.005526
44.443,49.0819,0.005526
44.459,49.1125,0.005526
44.475,49.1435,0.005526
44.491,49.1736,0.005526
44.507,49.2048,0.005526
44.523,49.2348,0.005526
44.539,49.2648,0.005526
44.555,49.2939,0.005526
44.571,49.3235,0.005526
44.588,49.3548,0.005526
44.616,49.4046,0.005526
44.635,49.4387,0.005526
44.651,49.4682,0.005526
44.667,49.4963,0.005526
44.683,49.5247,0.005526
44.707,49.5662,0.005328
44.723,49.5931,0.005328
44.739,49.6208,0.005328
44.755,49.6476,0.005328
44.775,49.6816,0.005328
44.802,49.7266,0.005328
44.819,49.7554,0.005328
44.835,49.7823,0.005328
44.856,49.8155,0.005328
44.880,49.8537,0.005328
44.899,49.8848,0.005328
44.915,49.9098,0.005328
44.931,49.9344,0.005074
44.948,49.9610,0.005074
44.964,49.9855,0.005074
44.979,50.0100,0.005074
44.995,50.0332,0.005074
45.011,50.0577,0.005074
45.027,50.0814,0.005074
45.043,50.1051,0.005074
45.059,50.1284,0.005074
45.075,50.1525,0.005074
45.091,50.1755,0.005074
45.107,50.1981,0.005074
45.123,50.2213,0.005074
45.139,50.2435,0.005074
45.155,50.2660,0.005074
45.171,50.2879,0.004829
45.187,50.3101,0.004829
45.203,50.3317,0.004829
45.219,50.3544,0.004829
45.235,50.3755,0.004829
45.266,50.4163,0.004829
45.283,50.4386,0.004829
45.313,50.4768,0.004829
45.337,50.5076,0.004829
45.361,50.5384,0.004829
45.377,50.5574,0.004829
45.393,50.5771,0.004829
45.411,50.5980,0.004829
45.437,50.6295,0.004631
45.458,50.6541,0.004631
45.484,50.6849,0.004631
45.505,50.7077,0.004631
45.521,50.7257,0.004631
45.537,50.7434,0.004631
45.553,50.7606,0.004631
45.569,50.7779,0.004631
45.586,50.7964,0.004631
45.601,50.8130,0.004631
45.617,50.8291,0.004631
45.633,50.8458,0.004631
45.648,50.8620,0.004631
45.664,50.8783,0.004415
45.681,50.8944,0.004415
45.698,50.9116,0.004415
45.713,50.9261,0.004415
45.729,50.9416,0.004415
45.744,50.9565,0.004415
45.761,50.9720,0.004415
45.777,50.9869,0.004415
45.792,51.0012,0.004415
45.823,51.0286,0.004415
45.838,51.0425,0.004415
45.855,51.0565,0.004415
45.870,51.0698,0.004415
45.895,51.0913,0.004415
45.917,51.1088,0.004415
45.934,51.1228,0.004264
45.951,51.1366,0.004264
45.967,51.1485,0.004264
45.983,51.1610,0.004264
45.999,51.1731,0.004264
46.015,51.1852,0.004264
46.030,51.1968,0.004264
46.047,51.2089,0.004264
46.062,51.2197,0.004264
46.080,51.2322,0.004264
46.095,51.2420,0.004264
46.110,51.2527,0.004264
46.127,51.2638,0.004264
46.143,51.2744,0.004264
46.159,51.2846,0.004114
46.175,51.2941,0.004114
46.190,51.3039,0.004114
46.206,51.3138,0.004114
46.222,51.3231,0.004114
46.239,51.3326,0.004114
46.255,51.3415,0.004114
46.271,51.3509,0.004114
46.303,51.3682,0.004114
46.320,51.3770,0.004114
46.349,51.3913,0.004114
46.378,51.4056,0.004114
46.395,51.4129,0.004114
46.410,51.4200,0.003728
46.426,51.4269,0.003728
46.444,51.4344,0.003728
46.472,51.4463,0.003728
46.490,51.4530,0.003728
46.507,51.4596,0.003728
46.524,51.4658,0.003728
46.540,51.4711,0.003728
46.566,51.4799,0.003728
46.587,51.4863,0.003728
46.602,51.4912,0.003728
46.618,51.4960,0.003728
46.635,51.5006,0.003728
46.651,51.5051,0.003728
46.667,51.5088,0.003728
46.683,51.5128,0.002777
46.698,51.5164,0.002777
46.714,51.5198,0.002777
46.730,51.5232,0.002777
46.747,51.5267,0.002777
46.763,51.5294,0.002777
46.778,51.5320,0.002777
46.794,51.5346,0.002777
46.810,51.5369,0.002777
46.826,51.5391,0.002777
46.843,51.5410,0.002777
46.858,51.5429,0.002777
46.874,51.5444,0.002777
46.891,51.5459,0.002777
46.907,51.5470,0.002777
46.936,51.5487,0.001205
46.953,51.5493,0.001205
46.968,51.5498,0.001205
46.984,51.5501,0.001205
47.000,51.5501,0.001205
47.016,51.5501,0.001205
47.032,51.5501,0.001205
47.048,51.5501,0.001205
47.065,51.5501,0.001205
47.080,51.5501,0.001205
47.096,51.5501,0.001205
47.112,51.5501,0.001205
47.129,51.5501,0.001205
47.145,51.5501,0.001205
47.160,51.5501,0.000932
47.176,51.5501,0.000932
47.193,51.5501,0.000932
47.208,51.5501,0.000932
47.224,51.5501,0.000932
47.240,51.5501,0.000932
47.256,51.5501,0.000932
47.272,51.5501,0.000932
47.288,51.5501,0.000932
47.304,51.5501,0.000932
47.320,51.5501,0.000932
47.337,51.5501,0.000932
47.352,51.5501,0.000932
47.368,51.5501,0.000932
47.385,51.5501,0.000932
47.400,51.5501,0.000932
47.416,51.5501,0.002118
47.432,51.5501,0.002118
47.448,51.5501,0.002118
47.464,51.5501,0.002118
47.491,51.5501,0.002118
47.508,51.5501,0.002118
47.525,51.5501,0.002118
47.541,51.5501,0.002118
47.573,51.5501,0.002118
47.603,51.5501,0.002118
47.621,51.5501,0.002118
47.650,51.5501,0.002118
47.667,51.5501,0.002965
47.683,51.5501,0.002965
47.699,51.5501,0.002965
47.715,51.5501,0.002965
47.731,51.5501,0.002965
47.747,51.5501,0.002965
47.763,51.5501,0.002965
47.779,51.5501,0.002965
47.796,51.5501,0.002965
47.819,51.5501,0.002965
47.850,51.5501,0.002965
47.881,51.5501,0.002965
47.911,51.5501,0.002965
47.927,51.5501,0.002965
47.957,51.5501,0.003361
47.987,51.5501,0.003361
48.003,51.5501,0.003361
48.033,51.5501,0.003361
48.063,51.5501,0.003361
48.080,51.5501,0.003361
48.096,51.5501,0.003361
48.112,51.5501,0.003361
48.128,51.5501,0.003361
48.144,51.5501,0.003361
48.166,51.5501,0.003361
48.187,51.5501,0.003361
48.208,51.5501,0.003521
48.224,51.5501,0.003521
48.240,51.5501,0.003521
48.256,51.5501,0.003521
48.272,51.5501,0.003521
48.288,51.5501,0.003521
48.304,51.5501,0.003521
48.320,51.5501,0.003521
48.336,51.5501,0.003521
48.352,51.5501,0.003521
48.368,51.5501,0.003521
48.384,51.5501,0.003521
48.400,51.5501,0.003521
48.416,51.5501,0.003521
48.432,51.5501,0.003662
48.448,51.5501,0.003662
48.464,51.5501,0.003662
48.481,51.5501,0.003662
48.496,51.5501,0.003662
48.512,51.5501,0.003662
48.529,51.5501,0.003662
48.544,51.5501,0.003662
48.559,51.5501,0.003662
48.589,51.5501,0.003662
48.605,51.5501,0.003662
48.621,51.5501,0.003662
48.636,51.5501,0.003662
48.658,51.5501,0.003662
48.681,51.5501,0.003775
48.701,51.5501,0.003775
48.718,51.5501,0.003775
48.735,51.5501,0.003775
48.758,51.5501,0.003775
48.791,51.5501,0.003775
48.812,51.5501,0.003775
48.829,51.5501,0.003775
48.844,51.5501,0.003775
48.860,51.5501,0.003775
48.877,51.5501,0.003775
48.893,51.5501,0.003775
48.909,51.5501,0.003775
48.924,51.5501,0.003756
48.941,51.5501,0.003756
48.957,51.5501,0.003756
48.973,51.5501,0.003756
48.989,51.5501,0.003756
49.005,51.5501,0.003756
49.021,51.5501,0.003756
49.036,51.5501,0.003756
49.052,51.5501,0.003756
49.069,51.5501,0.003756
49.087,51.5501,0.003756
49.115,51.5501,0.003756
49.146,51.5501,0.003756
49.161,51.5501,0.003756
49.177,51.5501,0.003784
49.193,51.5501,0.003784
49.213,51.5501,0.003784
49.229,51.5501,0.003784
49.254,51.5501,0.003784
49.274,51.5501,0.003784
49.290,51.5501,0.003784
49.306,51.5501,0.003784
49.321,51.5501,0.003784
49.337,51.5501,0.003784
49.353,51.5501,0.003784
49.369,51.5501,0.003784
49.386,51.5501,0.003784
49.402,51.5501,0.003784
49.418,51.5501,0.003794
49.433,51.5501,0.003794
49.449,51.5501,0.003794
49.467,51.5501,0.003794
49.485,51.5501,0.003794
49.501,51.5501,0.003794
49.517,51.5501,0.003794
49.547,51.5501,0.003794
49.578,51.5501,0.003794
49.593,51.5501,0.003794
49.609,51.5501,0.003794
49.640,51.5501,0.003794
49.671,51.5501,0.003803
49.687,51.5501,0.003803
49.703,51.5501,0.003803
49.718,51.5501,0.003803
49.735,51.5501,0.003803
49.751,51.5501,0.003803
49.768,51.5501,0.003803
49.794,51.5501,0.003803
49.814,51.5501,0.003803
49.831,51.5501,0.003803
49.847,51.5501,0.003803
49.863,51.5501,0.003803
49.878,51.5501,0.003803
49.894,51.5501,0.003803
49.911,51.5501,0.003803
49.926,51.5501,0.003869
49.942,51.5501,0.003869
49.959,51.5501,0.003869
49.974,51.5501,0.003869
49.990,51.5501,0.003869
50.006,51.5501,0.003869
50.023,51.5501,0.003869
50.038,51.5501,0.003869
50.054,51.5501,0.003869
50.071,51.5501,0.003869
50.086,51.5501,0.003869
50.102,51.5501,0.003869
50.118,51.5501,0.003869
50.136,51.5501,0.003869
50.165,51.5501,0.003869
50.194,51.5501,0.003859
50.212,51.5501,0.003859
50.228,51.5501,0.003859
50.244,51.5501,0.003859
50.261,51.5501,0.003859
50.291,51.5501,0.003859
50.322,51.5501,0.003859
50.338,51.5501,0.003859
50.354,51.5501,0.003859
50.370,51.5501,0.003859
50.386,51.5501,0.003859
50.402,51.5501,0.003859
50.418,51.5501,0.003850
50.434,51.5501,0.003850
50.450,51.5501,0.003850
50.466,51.5501,0.003850
50.482,51.5501,0.003850
50.498,51.5501,0.003850
50.515,51.5501,0.003850
50.539,51.5501,0.003850
50.570,51.5501,0.003850
50.601,51.5501,0.003850
50.616,51.5501,0.003850
50.647,51.5501,0.003850
50.677,51.5501,0.003841
50.708,51.5501,0.003841
50.724,51.5501,0.003841
50.753,51.5501,0.003841
50.769,51.5501,0.003841
50.784,51.5501,0.003841
50.800,51.5501,0.003841
50.816,51.5501,0.003841
50.832,51.5501,0.003841
50.848,51.5501,0.003841
50.864,51.5501,0.003841
50.880,51.5501,0.003841
50.896,51.5501,0.003841
50.912,51.5501,0.003681
50.929,51.5501,0.003681
50.949,51.5501,0.003681
50.973,51.5501,0.003681
50.991,51.5501,0.003681
51.008,51.5501,0.003681
51.024,51.5501,0.003681
51.040,51.5501,0.003681
51.056,51.5501,0.003681
51.072,51.5501,0.003681
51.088,51.5501,0.003681
51.104,51.5501,0.003681
51.120,51.5501,0.003681
51.136,51.5501,0.003681
51.152,51.5501,0.003681
51.168,51.5501,0.003473
51.183,51.5501,0.003473
51.199,51.5501,0.003473
51.216,51.5501,0.003473
51.232,51.5501,0.003473
51.249,51.5500,0.003473
51.278,51.5492,0.003473
51.309,51.5479,0.003473
51.324,51.5469,0.003473
51.340,51.5456,0.003473
51.356,51.5443,0.003473
51.375,51.5424,0.003473
51.402,51.5391,0.003473
51.420,51.5367,0.003436
51.436,51.5342,0.003436
51.452,51.5317,0.003436
51.468,51.5290,0.003436
51.484,51.5262,0.003436
51.500,51.5228,0.003436
51.516,51.5196,0.003436
51.531,51.5160,0.003436
51.548,51.5124,0.003436
51.564,51.5084,0.003436
51.579,51.5043,0.003436
51.595,51.5000,0.003436
51.612,51.4954,0.003436
51.628,51.4906,0.003436
51.643,51.4858,0.003436
51.659,51.4809,0.008444
51.676,51.4753,0.008444
51.692,51.4697,0.008444
51.708,51.4643,0.008444
51.724,51.4584,0.008444
51.740,51.4524,0.008444
51.756,51.4460,0.008444
51.772,51.4398,0.008444
51.787,51.4333,0.008444
51.804,51.4261,0.008444
51.819,51.4194,0.008444
51.848,51.4065,0.008444
51.863,51.3990,0.008444
51.879,51.3911,0.008444
51.895,51.3834,0.008444
51.912,51.3750,0.008444
51.927,51.3669,0.008444
51.943,51.3584,0.014628
51.960,51.3491,0.014628
51.979,51.3388,0.014628
52.004,51.3246,0.014628
52.024,51.3127,0.014628
52.040,51.3028,0.014628
52.066,51.2869,0.014628
52.097,51.2665,0.014628
52.128,51.2464,0.014628
52.159,51.2243,0.014628
52.174,51.2139,0.014628
52.190,51.2026,0.014628
52.205,51.1914,0.010571
52.221,51.1789,0.010571
52.252,51.1559,0.010571
52.283,51.1314,0.010571
52.314,51.1067,0.010571
52.330,51.0937,0.010571
52.346,51.0797,0.010571
52.376,51.0544,0.010571
52.406,51.0285,0.010571
52.421,51.0139,0.010571
52.438,50.9999,0.004923
52.453,50.9852,0.004923
52.470,50.9694,0.004923
52.487,50.9538,0.004923
52.516,50.9264,0.004923
52.534,50.9083,0.004923
52.549,50.8930,0.004923
52.566,50.8768,0.004923
52.581,50.8604,0.004923
52.598,50.8439,0.004923
52.613,50.8277,0.004923
52.630,50.8105,0.004923
52.646,50.7936,0.004923
52.662,50.7763,0.004923
52.677,50.7592,0.004923
52.694,50.7411,0.004509
52.709,50.7240,0.004509
52.726,50.7052,0.004509
52.742,50.6874,0.004509
52.757,50.6695,0.004509
52.773,50.6503,0.004509
52.790,50.6313,0.004509
52.805,50.6132,0.004509
52.821,50.5940,0.004509
52.838,50.5740,0.004509
52.853,50.5547,0.004509
52.869,50.5351,0.004509
52.885,50.5150,0.004509
52.901,50.4952,0.004509
52.926,50.4636,0.004490
52.942,50.4432,0.004490
52.957,50.4233,0.004490
52.974,50.4019,0.004490
52.989,50.3813,0.004490
53.005,50.3593,0.004490
53.021,50.3383,0.004490
53.038,50.3158,0.004490
53.053,50.2945,0.004490
53.069,50.2724,0.004490
53.086,50.2482,0.004490
53.101,50.2274,0.004490
53.117,50.2049,0.004490
53.133,50.1820,0.004490
53.149,50.1586,0.004490
53.167,50.1315,0.004490
53.196,50.0890,0.004575
53.213,50.0637,0.004575
53.229,50.0395,0.004575
53.245,50.0158,0.004575
53.262,49.9894,0.004575
53.283,49.9574,0.004575
53.305,49.9237,0.004575
53.325,49.8914,0.004575
53.343,49.8640,0.004575
53.358,49.8391,0.004575
53.383,49.7970,0.004575
53.405,49.7620,0.004575
53.421,49.7363,0.004575
53.437,49.7098,0.004575
53.460,49.6704,0.004725
53.476,49.6422,0.004725
53.492,49.6150,0.004725
53.508,49.5892,0.004725
53.526,49.5565,0.004725
53.551,49.5138,0.004725
53.572,49.4774,0.004725
53.588,49.4489,0.004725
53.604,49.4189,0.004725
53.620,49.3916,0.004725
53.636,49.3624,0.004725
53.654,49.3292,0.004725
53.675,49.2905,0.004725
53.692,49.2601,0.004904
53.722,49.2022,0.004904
53.752,49.1453,0.004904
53.769,49.1139,0.004904
53.784,49.0835,0.004904
53.815,49.0241,0.004904
53.831,48.9924,0.004904
53.847,48.9609,0.004904
53.877,48.9011,0.004904
53.896,48.8641,0.004904
53.924,48.8060,0.005234
53.940,48.7730,0.005234
53.956,48.7416,0.005234
53.972,48.7085,0.005234
53.988,48.6756,0.005234
54.016,48.6161,0.005234
54.032,48.5811,0.005234
54.048,48.5471,0.005234
54.064,48.5146,0.005234
54.081,48.4783,0.005234
54.096,48.4457,0.005234
54.114,48.4068,0.005234
54.138,48.3582,0.005234
54.153,48.3244,0.005234
54.176,48.2803,0.005544
54.192,48.2464,0.005544
54.208,48.2149,0.005544
54.224,48.1819,0.005544
54.240,48.1506,0.005544
54.256,48.1182,0.005544
54.272,48.0853,0.005544
54.288,48.0547,0.005544
54.304,48.0240,0.005544
54.320,47.9920,0.005544
54.336,47.9602,0.005544
54.352,47.9310,0.005544
54.368,47.8998,0.005544
54.384,47.8699,0.005544
54.400,47.8396,0.005544
54.415,47.8087,0.005742
54.432,47.7790,0.005742
54.449,47.7470,0.005742
54.478,47.6942,0.005742
54.496,47.6621,0.005742
54.512,47.6333,0.005742
54.528,47.6049,0.005742
54.544,47.5763,0.005742
54.571,47.5280,0.005742
54.587,47.5002,0.005742
54.602,47.4729,0.005742
54.619,47.4440,0.005742
54.637,47.4129,0.005742
54.665,47.3663,0.006090
54.683,47.3373,0.006090
54.699,47.3106,0.006090
54.714,47.2844,0.006090
54.730,47.2584,0.006090
54.746,47.2326,0.006090
54.763,47.2058,0.006090
54.779,47.1804,0.006090
54.794,47.1556,0.006090
54.810,47.1305,0.006090
54.827,47.1047,0.006090
54.842,47.0807,0.006090
54.859,47.0554,0.006090
54.875,47.0307,0.006090
54.891,47.0058,0.006090
54.907,46.9818,0.006090
54.922,46.9596,0.006457
54.938,46.9356,0.006457
54.955,46.9114,0.006457
54.970,46.8893,0.006457
54.986,46.8659,0.006457
55.002,46.8429,0.006457
55.019,46.8192,0.006457
55.034,46.7978,0.006457
55.050,46.7756,0.006457
55.067,46.7520,0.006457
55.083,46.7298,0.006457
55.106,46.6993,0.006457
55.132,46.6637,0.006457
55.153,46.6363,0.006457
55.169,46.6164,0.006457
55.184,46.5962,0.006759
55.200,46.5754,0.006759
55.217,46.5547,0.006759
55.232,46.5352,0.006759
55.248,46.5149,0.006759
55.265,46.4940,0.006759
55.281,46.4753,0.006759
55.296,46.4567,0.006759
55.312,46.4372,0.006759
55.328,46.4184,0.006759
55.344,46.3998,0.006759
55.360,46.3812,0.006759
55.376,46.3621,0.006759
55.392,46.3448,0.006759
55.408,46.3261,0.006759
55.424,46.3090,0.007050
55.440,46.2916,0.007050
55.464,46.2651,0.007050
55.486,46.2415,0.007050
55.504,46.2230,0.007050
55.521,46.2051,0.007050
55.549,46.1762,0.007050
55.568,46.1576,0.007050
55.584,46.1414,0.007050
55.600,46.1256,0.007050
55.616,46.1108,0.007050
55.641,46.0865,0.007050
55.657,46.0719,0.007050
55.673,46.0566,0.007342
55.689,46.0425,0.007342
55.706,46.0268,0.007342
55.735,46.0012,0.007342
55.759,45.9808,0.007342
55.783,45.9607,0.007342
55.801,45.9455,0.007342
55.817,45.9328,0.007342
55.833,45.9197,0.007342
55.849,45.9074,0.007342
55.865,45.8946,0.007342
55.881,45.8826,0.007342
55.901,45.8661,0.007342
55.923,45.8511,0.007342
55.953,45.8294,0.007615
55.984,45.8077,0.007615
56.014,45.7875,0.007615
56.030,45.7771,0.007615
56.061,45.7578,0.007615
56.077,45.7479,0.007615
56.093,45.7381,0.007615
56.124,45.7199,0.007615
56.155,45.7020,0.007615
56.186,45.6855,0.007851
56.203,45.6767,0.007851
56.232,45.6616,0.007851
56.248,45.6540,0.007851
56.265,45.6460,0.007851
56.281,45.6386,0.007851
56.296,45.6318,0.007851
56.312,45.6246,0.007851
56.329,45.6176,0.007851
56.344,45.6111,0.007851
56.360,45.6048,0.007851
56.376,45.5985,0.007851
56.393,45.5920,0.007851
56.417,45.5835,0.007851
56.432,45.5781,0.008067
56.463,45.5678,0.008067
56.493,45.5585,0.008067
56.509,45.5537,0.008067
56.525,45.5495,0.008067
56.541,45.5451,0.008067
56.557,45.5412,0.008067
56.592,45.5328,0.008067
56.618,45.5274,0.008067
56.649,45.5213,0.008067
56.665,45.5187,0.008227
56.680,45.5162,0.008227
56.704,45.5126,0.008227
56.726,45.5097,0.008227
56.744,45.5077,0.008227
56.760,45.5061,0.008227
56.776,45.5046,0.008227
56.792,45.5035,0.008227
56.808,45.5023,0.008227
56.824,45.5016,0.008227
56.841,45.5009,0.008227
56.856,45.5005,0.008227
56.872,45.5002,0.008227
56.891,45.5001,0.008227
56.911,45.5001,0.008227
56.926,45.5001,0.008265
56.957,45.5001,0.008265
56.972,45.5001,0.008265
57.004,45.5001,0.008265
57.033,45.5005,0.008265
57.064,45.5015,0.008265
57.080,45.5022,0.008265
57.096,45.5033,0.008265
57.112,45.5044,0.008265
57.128,45.5059,0.008265
57.144,45.5075,0.008265
57.160,45.5092,0.008331
57.176,45.5113,0.008331
57.193,45.5135,0.008331
57.219,45.5176,0.008331
57.240,45.5211,0.008331
57.256,45.5240,0.008331
57.272,45.5271,0.008331
57.288,45.5305,0.008331
57.304,45.5341,0.008331
57.320,45.5377,0.008331
57.336,45.5415,0.008331
57.351,45.5457,0.008331
57.368,45.5502,0.008331
57.384,45.5546,0.008331
57.399,45.5591,0.008331
57.416,45.5642,0.008293
57.432,45.5692,0.008293
57.448,45.5744,0.008293
57.464,45.5800,0.008293
57.480,45.5857,0.008293
57.496,45.5918,0.008293
57.512,45.5977,0.008293
57.528,45.6038,0.008293
57.544,45.6105,0.008293
57.560,45.6171,0.008293
57.576,45.6236,0.008293
57.592,45.6312,0.008293
57.613,45.6404,0.008293
57.636,45.6510,0.008293
57.656,45.6607,0.008293
57.672,45.6687,0.008293
57.688,45.6770,0.008293
57.704,45.6850,0.008142
57.720,45.6937,0.008142
57.737,45.7033,0.008142
57.759,45.7158,0.008142
57.775,45.7246,0.008142
57.796,45.7372,0.008142
57.812,45.7470,0.008142
57.828,45.7567,0.008142
57.844,45.7666,0.008142
57.860,45.7772,0.008142
57.876,45.7876,0.008142
57.891,45.7978,0.008142
57.908,45.8090,0.008142
57.924,45.8200,0.008142
57.939,45.8310,0.008048
57.956,45.8427,0.008048
57.972,45.8541,0.008048
57.987,45.8659,0.008048
58.003,45.8780,0.008048
58.020,45.8903,0.008048
58.036,45.9026,0.008048
58.052,45.9151,0.008048
58.068,45.9281,0.008048
58.084,45.9413,0.008048
58.105,45.9599,0.008048
58.131,45.9806,0.008048
58.148,45.9948,0.008048
58.165,46.0093,0.008048
58.194,46.0355,0.007898
58.212,46.0518,0.007898
58.228,46.0666,0.007898
58.243,46.0813,0.007898
58.260,46.0965,0.007898
58.276,46.1125,0.007898
58.296,46.1314,0.007898
58.320,46.1556,0.007898
58.337,46.1719,0.007898
58.365,46.2011,0.007898
58.383,46.2198,0.007898
58.399,46.2366,0.007898
58.416,46.2542,0.007898
58.431,46.2708,0.007898
58.448,46.2885,0.007625
58.464,46.3060,0.007625
58.479,46.3235,0.007625
58.496,46.3421,0.007625
58.511,46.3592,0.007625
58.528,46.3789,0.007625
58.544,46.3969,0.007625
58.559,46.4152,0.007625
58.575,46.4339,0.007625
58.592,46.4536,0.007625
58.608,46.4727,0.007625
58.624,46.4924,0.007625
58.639,46.5116,0.007625
58.655,46.5315,0.007625
58.671,46.5521,0.007625
58.687,46.5725,0.007305
58.704,46.5929,0.007305
58.721,46.6150,0.007305
58.751,46.6541,0.007305
58.768,46.6765,0.007305
58.784,46.6985,0.007305
58.799,46.7191,0.007305
58.816,46.7415,0.007305
58.844,46.7818,0.007305
58.861,46.8057,0.007305
58.890,46.8460,0.007305
58.907,46.8706,0.007305
58.923,46.8938,0.007305
58.940,46.9173,0.006966
58.955,46.9401,0.006966
58.971,46.9643,0.006966
58.987,46.9886,0.006966
59.003,47.0122,0.006966
59.019,47.0368,0.006966
59.036,47.0623,0.006966
59.052,47.0860,0.006966
59.067,47.1101,0.006966
59.083,47.1354,0.006966
59.101,47.1635,0.006966
59.116,47.1871,0.006966
59.131,47.2119,0.006966
59.148,47.2395,0.006966
59.170,47.2748,0.006966
59.200,47.3237,0.006966
59.228,47.3719,0.006693
59.244,47.3977,0.006693
59.259,47.4250,0.006693
59.276,47.4522,0.006693
59.294,47.4849,0.006693
59.321,47.5314,0.006693
59.339,47.5632,0.006693
59.355,47.5911,0.006693
59.371,47.6199,0.006693
59.387,47.6488,0.006693
59.403,47.6777,0.006693
59.419,47.7065,0.006476
59.435,47.7360,0.006476
59.452,47.7664,0.006476
59.467,47.7949,0.006476
59.483,47.8268,0.006476
59.500,47.8574,0.006476
59.515,47.8857,0.006476
59.531,47.9163,0.006476
59.547,47.9465,0.006476
59.563,47.9781,0.006476
59.579,48.0092,0.006476
59.595,48.0395,0.006476
59.612,48.0737,0.006476
59.635,48.1186,0.006476
59.663,48.1767,0.006128
59.679,48.2067,0.006128
59.694,48.2385,0.006128
59.710,48.2707,0.006128
59.726,48.3044,0.006128
59.756,48.3665,0.006128
59.787,48.4310,0.006128
59.804,48.4665,0.006128
59.834,48.5288,0.006128
59.851,48.5665,0.006128
59.867,48.5996,0.006128
59.883,48.6331,0.006128
59.899,48.6663,0.006128
59.924,48.7199,0.005733
59.941,48.7524,0.005733
59.956,48.7841,0.005733
59.972,48.8153,0.005733
59.988,48.8475,0.005733
60.004,48.8806,0.005733
60.021,48.9134,0.005733
60.036,48.9424,0.005733
60.052,48.9751,0.005733
60.068,49.0062,0.005733
60.084,49.0373,0.005733
60.100,49.0678,0.005733
60.117,49.1000,0.005733
60.132,49.1289,0.005733
60.148,49.1578,0.005733
60.165,49.1901,0.005733
60.181,49.2192,0.005733
60.196,49.2477,0.005469
60.212,49.2770,0.005469
60.228,49.3070,0.005469
60.244,49.3358,0.005469
60.260,49.3642,0.005469
60.276,49.3937,0.005469
60.292,49.4214,0.005469
60.308,49.4496,0.005469
60.324,49.4779,0.005469
60.340,49.5063,0.005469
60.356,49.5345,0.005469
60.372,49.5614,0.005469
60.388,49.5893,0.005469
60.404,49.6158,0.005469
60.421,49.6443,0.005469
60.436,49.6698,0.005469
60.452,49.6957,0.005469
60.477,49.7379,0.005224
60.494,49.7650,0.005224
60.510,49.7902,0.005224
60.526,49.8170,0.005224
60.549,49.8527,0.005224
60.571,49.8874,0.005224
60.590,49.9163,0.005224
60.606,49.9420,0.005224
60.622,49.9656,0.005224
60.639,49.9915,0.005224
60.654,50.0142,0.005224
60.670,50.0382,0.005224
60.686,50.0616,0.005224
60.701,50.0848,0.004970
60.718,50.1082,0.004970
60.734,50.1320,0.004970
60.751,50.1557,0.004970
60.772,50.1855,0.004970
60.802,50.2287,0.004970
60.817,50.2495,0.004970
60.833,50.2707,0.004970
60.849,50.2927,0.004970
60.864,50.3133,0.004970
60.880,50.3350,0.004970
60.896,50.3545,0.004970
60.911,50.3752,0.004970
60.927,50.3961,0.004970
60.957,50.4345,0.004725
60.975,50.4578,0.004725
61.003,50.4925,0.004725
61.034,50.5304,0.004725
61.051,50.5497,0.004725
61.066,50.5686,0.004725
61.083,50.5875,0.004725
61.098,50.6070,0.004725
61.114,50.6246,0.004725
61.131,50.6436,0.004725
61.147,50.6617,0.004725
61.162,50.6793,0.004725
61.178,50.6969,0.004725
61.195,50.7152,0.004481
61.210,50.7317,0.004481
61.227,50.7494,0.004481
61.243,50.7666,0.004481
61.258,50.7825,0.004481
61.274,50.7991,0.004481
61.291,50.8165,0.004481
61.306,50.8319,0.004481
61.323,50.8480,0.004481
61.339,50.8637,0.004481
61.354,50.8791,0.004481
61.371,50.8955,0.004481
61.386,50.9098,0.004481
61.402,50.9246,0.004481
61.419,50.9399,0.004481
61.435,50.9548,0.004302
61.450,50.9689,0.004302
61.473,50.9896,0.004302
61.497,51.0101,0.004302
61.514,51.0244,0.004302
61.530,51.0379,0.004302
61.547,51.0519,0.004302
61.574,51.0736,0.004302
61.595,51.0902,0.004302
61.612,51.1040,0.004302
61.627,51.1153,0.004302
61.642,51.1268,0.004302
61.660,51.1403,0.004302
61.682,51.1559,0.004302
61.698,51.1675,0.004123
61.730,51.1897,0.004123
61.760,51.2099,0.004123
61.791,51.2307,0.004123
61.807,51.2404,0.004123
61.823,51.2502,0.004123
61.839,51.2599,0.004123
61.870,51.2784,0.004123
61.901,51.2960,0.004123
61.916,51.3045,0.004123
61.932,51.3128,0.003935
61.963,51.3291,0.003935
61.986,51.3412,0.003935
62.010,51.3519,0.003935
62.028,51.3606,0.003935
62.056,51.3732,0.003935
62.074,51.3809,0.003935
62.095,51.3900,0.003935
62.121,51.3998,0.003935
62.147,51.4101,0.003935
62.168,51.4173,0.003935
62.183,51.4228,0.003935
62.199,51.4281,0.003445
62.215,51.4334,0.003445
62.233,51.4388,0.003445
62.255,51.4453,0.003445
62.286,51.4539,0.003445
62.316,51.4615,0.003445
62.347,51.4687,0.003445
62.378,51.4749,0.003445
62.409,51.4808,0.003445
62.425,51.4834,0.003445
62.441,51.4858,0.002127
62.457,51.4880,0.002127
62.487,51.4919,0.002127
62.503,51.4935,0.002127
62.519,51.4950,0.002127
62.535,51.4964,0.002127
62.551,51.4974,0.002127
62.567,51.4984,0.002127
62.587,51.4992,0.002127
62.611,51.4999,0.002127
62.631,51.5001,0.002127
62.656,51.5001,0.002127
62.673,51.5001,0.002127
62.689,51.5001,0.000894
62.705,51.5001,0.000894
62.736,51.5001,0.000894
62.752,51.5001,0.000894
62.768,51.5001,0.000894
62.786,51.5001,0.000894
62.813,51.5001,0.000894
62.832,51.5001,0.000894
62.854,51.5001,0.000894
62.878,51.5001,0.000894
62.896,51.5001,0.000894
62.912,51.5001,0.000894
62.928,51.5001,0.000894
62.944,51.5001,0.001412
62.960,51.5001,0.001412
62.976,51.5001,0.001412
62.992,51.5001,0.001412
63.008,51.5001,0.001412
63.024,51.5001,0.001412
63.040,51.5001,0.001412
63.056,51.5001,0.001412
63.072,51.5001,0.001412
63.088,51.5001,0.001412
63.104,51.5001,0.001412
63.120,51.5001,0.001412
63.136,51.5001,0.001412
63.153,51.5001,0.001412
63.182,51.5001,0.001412
63.212,51.5001,0.002711
63.228,51.5001,0.002711
63.244,51.5001,0.002711
63.260,51.5001,0.002711
63.283,51.5001,0.002711
63.308,51.5001,0.002711
63.324,51.5001,0.002711
63.340,51.5001,0.002711
63.357,51.5001,0.002711
63.383,51.5001,0.002711
63.404,51.5001,0.002711
63.420,51.5001,0.002711
63.437,51.5001,0.003295
63.452,51.5001,0.003295
63.468,51.5001,0.003295
63.484,51.5001,0.003295
63.500,51.5001,0.003295
63.516,51.5001,0.003295
63.532,51.5001,0.003295
63.548,51.5001,0.003295
63.564,51.5001,0.003295
63.580,51.5001,0.003295
63.596,51.5001,0.003295
63.612,51.5001,0.003295
63.628,51.5001,0.003295
63.643,51.5001,0.003295
63.660,51.5001,0.003295
63.676,51.5001,0.003577
63.692,51.5001,0.003577
63.708,51.5001,0.003577
63.724,51.5001,0.003577
63.740,51.5001,0.003577
63.768,51.5001,0.003577
63.785,51.5001,0.003577
63.815,51.5001,0.003577
63.832,51.5001,0.003577
63.848,51.5001,0.003577
63.863,51.5001,0.003577
63.880,51.5001,0.003577
63.896,51.5001,0.003577
63.911,51.5001,0.003577
63.928,51.5001,0.003699
63.944,51.5001,0.003699
63.960,51.5001,0.003699
63.976,51.5001,0.003699
63.991,51.5001,0.003699
64.008,51.5001,0.003699
64.024,51.5001,0.003699
64.039,51.5001,0.003699
64.055,51.5001,0.003699
64.073,51.5001,0.003699
64.088,51.5001,0.003699
64.104,51.5001,0.003699
64.120,51.5001,0.003699
64.136,51.5001,0.003699
64.151,51.5001,0.003699
64.168,51.5001,0.003681
64.184,51.5001,0.003681
64.200,51.5001,0.003681
64.217,51.5001,0.003681
64.232,51.5001,0.003681
64.248,51.5001,0.003681
64.264,51.5001,0.003681
64.280,51.5001,0.003681
64.295,51.5001,0.003681
64.322,51.5001,0.003681
64.338,51.5001,0.003681
64.355,51.5001,0.003681
64.371,51.5001,0.003681
64.387,51.5001,0.003681
64.403,51.5001,0.003681
64.433,51.5001,0.003746
64.450,51.5001,0.003746
64.467,51.5001,0.003746
64.482,51.5001,0.003746
64.498,51.5001,0.003746
64.515,51.5001,0.003746
64.531,51.5001,0.003746
64.546,51.5001,0.003746
64.562,51.5001,0.003746
64.578,51.5001,0.003746
64.594,51.5001,0.003746
64.611,51.5001,0.003746
64.626,51.5001,0.003746
64.643,51.5001,0.003746
64.658,51.5001,0.003746
64.674,51.5001,0.003822
64.691,51.5001,0.003822
64.706,51.5001,0.003822
64.722,51.5001,0.003822
64.738,51.5001,0.003822
64.755,51.5001,0.003822
64.771,51.5001,0.003822
64.787,51.5001,0.003822
64.802,51.5001,0.003822
64.818,51.5001,0.003822
64.843,51.5001,0.003822
64.860,51.5001,0.003822
64.876,51.5001,0.003822
64.892,51.5001,0.003822
64.907,51.5001,0.003812
64.923,51.5001,0.003812
64.939,51.5001,0.003812
64.956,51.5001,0.003812
64.971,51.5001,0.003812
64.987,51.5001,0.003812
65.004,51.5001,0.003812
65.020,51.5001,0.003812
65.035,51.5001,0.003812
65.051,51.5001,0.003812
65.067,51.5001,0.003812
65.083,51.5001,0.003812
65.100,51.5001,0.003812
65.116,51.5001,0.003812
65.131,51.5001,0.003812
65.147,51.5001,0.003812
65.163,51.5001,0.003869
65.179,51.5001,0.003869
65.196,51.5001,0.003869
65.212,51.5001,0.003869
65.227,51.5001,0.003869
65.243,51.5001,0.003869
65.261,51.5001,0.003869
65.286,51.5001,0.003869
65.307,51.5001,0.003869
65.323,51.5001,0.003869
65.340,51.5001,0.003869
65.356,51.5001,0.003869
65.381,51.5001,0.003869
65.397,51.5001,0.003869
65.413,51.5001,0.003935
65.430,51.5001,0.003935
65.446,51.5001,0.003935
65.461,51.5001,0.003935
65.477,51.5001,0.003935
65.493,51.5001,0.003935
65.509,51.5001,0.003935
65.526,51.5001,0.003935
65.541,51.5001,0.003935
65.557,51.5001,0.003935
65.574,51.5001,0.003935
65.593,51.5001,0.003935
65.624,51.5001,0.003935
65.639,51.5001,0.003935
65.670,51.5001,0.003888
65.689,51.5001,0.003888
65.706,51.5001,0.003888
65.732,51.5001,0.003888
65.749,51.5001,0.003888
65.765,51.5001,0.003888
65.781,51.5001,0.003888
65.797,51.5001,0.003888
65.813,51.5001,0.003888
65.829,51.5001,0.003888
65.845,51.5001,0.003888
65.861,51.5001,0.003888
65.877,51.5001,0.003888
65.895,51.5001,0.003888
65.917,51.5001,0.003888
65.938,51.5001,0.003906
65.954,51.5001,0.003906
65.970,51.5001,0.003906
65.986,51.5001,0.003906
66.002,51.5001,0.003906
66.018,51.5001,0.003906
66.034,51.5001,0.003906
66.050,51.5001,0.003906
66.066,51.5001,0.003906
66.082,51.5001,0.003906
66.098,51.5001,0.003906
66.114,51.5001,0.003906
66.130,51.5001,0.003906
66.146,51.5001,0.003906
66.162,51.5001,0.003888
66.178,51.5001,0.003888
66.194,51.5001,0.003888
66.210,51.5001,0.003888
66.226,51.5001,0.003888
66.242,51.5001,0.003888
66.258,51.5001,0.003888
66.274,51.5001,0.003888
66.290,51.5001,0.003888
66.306,51.5001,0.003888
66.322,51.5001,0.003888
66.338,51.5001,0.003888
66.354,51.5001,0.003888
66.370,51.5001,0.003888
66.386,51.5001,0.003888
66.402,51.5001,0.003888
66.418,51.5001,0.003888
66.434,51.5001,0.003888
66.450,51.5001,0.003888
66.473,51.5001,0.003756
66.489,51.5001,0.003756
66.505,51.5001,0.003756
66.521,51.5001,0.003756
66.538,51.5001,0.003756
66.553,51.5001,0.003756
66.569,51.5001,0.003756
66.585,51.5001,0.003756
66.601,51.5001,0.003756
66.617,51.5001,0.003756
66.633,51.5001,0.003756
66.649,51.5001,0.003756
66.667,51.5001,0.003756
66.689,51.5001,0.003756
66.720,51.5001,0.003596
66.736,51.5001,0.003596
66.767,51.5001,0.003596
66.783,51.5001,0.003596
66.798,51.5001,0.003596
66.829,51.5001,0.003596
66.844,51.5001,0.003596
66.875,51.5001,0.003596
66.905,51.5000,0.003596
66.921,51.4997,0.003596
66.936,51.4992,0.003539
66.953,51.4986,0.003539
66.970,51.4976,0.003539
66.985,51.4966,0.003539
67.000,51.4954,0.003539
67.029,51.4927,0.003539
67.053,51.4899,0.003539
67.076,51.4868,0.003539
67.092,51.4846,0.003539
67.108,51.4821,0.003539
67.123,51.4794,0.003539
67.140,51.4764,0.003539
67.157,51.4730,0.003539
67.177,51.4687,0.003539
67.198,51.4639,0.004434
67.220,51.4587,0.004434
67.235,51.4547,0.004434
67.251,51.4505,0.004434
67.268,51.4460,0.004434
67.284,51.4411,0.004434
67.299,51.4365,0.004434
67.316,51.4314,0.004434
67.332,51.4262,0.004434
67.347,51.4207,0.004434
67.363,51.4150,0.004434
67.379,51.4093,0.004434
67.397,51.4025,0.004434
67.413,51.3962,0.004434
67.443,51.3843,0.010995
67.460,51.3766,0.010995
67.476,51.3698,0.010995
67.506,51.3560,0.010995
67.526,51.3461,0.010995
67.553,51.3332,0.010995
67.583,51.3180,0.010995
67.599,51.3096,0.010995
67.614,51.3013,0.010995
67.631,51.2924,0.010995
67.646,51.2832,0.010995
67.662,51.2736,0.010995
67.678,51.2646,0.014581
67.695,51.2540,0.014581
67.711,51.2444,0.014581
67.726,51.2351,0.014581
67.742,51.2248,0.014581
67.758,51.2144,0.014581
67.779,51.2007,0.014581
67.801,51.1855,0.014581
67.823,51.1703,0.014581
67.840,51.1579,0.014581
67.864,51.1408,0.014581
67.879,51.1290,0.014581
67.910,51.1060,0.014581
67.926,51.0937,0.014581
67.942,51.0800,0.008604
67.974,51.0551,0.008604
68.004,51.0291,0.008604
68.035,51.0032,0.008604
68.066,50.9756,0.008604
68.097,50.9481,0.008604
68.129,50.9173,0.008604
68.159,50.8899,0.004603
68.190,50.8594,0.004603
68.207,50.8433,0.004603
68.222,50.8278,0.004603
68.238,50.8117,0.004603
68.255,50.7944,0.004603
68.271,50.7777,0.004603
68.286,50.7618,0.004603
68.302,50.7448,0.004603
68.318,50.7270,0.004603
68.334,50.7102,0.004603
68.351,50.6921,0.004603
68.366,50.6747,0.004603
68.385,50.6539,0.004603
68.408,50.6275,0.004603
68.423,50.6089,0.004481
68.457,50.5696,0.004481
68.479,50.5434,0.004481
68.494,50.5257,0.004481
68.511,50.5042,0.004481
68.531,50.4798,0.004481
68.562,50.4413,0.004481
68.578,50.4209,0.004481
68.609,50.3803,0.004481
68.631,50.3528,0.004481
68.647,50.3309,0.004481
68.672,50.2982,0.004518
68.702,50.2565,0.004518
68.718,50.2337,0.004518
68.748,50.1908,0.004518
68.779,50.1484,0.004518
68.809,50.1039,0.004518
68.825,50.0807,0.004518
68.841,50.0587,0.004518
68.872,50.0107,0.004518
68.888,49.9872,0.004518
68.919,49.9403,0.004678
68.943,49.9026,0.004678
68.965,49.8696,0.004678
68.982,49.8423,0.004678
68.999,49.8130,0.004678
69.027,49.7700,0.004678
69.046,49.7394,0.004678
69.066,49.7059,0.004678
69.090,49.6679,0.004678
69.110,49.6332,0.004678
69.126,49.6060,0.004678
69.145,49.5739,0.004678
69.169,49.5342,0.004678
69.184,49.5072,0.004678
69.205,49.4707,0.004933
69.221,49.4429,0.004933
69.237,49.4139,0.004933
69.253,49.3859,0.004933
69.270,49.3553,0.004933
69.285,49.3273,0.004933
69.301,49.2993,0.004933
69.317,49.2700,0.004933
69.332,49.2409,0.004933
69.350,49.2092,0.004933
69.370,49.1718,0.004933
69.386,49.1393,0.004933
69.416,49.0836,0.005187
69.432,49.0539,0.005187
69.462,48.9947,0.005187
69.478,48.9636,0.005187
69.509,48.9027,0.005187
69.531,48.8593,0.005187
69.555,48.8113,0.005187
69.573,48.7736,0.005187
69.589,48.7411,0.005187
69.605,48.7085,0.005187
69.621,48.6771,0.005187
69.638,48.6420,0.005187
69.653,48.6092,0.005187
69.669,48.5753,0.005403
69.685,48.5412,0.005403
69.702,48.5066,0.005403
69.717,48.4738,0.005403
69.733,48.4380,0.005403
69.756,48.3912,0.005403
69.773,48.3561,0.005403
69.788,48.3249,0.005403
69.804,48.2914,0.005403
69.820,48.2573,0.005403
69.836,48.2256,0.005403
69.852,48.1919,0.005403
69.868,48.1607,0.005403
69.884,48.1266,0.005403
69.900,48.0958,0.005403
69.916,48.0643,0.005620
69.932,48.0322,0.005620
69.948,47.9998,0.005620
69.964,47.9697,0.005620
69.980,47.9375,0.005620
69.996,47.9065,0.005620
70.012,47.8766,0.005620
70.028,47.8460,0.005620
70.044,47.8151,0.005620
70.060,47.7852,0.005620
70.075,47.7552,0.005620
70.092,47.7247,0.005620
70.108,47.6961,0.005620
70.128,47.6586,0.005620
70.154,47.6106,0.005620
70.171,47.5796,0.005902
70.188,47.5488,0.005902
70.204,47.5218,0.005902
70.220,47.4934,0.005902
70.236,47.4664,0.005902
70.253,47.4352,0.005902
70.278,47.3917,0.005902
70.300,47.3555,0.005902
70.316,47.3282,0.005902
70.332,47.3008,0.005902
70.347,47.2756,0.005902
70.364,47.2488,0.005902
70.381,47.2211,0.005902
70.396,47.1964,0.005902
70.412,47.1707,0.006279
70.428,47.1448,0.006279
70.444,47.1186,0.006279
70.459,47.0942,0.006279
70.475,47.0691,0.006279
70.492,47.0438,0.006279
70.507,47.0190,0.006279
70.524,46.9942,0.006279
70.539,46.9704,0.006279
70.555,46.9462,0.006279
70.572,46.9212,0.006279
70.588,46.8977,0.006279
70.604,46.8733,0.006279
70.620,46.8497,0.006279
70.635,46.8281,0.006279
70.651,46.8051,0.006279
70.668,46.7821,0.006580
70.683,46.7594,0.006580
70.700,46.7371,0.006580
70.715,46.7153,0.006580
70.732,46.6921,0.006580
70.748,46.6699,0.006580
70.764,46.6482,0.006580
70.780,46.6271,0.006580
70.799,46.6008,0.006580
70.818,46.5766,0.006580
70.848,46.5378,0.006580
70.864,46.5182,0.006580
70.880,46.4971,0.006580
70.911,46.4588,0.006580
70.927,46.4395,0.006872
70.957,46.4025,0.006872
70.988,46.3658,0.006872
71.003,46.3478,0.006872
71.021,46.3282,0.006872
71.036,46.3100,0.006872
71.065,46.2770,0.006872
71.084,46.2569,0.006872
71.100,46.2392,0.006872
71.116,46.2218,0.006872
71.131,46.2052,0.006872
71.151,46.1836,0.006872
71.173,46.1608,0.006872
71.188,46.1455,0.006872
71.204,46.1292,0.007173
71.235,46.0974,0.007173
71.251,46.0830,0.007173
71.281,46.0533,0.007173
71.312,46.0245,0.007173
71.343,45.9956,0.007173
71.373,45.9685,0.007173
71.389,45.9545,0.007173
71.404,45.9415,0.007173
71.420,45.9277,0.007455
71.435,45.9146,0.007455
71.454,45.8985,0.007455
71.482,45.8765,0.007455
71.499,45.8629,0.007455
71.516,45.8497,0.007455
71.544,45.8278,0.007455
71.563,45.8138,0.007455
71.579,45.8020,0.007455
71.596,45.7902,0.007455
71.612,45.7787,0.007455
71.627,45.7681,0.007455
71.645,45.7558,0.007455
71.668,45.7403,0.007455
71.684,45.7302,0.007747
71.699,45.7200,0.007747
71.731,45.7003,0.007747
71.746,45.6907,0.007747
71.777,45.6720,0.007747
71.793,45.6634,0.007747
71.808,45.6549,0.007747
71.824,45.6461,0.007747
71.855,45.6296,0.007747
71.871,45.6213,0.007747
71.888,45.6125,0.007747
71.913,45.6003,0.007747
71.934,45.5905,0.007747
71.965,45.5769,0.007964
71.995,45.5639,0.007964
72.026,45.5512,0.007964
72.041,45.5456,0.007964
72.057,45.5398,0.007964
72.088,45.5286,0.007964
72.104,45.5232,0.007964
72.120,45.5181,0.007964
72.136,45.5131,0.007964
72.152,45.5082,0.007964
72.168,45.5033,0.008124
72.184,45.4991,0.008124
72.202,45.4942,0.008124
72.228,45.4877,0.008124
72.248,45.4832,0.008124
72.265,45.4795,0.008124
72.290,45.4744,0.008124
72.321,45.4687,0.008124
72.351,45.4641,0.008124
72.366,45.4620,0.008124
72.382,45.4599,0.008124
72.413,45.4566,0.008124
72.443,45.4538,0.008208
72.474,45.4520,0.008208
72.505,45.4507,0.008208
72.535,45.4501,0.008208
72.552,45.4501,0.008208
72.568,45.4501,0.008208
72.584,45.4501,0.008208
72.600,45.4501,0.008208
72.617,45.4501,0.008208
72.632,45.4501,0.008208
72.648,45.4501,0.008208
72.664,45.4501,0.008293
72.680,45.4501,0.008293
72.696,45.4501,0.008293
72.712,45.4504,0.008293
72.728,45.4509,0.008293
72.745,45.4515,0.008293
72.767,45.4529,0.008293
72.799,45.4552,0.008293
72.815,45.4567,0.008293
72.845,45.4600,0.008293
72.876,45.4641,0.008293
72.892,45.4666,0.008293
72.924,45.4723,0.008321
72.953,45.4778,0.008321
72.985,45.4846,0.008321
73.016,45.4920,0.008321
73.032,45.4961,0.008321
73.048,45.5005,0.008321
73.063,45.5048,0.008321
73.080,45.5094,0.008321
73.096,45.5144,0.008321
73.114,45.5203,0.008321
73.140,45.5288,0.008321
73.160,45.5359,0.008321
73.176,45.5420,0.008321
73.191,45.5477,0.008321
73.208,45.5543,0.008227
73.224,45.5605,0.008227
73.240,45.5673,0.008227
73.256,45.5743,0.008227
73.271,45.5808,0.008227
73.287,45.5882,0.008227
73.304,45.5959,0.008227
73.320,45.6034,0.008227
73.336,45.6112,0.008227
73.351,45.6190,0.008227
73.368,45.6275,0.008227
73.383,45.6355,0.008227
73.399,45.6441,0.008227
73.416,45.6530,0.008227
73.432,45.6620,0.008227
73.447,45.6710,0.008171
73.463,45.6803,0.008171
73.479,45.6899,0.008171
73.496,45.6999,0.008171
73.511,45.7096,0.008171
73.538,45.7262,0.008171
73.555,45.7376,0.008171
73.572,45.7491,0.008171
73.588,45.7604,0.008171
73.619,45.7811,0.008171
73.634,45.7919,0.008171
73.650,45.8035,0.008171
73.666,45.8159,0.008171
73.682,45.8273,0.008171
73.697,45.8391,0.008058
73.713,45.8515,0.008058
73.734,45.8690,0.008058
73.759,45.8882,0.008058
73.777,45.9028,0.008058
73.793,45.9161,0.008058
73.809,45.9298,0.008058
73.825,45.9435,0.008058
73.841,45.9575,0.008058
73.858,45.9725,0.008058
73.873,45.9859,0.008058
73.890,46.0013,0.008058
73.905,46.0152,0.008058
73.921,46.0299,0.008058
73.937,46.0451,0.007879
73.953,46.0602,0.007879
73.970,46.0769,0.007879
73.993,46.0991,0.007879
74.020,46.1263,0.007879
74.050,46.1573,0.007879
74.066,46.1732,0.007879
74.093,46.2031,0.007879
74.110,46.2198,0.007879
74.126,46.2371,0.007879
74.141,46.2542,0.007879
74.159,46.2741,0.007879
74.188,46.3068,0.007625
74.205,46.3268,0.007625
74.221,46.3458,0.007625
74.238,46.3638,0.007625
74.253,46.3825,0.007625
74.269,46.4016,0.007625
74.285,46.4215,0.007625
74.301,46.4405,0.007625
74.317,46.4602,0.007625
74.333,46.4798,0.007625
74.351,46.5031,0.007625
74.368,46.5250,0.007625
74.389,46.5505,0.007625
74.420,46.5910,0.007625
74.451,46.6318,0.007276
74.468,46.6546,0.007276
74.497,46.6959,0.007276
74.528,46.7374,0.007276
74.558,46.7806,0.007276
74.574,46.8032,0.007276
74.589,46.8246,0.007276
74.605,46.8477,0.007276
74.621,46.8706,0.007276
74.649,46.9125,0.007276
74.665,46.9363,0.007276
74.681,46.9599,0.006919
74.697,46.9847,0.006919
74.715,47.0115,0.006919
74.744,47.0571,0.006919
74.761,47.0839,0.006919
74.778,47.1104,0.006919
74.793,47.1349,0.006919
74.809,47.1598,0.006919
74.825,47.1855,0.006919
74.845,47.2176,0.006919
74.867,47.2562,0.006919
74.889,47.2906,0.006919
74.906,47.3188,0.006919
74.921,47.3445,0.006919
74.937,47.3716,0.006608
74.953,47.3999,0.006608
74.969,47.4284,0.006608
74.985,47.4545,0.006608
75.001,47.4826,0.006608
75.017,47.5124,0.006608
75.036,47.5456,0.006608
75.052,47.5748,0.006608
75.083,47.6292,0.006608
75.099,47.6580,0.006608
75.130,47.7164,0.006608
75.145,47.7437,0.006608
75.161,47.7733,0.006608
75.177,47.8033,0.006608
75.206,47.8593,0.006297
75.222,47.8898,0.006297
75.238,47.9198,0.006297
75.254,47.9513,0.006297
75.270,47.9823,0.006297
75.286,48.0147,0.006297
75.302,48.0452,0.006297
75.318,48.0783,0.006297
75.339,48.1210,0.006297
75.362,48.1677,0.006297
75.382,48.2059,0.006297
75.398,48.2387,0.006297
75.414,48.2729,0.006297
75.430,48.3063,0.005959
75.446,48.3378,0.005959
75.462,48.3726,0.005959
75.478,48.4049,0.005959
75.494,48.4386,0.005959
75.510,48.4733,0.005959
75.526,48.5076,0.005959
75.542,48.5402,0.005959
75.558,48.5743,0.005959
75.574,48.6083,0.005959
75.590,48.6408,0.005959
75.606,48.6730,0.005959
75.622,48.7057,0.005959
75.639,48.7408,0.005959
75.654,48.7715,0.005959
75.670,48.8042,0.005648
75.686,48.8346,0.005648
75.702,48.8687,0.005648
75.718,48.8985,0.005648
75.734,48.9296,0.005648
75.763,48.9859,0.005648
75.779,49.0177,0.005648
75.795,49.0479,0.005648
75.811,49.0783,0.005648
75.828,49.1110,0.005648
75.857,49.1667,0.005648
75.875,49.1979,0.005648
75.891,49.2268,0.005648
75.907,49.2559,0.005648
75.922,49.2847,0.005460
75.938,49.3136,0.005460
75.955,49.3433,0.005460
75.971,49.3720,0.005460
75.987,49.3999,0.005460
76.003,49.4273,0.005460
76.018,49.4552,0.005460
76.035,49.4830,0.005460
76.050,49.5103,0.005460
76.067,49.5378,0.005460
76.084,49.5681,0.005460
76.104,49.6011,0.005460
76.134,49.6512,0.005460
76.150,49.6782,0.005460
76.181,49.7283,0.005196
76.212,49.7772,0.005196
76.243,49.8258,0.005196
76.262,49.8578,0.005196
76.284,49.8907,0.005196
76.300,49.9153,0.005196
76.316,49.9393,0.005196
76.333,49.9641,0.005196
76.348,49.9875,0.005196
76.364,50.0111,0.005196
76.381,50.0351,0.005196
76.397,50.0586,0.005196
76.412,50.0819,0.004838
76.428,50.1040,0.004838
76.453,50.1386,0.004838
76.475,50.1696,0.004838
76.493,50.1948,0.004838
76.509,50.2168,0.004838
76.525,50.2380,0.004838
76.541,50.2600,0.004838
76.556,50.2803,0.004838
76.572,50.3015,0.004838
76.589,50.3237,0.004838
76.604,50.3432,0.004838
76.620,50.3639,0.004838
76.637,50.3855,0.004838
76.653,50.4059,0.004838
76.668,50.4243,0.004650
76.685,50.4462,0.004650
76.701,50.4646,0.004650
76.716,50.4835,0.004650
76.732,50.5028,0.004650
76.749,50.5233,0.004650
76.765,50.5417,0.004650
76.780,50.5594,0.004650
76.797,50.5782,0.004650
76.813,50.5966,0.004650
76.829,50.6151,0.004650
76.848,50.6365,0.004650
76.863,50.6530,0.004650
76.879,50.6710,0.004650
76.894,50.6873,0.004650
76.910,50.7039,0.004434
76.925,50.7198,0.004434
76.956,50.7526,0.004434
76.972,50.7681,0.004434
76.988,50.7854,0.004434
77.005,50.8011,0.004434
77.021,50.8167,0.004434
77.037,50.8330,0.004434
77.052,50.8470,0.004434
77.071,50.8652,0.004434
77.095,50.8874,0.004434
77.116,50.9067,0.004434
77.133,50.9213,0.004434
77.148,50.9352,0.004434
77.164,50.9492,0.004245
77.180,50.9635,0.004245
77.197,50.9774,0.004245
77.213,50.9905,0.004245
77.228,51.0034,0.004245
77.244,51.0164,0.004245
77.267,51.0353,0.004245
77.297,51.0591,0.004245
77.314,51.0710,0.004245
77.337,51.0886,0.004245
77.353,51.1006,0.004245
77.369,51.1118,0.004245
77.385,51.1237,0.004245
77.401,51.1344,0.004245
77.417,51.1455,0.004085
77.433,51.1561,0.004085
77.449,51.1666,0.004085
77.465,51.1772,0.004085
77.481,51.1874,0.004085
77.497,51.1971,0.004085
77.513,51.2069,0.004085
77.529,51.2170,0.004085
77.545,51.2260,0.004085
77.570,51.2402,0.004085
77.585,51.2488,0.004085
77.608,51.2611,0.004085
77.625,51.2703,0.004085
77.641,51.2784,0.004085
77.657,51.2865,0.003812
77.673,51.2945,0.003812
77.690,51.3024,0.003812
77.705,51.3095,0.003812
77.721,51.3172,0.003812
77.737,51.3239,0.003812
77.753,51.3309,0.003812
77.769,51.3374,0.003812
77.785,51.3441,0.003812
77.802,51.3508,0.003812
77.817,51.3565,0.003812
77.833,51.3626,0.003812
77.849,51.3685,0.003812
77.872,51.3761,0.003812
77.889,51.3815,0.003812
77.919,51.3908,0.003144
77.936,51.3961,0.003144
77.952,51.4004,0.003144
77.968,51.4045,0.003144
77.984,51.4087,0.003144
78.005,51.4138,0.003144
78.027,51.4189,0.003144
78.048,51.4231,0.003144
78.064,51.4263,0.003144
78.080,51.4293,0.003144
78.096,51.4320,0.003144
78.112,51.4345,0.003144
78.129,51.4370,0.003144
78.144,51.4391,0.003144
78.160,51.4410,0.001694
78.176,51.4428,0.001694
78.192,51.4443,0.001694
78.208,51.4457,0.001694
78.224,51.4469,0.001694
78.240,51.4479,0.001694
78.256,51.4488,0.001694
78.272,51.4493,0.001694
78.288,51.4498,0.001694
78.304,51.4500,0.001694
78.320,51.4500,0.001694
78.336,51.4500,0.001694
78.352,51.4500,0.001694
78.368,51.4500,0.001694
78.383,51.4500,0.001694
78.410,51.4500,0.001694
78.426,51.4500,0.001694
78.445,51.4500,0.001694
78.474,51.4500,0.000941
78.490,51.4500,0.000941
78.521,51.4500,0.000941
78.538,51.4500,0.000941
78.568,51.4500,0.000941
78.585,51.4500,0.000941
78.601,51.4500,0.000941
78.617,51.4500,0.000941
78.632,51.4500,0.000941
78.648,51.4500,0.000941
78.665,51.4500,0.000941
78.680,51.4500,0.000941
78.697,51.4500,0.001854
78.712,51.4500,0.001854
78.729,51.4500,0.001854
78.744,51.4500,0.001854
78.760,51.4500,0.001854
78.776,51.4500,0.001854
78.793,51.4500,0.001854
78.814,51.4500,0.001854
78.845,51.4500,0.001854
78.876,51.4500,0.001854
78.908,51.4500,0.001854
78.923,51.4500,0.001854
78.954,51.4500,0.001854
78.971,51.4500,0.002880
79.001,51.4500,0.002880
79.016,51.4500,0.002880
79.034,51.4500,0.002880
79.064,51.4500,0.002880
79.080,51.4500,0.002880
79.096,51.4500,0.002880
79.113,51.4500,0.002880
79.128,51.4500,0.002880
79.144,51.4500,0.002880
79.161,51.4500,0.002880
79.176,51.4500,0.002880
79.193,51.4500,0.003304
79.209,51.4500,0.003304
79.229,51.4500,0.003304
79.250,51.4500,0.003304
79.281,51.4500,0.003304
79.311,51.4500,0.003304
79.342,51.4500,0.003304
79.373,51.4500,0.003304
79.404,51.4500,0.003304
79.420,51.4500,0.003304
79.451,51.4500,0.003539
79.481,51.4500,0.003539
79.497,51.4500,0.003539
79.513,51.4500,0.003539
79.529,51.4500,0.003539
79.558,51.4500,0.003539
79.578,51.4500,0.003539
79.605,51.4500,0.003539
79.625,51.4500,0.003539
79.641,51.4500,0.003539
79.656,51.4500,0.003539
79.673,51.4500,0.003690
79.688,51.4500,0.003690
79.705,51.4500,0.003690
79.721,51.4500,0.003690
79.737,51.4500,0.003690
79.752,51.4500,0.003690
79.775,51.4500,0.003690
79.791,51.4500,0.003690
79.807,51.4500,0.003690
79.838,51.4500,0.003690
79.854,51.4500,0.003690
79.884,51.4500,0.003690
79.916,51.4500,0.003756
79.931,51.4500,0.003756
79.962,51.4500,0.003756
79.977,51.4500,0.003756
80.005,51.4500,0.003756
80.022,51.4500,0.003756
80.038,51.4500,0.003756
80.053,51.4500,0.003756
80.069,51.4500,0.003756
80.086,51.4500,0.003756
80.102,51.4500,0.003756
80.118,51.4500,0.003756
80.137,51.4500,0.003756
80.156,51.4500,0.003756
80.179,51.4500,0.003765
80.197,51.4500,0.003765
80.213,51.4500,0.003765
80.229,51.4500,0.003765
80.245,51.4500,0.003765
80.261,51.4500,0.003765
80.277,51.4500,0.003765
80.296,51.4500,0.003765
80.321,51.4500,0.003765
80.342,51.4500,0.003765
80.366,51.4500,0.003765
80.397,51.4500,0.003765
80.413,51.4500,0.003765
80.443,51.4500,0.003803
80.459,51.4500,0.003803
80.474,51.4500,0.003803
80.505,51.4500,0.003803
80.538,51.4500,0.003803
80.568,51.4500,0.003803
80.583,51.4500,0.003803
80.614,51.4500,0.003803
80.631,51.4500,0.003803
80.660,51.4500,0.003850
80.677,51.4500,0.003850
80.694,51.4500,0.003850
80.710,51.4500,0.003850
80.737,51.4500,0.003850
80.757,51.4500,0.003850
80.773,51.4500,0.003850
80.789,51.4500,0.003850
80.805,51.4500,0.003850
80.821,51.4500,0.003850
80.837,51.4500,0.003850
80.853,51.4500,0.003850
80.870,51.4500,0.003850
80.886,51.4500,0.003850
80.903,51.4500,0.003850
80.923,51.4500,0.003850
80.954,51.4500,0.003906
80.986,51.4500,0.003906
81.001,51.4500,0.003906
81.017,51.4500,0.003906
81.048,51.4500,0.003906
81.079,51.4500,0.003906
81.096,51.4500,0.003906
81.126,51.4500,0.003906
81.156,51.4500,0.003906
81.173,51.4500,0.003906
81.189,51.4500,0.003906
81.205,51.4500,0.003906
81.221,51.4500,0.003906
81.237,51.4500,0.003906
81.253,51.4500,0.003906
81.269,51.4500,0.003906
81.285,51.4500,0.003906
81.301,51.4500,0.003906
81.317,51.4500,0.003906
81.333,51.4500,0.003906
81.349,51.4500,0.003906
81.365,51.4500,0.003906
81.381,51.4500,0.003906
81.397,51.4500,0.003906
81.413,51.4500,0.003888
81.429,51.4500,0.003888
81.445,51.4500,0.003888
81.461,51.4500,0.003888
81.478,51.4500,0.003888
81.493,51.4500,0.003888
81.509,51.4500,0.003888
81.525,51.4500,0.003888
81.541,51.4500,0.003888
81.558,51.4500,0.003888
81.574,51.4500,0.003888
81.589,51.4500,0.003888
81.606,51.4500,0.003888
81.633,51.4500,0.003888
81.653,51.4500,0.003888
81.669,51.4500,0.003888
81.686,51.4500,0.003888
81.710,51.4500,0.003935
81.726,51.4500,0.003935
81.756,51.4500,0.003935
81.786,51.4500,0.003935
81.818,51.4500,0.003935
81.833,51.4500,0.003935
81.849,51.4500,0.003935
81.880,51.4500,0.003935
81.911,51.4500,0.003935
81.941,51.4500,0.003991
81.957,51.4500,0.003991
81.974,51.4500,0.003991
82.003,51.4500,0.003991
82.021,51.4500,0.003991
82.037,51.4500,0.003991
82.053,51.4500,0.003991
82.068,51.4500,0.003991
82.085,51.4500,0.003991
82.101,51.4500,0.003991
82.116,51.4500,0.003991
82.133,51.4500,0.003991
82.159,51.4500,0.003991
82.175,51.4500,0.003991
82.206,51.4500,0.003822
82.223,51.4500,0.003822
82.251,51.4500,0.003822
82.269,51.4500,0.003822
82.286,51.4500,0.003822
82.301,51.4500,0.003822
82.317,51.4500,0.003822
82.333,51.4500,0.003822
82.353,51.4500,0.003822
82.376,51.4500,0.003822
82.406,51.4500,0.003822
82.437,51.4500,0.003822
82.467,51.4500,0.003539
82.482,51.4500,0.003539
82.498,51.4500,0.003539
82.514,51.4500,0.003539
82.544,51.4500,0.003539
82.573,51.4500,0.003539
82.591,51.4499,0.003539
82.621,51.4491,0.003539
82.637,51.4484,0.003539
82.659,51.4470,0.003539
82.682,51.4454,0.003539
82.699,51.4439,0.003539
82.714,51.4424,0.003398
82.731,51.4405,0.003398
82.746,51.4386,0.003398
82.762,51.4364,0.003398
82.778,51.4338,0.003398
82.794,51.4314,0.003398
82.811,51.4284,0.003398
82.826,51.4256,0.003398
82.845,51.4219,0.003398
82.868,51.4169,0.003398
82.898,51.4096,0.003398
82.929,51.4016,0.003398
82.961,51.3928,0.005883
82.977,51.3879,0.005883
83.007,51.3781,0.005883
83.039,51.3675,0.005883
83.055,51.3618,0.005883
83.085,51.3503,0.005883
83.116,51.3380,0.005883
83.147,51.3245,0.005883
83.178,51.3112,0.005883
83.208,51.2972,0.012802
83.224,51.2894,0.012802
83.239,51.2816,0.012802
83.256,51.2731,0.012802
83.274,51.2635,0.012802
83.303,51.2480,0.012802
83.319,51.2388,0.012802
83.337,51.2290,0.012802
83.364,51.2129,0.012802
83.383,51.2012,0.012802
83.399,51.1910,0.012802
83.415,51.1808,0.012802
83.431,51.1705,0.013273
83.447,51.1603,0.013273
83.463,51.1495,0.013273
83.479,51.1387,0.013273
83.495,51.1278,0.013273
83.511,51.1161,0.013273
83.528,51.1045,0.013273
83.543,51.0933,0.013273
83.559,51.0814,0.013273
83.575,51.0691,0.013273
83.591,51.0570,0.013273
83.607,51.0448,0.013273
83.623,51.0319,0.013273
83.639,51.0188,0.013273
83.655,51.0058,0.013273
83.671,50.9931,0.006938
83.687,50.9795,0.006938
83.706,50.9635,0.006938
83.733,50.9400,0.006938
83.765,50.9115,0.006938
83.781,50.8966,0.006938
83.797,50.8822,0.006938
83.813,50.8671,0.006938
83.829,50.8512,0.006938
83.845,50.8370,0.006938
83.862,50.8205,0.006938
83.887,50.7949,0.006938
83.911,50.7709,0.006938
83.935,50.7472,0.006938
83.965,50.7158,0.004490
83.996,50.6830,0.004490
84.026,50.6497,0.004490
84.057,50.6156,0.004490
84.088,50.5802,0.004490
84.119,50.5441,0.004490
84.150,50.5071,0.004490
84.181,50.4691,0.004481
84.202,50.4449,0.004481
84.228,50.4128,0.004481
84.245,50.3910,0.004481
84.262,50.3688,0.004481
84.289,50.3343,0.004481
84.309,50.3082,0.004481
84.326,50.2860,0.004481
84.352,50.2517,0.004481
84.373,50.2228,0.004481
84.389,50.2003,0.004481
84.405,50.1789,0.004481
84.421,50.1562,0.004509
84.437,50.1335,0.004509
84.453,50.1113,0.004509
84.469,50.0887,0.004509
84.485,50.0653,0.004509
84.501,50.0421,0.004509
84.517,50.0185,0.004509
84.532,49.9956,0.004509
84.550,49.9698,0.004509
84.565,49.9472,0.004509
84.581,49.9234,0.004509
84.597,49.8990,0.004509
84.613,49.8727,0.004509
84.630,49.8466,0.004509
84.661,49.7979,0.004660
84.677,49.7723,0.004660
84.692,49.7484,0.004660
84.709,49.7210,0.004660
84.728,49.6886,0.004660
84.754,49.6471,0.004660
84.773,49.6171,0.004660
84.789,49.5902,0.004660
84.804,49.5637,0.004660
84.821,49.5361,0.004660
84.848,49.4902,0.004660
84.876,49.4398,0.004660
84.894,49.4088,0.004660
84.911,49.3801,0.004660
84.927,49.3512,0.004660
84.942,49.3235,0.004857
84.958,49.2949,0.004857
84.975,49.2636,0.004857
84.991,49.2363,0.004857
85.006,49.2073,0.004857
85.023,49.1769,0.004857
85.039,49.1468,0.004857
85.055,49.1168,0.004857
85.070,49.0880,0.004857
85.087,49.0566,0.004857
85.102,49.0257,0.004857
85.118,48.9961,0.004857
85.135,48.9646,0.004857
85.151,48.9334,0.004857
85.166,48.9026,0.004857
85.182,48.8716,0.005140
85.199,48.8379,0.005140
85.215,48.8056,0.005140
85.231,48.7744,0.005140
85.247,48.7422,0.005140
85.263,48.7087,0.005140
85.280,48.6741,0.005140
85.310,48.6127,0.005140
85.326,48.5790,0.005140
85.342,48.5443,0.005140
85.359,48.5113,0.005140
85.374,48.4779,0.005140
85.401,48.4204,0.005140
85.417,48.3851,0.005140
85.433,48.3529,0.005441
85.449,48.3190,0.005441
85.466,48.2839,0.005441
85.482,48.2513,0.005441
85.498,48.2167,0.005441
85.513,48.1860,0.005441
85.531,48.1490,0.005441
85.556,48.0984,0.005441
85.577,48.0561,0.005441
85.594,48.0235,0.005441
85.609,47.9920,0.005441
85.625,47.9611,0.005441
85.641,47.9294,0.005441
85.658,47.8971,0.005441
85.674,47.8667,0.005441
85.689,47.8355,0.005667
85.705,47.8051,0.005667
85.721,47.7746,0.005667
85.737,47.7452,0.005667
85.753,47.7143,0.005667
85.769,47.6845,0.005667
85.785,47.6550,0.005667
85.801,47.6262,0.005667
85.817,47.5956,0.005667
85.833,47.5676,0.005667
85.849,47.5391,0.005667
85.866,47.5090,0.005667
85.881,47.4816,0.005667
85.898,47.4511,0.005667
85.920,47.4130,0.005667
85.936,47.3846,0.005667
85.952,47.3572,0.005987
85.969,47.3288,0.005987
85.984,47.3027,0.005987
86.000,47.2757,0.005987
86.016,47.2482,0.005987
86.033,47.2214,0.005987
86.049,47.1948,0.005987
86.064,47.1690,0.005987
86.080,47.1429,0.005987
86.096,47.1174,0.005987
86.112,47.0921,0.005987
86.128,47.0664,0.005987
86.144,47.0406,0.005987
86.160,47.0157,0.005987
86.177,46.9896,0.006420
86.192,46.9657,0.006420
86.208,46.9419,0.006420
86.225,46.9162,0.006420
86.240,46.8924,0.006420
86.256,46.8694,0.006420
86.280,46.8324,0.006420
86.303,46.7991,0.006420
86.320,46.7747,0.006420
86.337,46.7508,0.006420
86.365,46.7119,0.006420
86.384,46.6848,0.006420
86.400,46.6620,0.006420
86.416,46.6404,0.006420
86.432,46.6183,0.006420
86.457,46.5847,0.006712
86.480,46.5549,0.006712
86.504,46.5229,0.006712
86.520,46.5010,0.006712
86.536,46.4814,0.006712
86.552,46.4598,0.006712
86.568,46.4411,0.006712
86.584,46.4200,0.006712
86.600,46.4010,0.006712
86.616,46.3812,0.006712
86.632,46.3622,0.006712
86.648,46.3421,0.006712
86.665,46.3232,0.006712
86.680,46.3050,0.006938
86.697,46.2849,0.006938
86.712,46.2673,0.006938
86.729,46.2491,0.006938
86.744,46.2317,0.006938
86.760,46.2141,0.006938
86.787,46.1846,0.006938
86.814,46.1547,0.006938
86.829,46.1390,0.006938
86.861,46.1057,0.006938
86.876,46.0888,0.006938
86.892,46.0731,0.006938
86.911,46.0541,0.006938
86.939,46.0268,0.006938
86.970,45.9974,0.007305
87.000,45.9690,0.007305
87.017,45.9538,0.007305
87.032,45.9400,0.007305
87.048,45.9256,0.007305
87.064,45.9117,0.007305
87.081,45.8967,0.007305
87.096,45.8836,0.007305
87.116,45.8666,0.007305
87.139,45.8479,0.007305
87.169,45.8223,0.007606
87.192,45.8048,0.007606
87.210,45.7912,0.007606
87.232,45.7738,0.007606
87.263,45.7511,0.007606
87.279,45.7400,0.007606
87.309,45.7185,0.007606
87.341,45.6964,0.007606
87.371,45.6766,0.007606
87.403,45.6566,0.007606
87.433,45.6381,0.007879
87.448,45.6292,0.007879
87.465,45.6197,0.007879
87.494,45.6029,0.007879
87.512,45.5930,0.007879
87.528,45.5848,0.007879
87.544,45.5759,0.007879
87.560,45.5683,0.007879
87.580,45.5574,0.007879
87.605,45.5461,0.007879
87.624,45.5374,0.007879
87.640,45.5300,0.007879
87.656,45.5233,0.007879
87.672,45.5162,0.008124
87.688,45.5099,0.008124
87.704,45.5032,0.008124
87.720,45.4973,0.008124
87.736,45.4912,0.008124
87.751,45.4853,0.008124
87.768,45.4796,0.008124
87.784,45.4742,0.008124
87.800,45.4689,0.008124
87.816,45.4638,0.008124
87.832,45.4591,0.008124
87.848,45.4543,0.008124
87.864,45.4498,0.008124
87.880,45.4455,0.008124
87.895,45.4414,0.008124
87.912,45.4375,0.008218
87.928,45.4338,0.008218
87.944,45.4303,0.008218
87.959,45.4269,0.008218
87.975,45.4237,0.008218
87.992,45.4209,0.008218
88.010,45.4178,0.008218
88.034,45.4140,0.008218
88.050,45.4118,0.008218
88.065,45.4098,0.008218
88.082,45.4078,0.008218
88.098,45.4062,0.008218
88.114,45.4049,0.008218
88.130,45.4036,0.008218
88.146,45.4025,0.008218
88.161,45.4016,0.008255
88.178,45.4009,0.008255
88.201,45.4003,0.008255
88.226,45.4000,0.008255
88.242,45.4000,0.008255
88.257,45.4000,0.008255
88.274,45.4000,0.008255
88.289,45.4000,0.008255
88.306,45.4000,0.008255
88.322,45.4000,0.008255
88.337,45.4000,0.008255
88.353,45.4000,0.008255
88.369,45.4001,0.008255
88.386,45.4004,0.008255
88.401,45.4008,0.008255
88.418,45.4014,0.008331
88.433,45.4023,0.008331
88.450,45.4034,0.008331
88.471,45.4050,0.008331
88.502,45.4081,0.008331
88.518,45.4099,0.008331
88.533,45.4118,0.008331
88.565,45.4164,0.008331
88.580,45.4190,0.008331
88.610,45.4243,0.008331
88.627,45.4279,0.008331
88.657,45.4340,0.008293
88.674,45.4380,0.008293
88.689,45.4418,0.008293
88.706,45.4460,0.008293
88.721,45.4502,0.008293
88.737,45.4547,0.008293
88.754,45.4596,0.008293
88.770,45.4645,0.008293
88.786,45.4696,0.008293
88.802,45.4752,0.008293
88.821,45.4816,0.008293
88.842,45.4894,0.008293
88.874,45.5012,0.008293
88.904,45.5135,0.008293
88.934,45.5262,0.008237
88.964,45.5400,0.008237
88.995,45.5543,0.008237
89.011,45.5619,0.008237
89.041,45.5776,0.008237
89.064,45.5890,0.008237
89.087,45.6018,0.008237
89.105,45.6121,0.008237
89.122,45.6213,0.008237
89.137,45.6305,0.008237
89.153,45.6400,0.008237
89.169,45.6497,0.008199
89.186,45.6603,0.008199
89.213,45.6771,0.008199
89.233,45.6907,0.008199
89.251,45.7033,0.008199
89.275,45.7186,0.008199
89.306,45.7408,0.008199
89.337,45.7633,0.008199
89.367,45.7862,0.008199
89.383,45.7986,0.008199
89.413,45.8221,0.008048
89.444,45.8475,0.008048
89.460,45.8601,0.008048
89.490,45.8863,0.008048
89.506,45.8992,0.008048
89.521,45.9131,0.008048
89.544,45.9338,0.008048
89.567,45.9542,0.008048
89.585,45.9708,0.008048
89.602,45.9867,0.008048
89.617,46.0009,0.008048
89.633,46.0168,0.008048
89.659,46.0422,0.008048
89.675,46.0575,0.008048
89.690,46.0725,0.007832
89.706,46.0888,0.007832
89.723,46.1068,0.007832
89.752,46.1371,0.007832
89.770,46.1556,0.007832
89.786,46.1728,0.007832
89.802,46.1902,0.007832
89.818,46.2085,0.007832
89.834,46.2260,0.007832
89.851,46.2447,0.007832
89.877,46.2743,0.007832
89.898,46.2987,0.007832
89.914,46.3179,0.007832
89.930,46.3363,0.007832
89.946,46.3554,0.007596
89.962,46.3750,0.007596
89.978,46.3948,0.007596
89.994,46.4148,0.007596
90.010,46.4341,0.007596
90.026,46.4542,0.007596
90.042,46.4754,0.007596
90.058,46.4950,0.007596
90.074,46.5156,0.007596
90.090,46.5366,0.007596
90.106,46.5578,0.007596
90.122,46.5795,0.007596
90.138,46.6008,0.007596
90.154,46.6220,0.007596
90.170,46.6442,0.007596
90.186,46.6665,0.007596
90.216,46.7088,0.007286
90.232,46.7304,0.007286
90.248,46.7532,0.007286
90.264,46.7762,0.007286
90.280,46.8002,0.007286
90.296,46.8233,0.007286
90.312,46.8461,0.007286
90.329,46.8718,0.007286
90.345,46.8954,0.007286
90.371,46.9364,0.007286
90.392,46.9671,0.007286
90.408,46.9917,0.007286
90.424,47.0169,0.007286
90.440,47.0417,0.006872
90.456,47.0674,0.006872
90.472,47.0933,0.006872
90.488,47.1187,0.006872
90.504,47.1443,0.006872
90.520,47.1710,0.006872
90.536,47.1977,0.006872
90.552,47.2237,0.006872
90.568,47.2502,0.006872
90.584,47.2767,0.006872
90.600,47.3045,0.006872
90.616,47.3317,0.006872
90.632,47.3598,0.006872
90.648,47.3882,0.006872
90.664,47.4155,0.006872
90.680,47.4422,0.006533
90.696,47.4708,0.006533
90.712,47.4996,0.006533
90.728,47.5279,0.006533
90.744,47.5570,0.006533
90.770,47.6033,0.006533
90.787,47.6339,0.006533
90.802,47.6622,0.006533
90.818,47.6918,0.006533
90.835,47.7231,0.006533
90.850,47.7529,0.006533
90.866,47.7818,0.006533
90.882,47.8124,0.006533
90.899,47.8450,0.006533
90.925,47.8961,0.006250
90.946,47.9369,0.006250
90.963,47.9705,0.006250
90.989,48.0226,0.006250
91.010,48.0629,0.006250
91.026,48.0969,0.006250
91.042,48.1285,0.006250
91.058,48.1602,0.006250
91.074,48.1940,0.006250
91.091,48.2286,0.006250
91.112,48.2718,0.006250
91.127,48.3053,0.006250
91.158,48.3690,0.006250
91.189,48.4364,0.005883
91.204,48.4671,0.005883
91.221,48.5021,0.005883
91.252,48.5687,0.005883
91.283,48.6319,0.005883
91.314,48.6938,0.005883
91.331,48.7279,0.005883
91.360,48.7869,0.005883
91.377,48.8213,0.005883
91.394,48.8551,0.005883
91.410,48.8846,0.005883
91.425,48.9153,0.005582
91.441,48.9458,0.005582
91.462,48.9857,0.005582
91.486,49.0323,0.005582
91.505,49.0678,0.005582
91.522,49.0983,0.005582
91.538,49.1282,0.005582
91.553,49.1571,0.005582
91.570,49.1870,0.005582
91.587,49.2186,0.005582
91.608,49.2576,0.005582
91.639,49.3116,0.005582
91.655,49.3404,0.005582
91.671,49.3685,0.005403
91.686,49.3946,0.005403
91.717,49.4489,0.005403
91.747,49.5002,0.005403
91.778,49.5532,0.005403
91.794,49.5785,0.005403
91.809,49.6038,0.005403
91.826,49.6319,0.005403
91.849,49.6688,0.005403
91.865,49.6943,0.005403
91.881,49.7199,0.005403
91.897,49.7451,0.005403
91.913,49.7707,0.005403
91.928,49.7948,0.005177
91.944,49.8195,0.005177
91.961,49.8460,0.005177
91.977,49.8688,0.005177
91.992,49.8929,0.005177
92.009,49.9176,0.005177
92.025,49.9425,0.005177
92.042,49.9668,0.005177
92.070,50.0082,0.005177
92.088,50.0348,0.005177
92.105,50.0577,0.005177
92.120,50.0800,0.005177
92.137,50.1044,0.005177
92.159,50.1340,0.005177
92.178,50.1619,0.005177
92.201,50.1915,0.004933
92.217,50.2127,0.004933
92.233,50.2345,0.004933
92.248,50.2545,0.004933
92.265,50.2761,0.004933
92.281,50.2970,0.004933
92.296,50.3171,0.004933
92.313,50.3378,0.004933
92.328,50.3580,0.004933
92.344,50.3778,0.004933
92.360,50.3973,0.004933
92.391,50.4346,0.004933
92.407,50.4545,0.004933
92.425,50.4752,0.004650
92.455,50.5119,0.004650
92.471,50.5289,0.004650
92.487,50.5474,0.004650
92.502,50.5651,0.004650
92.519,50.5842,0.004650
92.548,50.6162,0.004650
92.572,50.6410,0.004650
92.594,50.6656,0.004650
92.614,50.6864,0.004650
92.630,50.7023,0.004650
92.651,50.7241,0.004650
92.676,50.7493,0.004650
92.694,50.7671,0.004650
92.710,50.7834,0.004443
92.726,50.7983,0.004443
92.742,50.8125,0.004443
92.758,50.8275,0.004443
92.774,50.8425,0.004443
92.790,50.8575,0.004443
92.806,50.8713,0.004443
92.822,50.8855,0.004443
92.838,50.8997,0.004443
92.854,50.9134,0.004443
92.870,50.9271,0.004443
92.886,50.9404,0.004443
92.902,50.9537,0.004443
92.918,50.9668,0.004443
92.948,50.9909,0.004274
92.965,51.0039,0.004274
92.980,51.0159,0.004274
93.011,51.0394,0.004274
93.027,51.0507,0.004274
93.043,51.0622,0.004274
93.059,51.0735,0.004274
93.076,51.0854,0.004274
93.106,51.1058,0.004274
93.123,51.1169,0.004274
93.139,51.1275,0.004274
93.155,51.1378,0.004274
93.171,51.1476,0.004067
93.187,51.1574,0.004067
93.204,51.1674,0.004067
93.219,51.1764,0.004067
93.235,51.1858,0.004067
93.251,51.1946,0.004067
93.267,51.2037,0.004067
93.284,51.2126,0.004067
93.307,51.2248,0.004067
93.325,51.2336,0.004067
93.354,51.2483,0.004067
93.370,51.2554,0.004067
93.385,51.2626,0.004067
93.401,51.2699,0.004067
93.432,51.2831,0.003671
93.464,51.2961,0.003671
93.495,51.3080,0.003671
93.525,51.3188,0.003671
93.555,51.3293,0.003671
93.571,51.3342,0.003671
93.587,51.3391,0.003671
93.603,51.3440,0.003671
93.619,51.3487,0.003671
93.635,51.3528,0.003671
93.651,51.3570,0.003671
93.667,51.3610,0.002758
93.683,51.3648,0.002758
93.699,51.3685,0.002758
93.715,51.3717,0.002758
93.733,51.3753,0.002758
93.757,51.3799,0.002758
93.779,51.3835,0.002758
93.796,51.3861,0.002758
93.818,51.3892,0.002758
93.834,51.3911,0.002758
93.864,51.3943,0.002758
93.895,51.3968,0.002758
93.925,51.3985,0.002758
93.941,51.3992,0.002758
93.972,51.3999,0.001327
93.995,51.4000,0.001327
94.010,51.4000,0.001327
94.026,51.4000,0.001327
94.042,51.4000,0.001327
94.059,51.4000,0.001327
94.074,51.4000,0.001327
94.091,51.4000,0.001327
94.107,51.4000,0.001327
94.123,51.4000,0.001327
94.138,51.4000,0.001327
