Elapsed Time (s),Position (mm),Force (N)
-0.013,54.9501,0.002824
0.004,54.9501,0.002824
0.035,54.9501,0.002824
0.050,54.9501,0.002824
0.081,54.9501,0.002824
0.112,54.9501,0.002824
0.128,54.9501,0.002824
0.144,54.9501,0.002824
0.160,54.9501,0.002928
0.176,54.9501,0.002928
0.193,54.9501,0.002928
0.220,54.9501,0.002928
0.240,54.9501,0.002928
0.256,54.9501,0.002928
0.272,54.9501,0.002928
0.288,54.9501,0.002928
0.305,54.9501,0.002928
0.320,54.9501,0.002928
0.336,54.9501,0.002928
0.352,54.9501,0.002928
0.368,54.9501,0.002928
0.384,54.9501,0.002928
0.400,54.9501,0.002937
0.416,54.9501,0.002937
0.433,54.9501,0.002937
0.448,54.9501,0.002937
0.464,54.9501,0.002937
0.480,54.9501,0.002937
0.496,54.9501,0.002937
0.512,54.9501,0.002937
0.528,54.9501,0.002937
0.544,54.9501,0.002937
0.560,54.9501,0.002937
0.577,54.9501,0.002937
0.607,54.9501,0.002937
0.630,54.9501,0.002937
0.653,54.9501,0.002833
0.672,54.9501,0.002833
0.688,54.9501,0.002833
0.704,54.9501,0.002833
0.720,54.9501,0.002833
0.738,54.9501,0.002833
0.761,54.9501,0.002833
0.791,54.9501,0.002833
0.821,54.9501,0.002833
0.853,54.9501,0.002833
0.869,54.9501,0.002833
0.884,54.9501,0.002833
0.900,54.9501,0.002796
0.932,54.9501,0.002796
0.962,54.9501,0.002796
0.978,54.9501,0.002796
0.993,54.9501,0.002796
1.009,54.9501,0.002796
1.040,54.9501,0.002796
1.056,54.9501,0.002796
1.071,54.9501,0.002796
1.087,54.9501,0.002796
1.104,54.9501,0.002796
1.120,54.9501,0.002796
1.135,54.9501,0.002815
1.151,54.9501,0.002815
1.168,54.9501,0.002815
1.184,54.9501,0.002815
1.200,54.9501,0.002815
1.215,54.9501,0.002815
1.234,54.9501,0.002815
1.257,54.9501,0.002815
1.289,54.9501,0.002815
1.319,54.9501,0.002815
1.335,54.9501,0.002815
1.366,54.9501,0.002815
1.396,54.9501,0.002805
1.429,54.9501,0.002805
1.458,54.9501,0.002805
1.491,54.9501,0.002805
1.520,54.9501,0.002805
1.537,54.9501,0.002805
1.566,54.9501,0.002805
1.583,54.9501,0.002805
1.601,54.9501,0.002805
1.628,54.9501,0.002805
1.647,54.9501,0.002871
1.667,54.9501,0.002871
1.690,54.9501,0.002871
1.711,54.9501,0.002871
1.728,54.9501,0.002871
1.743,54.9501,0.002871
1.759,54.9501,0.002871
1.775,54.9501,0.002871
1.792,54.9501,0.002871
1.807,54.9501,0.002871
1.823,54.9501,0.002871
1.846,54.9501,0.002871
1.871,54.9501,0.002871
1.890,54.9501,0.002871
1.909,54.9501,0.002880
1.927,54.9501,0.002880
1.952,54.9501,0.002880
1.973,54.9501,0.002880
1.990,54.9501,0.002880
2.005,54.9501,0.002880
2.021,54.9501,0.002880
2.037,54.9501,0.002880
2.054,54.9501,0.002880
2.069,54.9501,0.002880
2.085,54.9501,0.002880
2.101,54.9501,0.002880
2.117,54.9501,0.002880
2.133,54.9501,0.002880
2.150,54.9501,0.002824
2.165,54.9501,0.002824
2.181,54.9501,0.002824
2.197,54.9501,0.002824
2.213,54.9501,0.002824
2.230,54.9501,0.002824
2.245,54.9501,0.002824
2.261,54.9501,0.002824
2.277,54.9501,0.002824
2.299,54.9501,0.002824
2.322,54.9501,0.002824
2.341,54.9501,0.002824
2.371,54.9501,0.002824
2.387,54.9501,0.002824
2.403,54.9501,0.002862
2.420,54.9501,0.002862
2.440,54.9501,0.002862
2.462,54.9501,0.002862
2.483,54.9501,0.002862
2.499,54.9501,0.002862
2.515,54.9501,0.002862
2.531,54.9501,0.002862
2.547,54.9501,0.002862
2.563,54.9501,0.002862
2.579,54.9501,0.002862
2.595,54.9501,0.002862
2.611,54.9501,0.002862
2.627,54.9501,0.002862
2.643,54.9501,0.002862
2.659,54.9501,0.002862
2.676,54.9501,0.002862
2.694,54.9501,0.002862
2.724,54.9501,0.002862
2.741,54.9501,0.002862
2.770,54.9501,0.002862
2.787,54.9501,0.002862
2.803,54.9501,0.002862
2.819,54.9501,0.002862
2.835,54.9501,0.002862
2.851,54.9501,0.002862
2.872,54.9501,0.002862
2.897,54.9501,0.002862
2.913,54.9501,0.002862
2.928,54.9501,0.002815
2.944,54.9501,0.002815
2.960,54.9501,0.002815
2.976,54.9501,0.002815
2.992,54.9501,0.002815
3.008,54.9501,0.002815
3.024,54.9501,0.002815
3.040,54.9501,0.002815
3.056,54.9501,0.002815
3.073,54.9501,0.002815
3.088,54.9501,0.002815
3.104,54.9501,0.002815
3.121,54.9501,0.002815
3.136,54.9501,0.002815
3.152,54.9501,0.002833
3.168,54.9501,0.002833
3.185,54.9501,0.002833
3.200,54.9501,0.002833
3.216,54.9501,0.002833
3.232,54.9501,0.002833
3.248,54.9501,0.002833
3.264,54.9501,0.002833
3.280,54.9501,0.002833
3.296,54.9501,0.002833
3.312,54.9501,0.002833
3.328,54.9501,0.002833
3.344,54.9501,0.002833
3.360,54.9501,0.002833
3.377,54.9501,0.002833
3.405,54.9501,0.002833
3.439,54.9501,0.002862
3.455,54.9501,0.002862
3.483,54.9501,0.002862
3.506,54.9501,0.002862
3.530,54.9501,0.002862
3.550,54.9501,0.002862
3.566,54.9501,0.002862
3.582,54.9501,0.002862
3.598,54.9501,0.002862
3.614,54.9501,0.002862
3.631,54.9501,0.002862
3.652,54.9501,0.002862
3.682,54.9501,0.002739
3.698,54.9501,0.002739
3.713,54.9501,0.002739
3.729,54.9501,0.002739
3.760,54.9501,0.002739
3.790,54.9501,0.002739
3.814,54.9501,0.002739
3.837,54.9501,0.002739
3.854,54.9501,0.002739
3.872,54.9501,0.002739
3.898,54.9501,0.002579
3.918,54.9501,0.002579
3.934,54.9501,0.002579
3.949,54.9501,0.002579
3.966,54.9501,0.002579
3.992,54.9501,0.002579
4.023,54.9501,0.002579
4.040,54.9501,0.002579
4.056,54.9501,0.002579
4.071,54.9501,0.002579
4.088,54.9501,0.002579
4.103,54.9501,0.002579
4.120,54.9499,0.002579
4.135,54.9496,0.002579
4.153,54.9491,0.002560
4.178,54.9477,0.002560
4.208,54.9457,0.002560
4.239,54.9429,0.002560
4.269,54.9393,0.002560
4.300,54.9348,0.002560
4.331,54.9299,0.002560
4.347,54.9270,0.002560
4.379,54.9207,0.002560
4.409,54.9140,0.003398
4.425,54.9100,0.003398
4.456,54.9020,0.003398
4.472,54.8980,0.003398
4.488,54.8931,0.003398
4.504,54.8883,0.003398
4.520,54.8833,0.003398
4.548,54.8740,0.003398
4.566,54.8681,0.003398
4.594,54.8578,0.003398
4.611,54.8510,0.003398
4.627,54.8450,0.003398
4.644,54.8382,0.007474
4.659,54.8318,0.007474
4.675,54.8248,0.007474
4.691,54.8177,0.007474
4.707,54.8105,0.007474
4.724,54.8030,0.007474
4.740,54.7952,0.007474
4.755,54.7876,0.007474
4.772,54.7793,0.007474
4.788,54.7712,0.007474
4.803,54.7625,0.007474
4.819,54.7544,0.007474
4.836,54.7454,0.007474
4.851,54.7366,0.007474
4.868,54.7271,0.007474
4.884,54.7175,0.007474
4.899,54.7085,0.009197
4.915,54.6987,0.009197
4.938,54.6847,0.009197
4.968,54.6651,0.009197
4.985,54.6538,0.009197
5.015,54.6331,0.009197
5.046,54.6119,0.009197
5.076,54.5895,0.009197
5.106,54.5667,0.009197
5.123,54.5544,0.009197
5.139,54.5422,0.005478
5.154,54.5299,0.005478
5.171,54.5164,0.005478
5.187,54.5033,0.005478
5.202,54.4904,0.005478
5.218,54.4769,0.005478
5.234,54.4634,0.005478
5.251,54.4493,0.005478
5.266,54.4357,0.005478
5.282,54.4215,0.005478
5.298,54.4068,0.005478
5.315,54.3920,0.005478
5.330,54.3775,0.005478
5.346,54.3627,0.005478
5.362,54.3472,0.005478
5.378,54.3319,0.005478
5.394,54.3168,0.003172
5.411,54.2999,0.003172
5.430,54.2801,0.003172
5.447,54.2639,0.003172
5.477,54.2322,0.003172
5.493,54.2147,0.003172
5.509,54.1985,0.003172
5.525,54.1824,0.003172
5.540,54.1651,0.003172
5.571,54.1306,0.003172
5.586,54.1145,0.003172
5.602,54.0963,0.003172
5.618,54.0774,0.003172
5.634,54.0596,0.003172
5.661,54.0281,0.003191
5.677,54.0092,0.003191
5.693,53.9896,0.003191
5.709,53.9695,0.003191
5.733,53.9406,0.003191
5.755,53.9137,0.003191
5.773,53.8908,0.003191
5.789,53.8708,0.003191
5.805,53.8491,0.003191
5.821,53.8295,0.003191
5.837,53.8086,0.003191
5.853,53.7876,0.003191
5.869,53.7654,0.003191
5.886,53.7437,0.003191
5.901,53.7227,0.003266
5.918,53.6992,0.003266
5.938,53.6705,0.003266
5.954,53.6491,0.003266
5.985,53.6053,0.003266
6.000,53.5828,0.003266
6.016,53.5606,0.003266
6.046,53.5169,0.003266
6.062,53.4925,0.003266
6.077,53.4703,0.003266
6.093,53.4475,0.003266
6.110,53.4207,0.003266
6.140,53.3740,0.003304
6.157,53.3495,0.003304
6.180,53.3122,0.003304
6.205,53.2728,0.003304
6.234,53.2255,0.003304
6.252,53.1981,0.003304
6.268,53.1717,0.003304
6.284,53.1458,0.003304
6.300,53.1182,0.003304
6.316,53.0921,0.003304
6.332,53.0650,0.003304
6.348,53.0376,0.003304
6.364,53.0105,0.003304
6.380,52.9837,0.003304
6.396,52.9561,0.003521
6.412,52.9258,0.003521
6.428,52.8991,0.003521
6.444,52.8709,0.003521
6.460,52.8430,0.003521
6.476,52.8128,0.003521
6.492,52.7850,0.003521
6.508,52.7565,0.003521
6.524,52.7266,0.003521
6.540,52.6972,0.003521
6.556,52.6677,0.003521
6.572,52.6368,0.003521
6.588,52.6076,0.003521
6.604,52.5781,0.003521
6.620,52.5464,0.003521
6.636,52.5160,0.003681
6.667,52.4551,0.003681
6.685,52.4206,0.003681
6.715,52.3636,0.003681
6.743,52.3070,0.003681
6.759,52.2748,0.003681
6.775,52.2420,0.003681
6.791,52.2108,0.003681
6.808,52.1752,0.003681
6.824,52.1413,0.003681
6.855,52.0768,0.003681
6.871,52.0423,0.003681
6.886,52.0116,0.003681
6.903,51.9771,0.003897
6.919,51.9432,0.003897
6.936,51.9074,0.003897
6.964,51.8481,0.003897
6.983,51.8077,0.003897
6.999,51.7723,0.003897
7.014,51.7413,0.003897
7.031,51.7072,0.003897
7.047,51.6756,0.003897
7.062,51.6425,0.003897
7.079,51.6094,0.003897
7.094,51.5782,0.003897
7.111,51.5438,0.003897
7.128,51.5083,0.003897
7.147,51.4728,0.003897
7.165,51.4374,0.003897
7.195,51.3779,0.004029
7.226,51.3194,0.004029
7.242,51.2893,0.004029
7.265,51.2450,0.004029
7.282,51.2140,0.004029
7.297,51.1853,0.004029
7.314,51.1547,0.004029
7.330,51.1254,0.004029
7.346,51.0963,0.004029
7.362,51.0673,0.004029
7.377,51.0387,0.004029
7.393,51.0101,0.004048
7.409,50.9813,0.004048
7.426,50.9525,0.004048
7.441,50.9250,0.004048
7.457,50.8964,0.004048
7.474,50.8690,0.004048
7.491,50.8377,0.004048
7.521,50.7885,0.004048
7.537,50.7603,0.004048
7.554,50.7323,0.004048
7.570,50.7066,0.004048
7.585,50.6808,0.004048
7.601,50.6550,0.004048
7.618,50.6284,0.004048
7.633,50.6032,0.004048
7.650,50.5764,0.004330
7.665,50.5521,0.004330
7.682,50.5252,0.004330
7.698,50.5007,0.004330
7.714,50.4767,0.004330
7.729,50.4526,0.004330
7.746,50.4272,0.004330
7.761,50.4037,0.004330
7.777,50.3791,0.004330
7.799,50.3466,0.004330
7.815,50.3231,0.004330
7.831,50.2999,0.004330
7.848,50.2761,0.004330
7.866,50.2486,0.004330
7.884,50.2248,0.004330
7.900,50.2013,0.004330
7.923,50.1692,0.004565
7.943,50.1419,0.004565
7.959,50.1201,0.004565
7.975,50.0985,0.004565
7.992,50.0763,0.004565
8.008,50.0552,0.004565
8.023,50.0348,0.004565
8.039,50.0132,0.004565
8.055,49.9929,0.004565
8.071,49.9726,0.004565
8.087,49.9518,0.004565
8.103,49.9321,0.004565
8.120,49.9119,0.004565
8.135,49.8928,0.004725
8.151,49.8728,0.004725
8.167,49.8533,0.004725
8.183,49.8345,0.004725
8.200,49.8151,0.004725
8.215,49.7958,0.004725
8.232,49.7768,0.004725
8.262,49.7429,0.004725
8.279,49.7237,0.004725
8.296,49.7052,0.004725
8.312,49.6881,0.004725
8.327,49.6715,0.004725
8.355,49.6409,0.004725
8.370,49.6255,0.004725
8.386,49.6080,0.004933
8.402,49.5924,0.004933
8.418,49.5755,0.004933
8.434,49.5601,0.004933
8.450,49.5435,0.004933
8.466,49.5285,0.004933
8.482,49.5129,0.004933
8.498,49.4976,0.004933
8.514,49.4826,0.004933
8.530,49.4672,0.004933
8.547,49.4520,0.004933
8.562,49.4385,0.004933
8.578,49.4237,0.004933
8.594,49.4096,0.004933
8.610,49.3957,0.004933
8.626,49.3818,0.004933
8.642,49.3686,0.005111
8.658,49.3551,0.005111
8.674,49.3414,0.005111
8.690,49.3291,0.005111
8.706,49.3161,0.005111
8.722,49.3034,0.005111
8.739,49.2908,0.005111
8.754,49.2791,0.005111
8.769,49.2672,0.005111
8.787,49.2540,0.005111
8.818,49.2317,0.005111
8.834,49.2209,0.005111
8.851,49.2088,0.005111
8.867,49.1986,0.005111
8.882,49.1883,0.005111
8.911,49.1695,0.005356
8.927,49.1589,0.005356
8.943,49.1495,0.005356
8.959,49.1397,0.005356
8.975,49.1300,0.005356
8.991,49.1206,0.005356
9.007,49.1115,0.005356
9.023,49.1027,0.005356
9.040,49.0933,0.005356
9.066,49.0794,0.005356
9.087,49.0689,0.005356
9.104,49.0604,0.005356
9.127,49.0490,0.005356
9.159,49.0343,0.005478
9.189,49.0213,0.005478
9.205,49.0142,0.005478
9.221,49.0077,0.005478
9.251,48.9958,0.005478
9.267,48.9898,0.005478
9.282,48.9842,0.005478
9.313,48.9738,0.005478
9.329,48.9684,0.005478
9.349,48.9622,0.005478
9.376,48.9544,0.005478
9.406,48.9458,0.005478
9.423,48.9415,0.005478
9.448,48.9357,0.005526
9.464,48.9320,0.005526
9.480,48.9286,0.005526
9.496,48.9254,0.005526
9.511,48.9224,0.005526
9.527,48.9196,0.005526
9.544,48.9170,0.005526
9.559,48.9143,0.005526
9.575,48.9122,0.005526
9.592,48.9101,0.005526
9.608,48.9083,0.005526
9.624,48.9065,0.005526
9.641,48.9050,0.005526
9.656,48.9038,0.005610
9.672,48.9026,0.005610
9.693,48.9014,0.005610
9.715,48.9007,0.005610
9.735,48.9002,0.005610
9.752,48.9001,0.005610
9.768,48.9001,0.005610
9.783,48.9001,0.005610
9.800,48.9001,0.005610
9.816,48.9001,0.005610
9.832,48.9001,0.005610
9.847,48.9001,0.005610
9.863,48.9002,0.005610
9.880,48.9005,0.005610
9.895,48.9008,0.005686
9.911,48.9014,0.005686
9.928,48.9024,0.005686
9.944,48.9033,0.005686
9.959,48.9045,0.005686
9.975,48.9059,0.005686
9.991,48.9075,0.005686
10.007,48.9094,0.005686
10.023,48.9114,0.005686
10.040,48.9137,0.005686
10.056,48.9162,0.005686
10.086,48.9210,0.005686
10.104,48.9243,0.005686
10.120,48.9276,0.005686
10.136,48.9307,0.005686
10.152,48.9344,0.005657
10.167,48.9380,0.005657
10.184,48.9421,0.005657
10.199,48.9461,0.005657
10.216,48.9507,0.005657
10.231,48.9549,0.005657
10.247,48.9596,0.005657
10.263,48.9645,0.005657
10.279,48.9695,0.005657
10.295,48.9747,0.005657
10.312,48.9807,0.005657
10.327,48.9860,0.005657
10.343,48.9920,0.005657
10.359,48.9979,0.005657
10.376,49.0045,0.005657
10.391,49.0107,0.005591
10.407,49.0174,0.005591
10.423,49.0241,0.005591
10.439,49.0312,0.005591
10.455,49.0384,0.005591
10.471,49.0457,0.005591
10.488,49.0536,0.005591
10.504,49.0613,0.005591
10.519,49.0691,0.005591
10.550,49.0854,0.005591
10.565,49.0933,0.005591
10.581,49.1019,0.005591
10.597,49.1109,0.005591
10.615,49.1220,0.005591
10.642,49.1371,0.005516
10.661,49.1488,0.005516
10.678,49.1589,0.005516
10.693,49.1686,0.005516
10.710,49.1793,0.005516
10.726,49.1897,0.005516
10.742,49.2007,0.005516
10.758,49.2116,0.005516
10.782,49.2285,0.005516
10.797,49.2393,0.005516
10.813,49.2507,0.005516
10.844,49.2738,0.005516
10.875,49.2976,0.005516
10.906,49.3214,0.005375
10.941,49.3502,0.005375
10.968,49.3724,0.005375
10.998,49.3983,0.005375
11.028,49.4257,0.005375
11.046,49.4407,0.005375
11.062,49.4553,0.005375
11.090,49.4814,0.005375
11.109,49.4996,0.005375
11.125,49.5146,0.005375
11.141,49.5305,0.005281
11.157,49.5462,0.005281
11.173,49.5620,0.005281
11.189,49.5779,0.005281
11.205,49.5940,0.005281
11.221,49.6110,0.005281
11.238,49.6280,0.005281
11.253,49.6445,0.005281
11.269,49.6612,0.005281
11.285,49.6785,0.005281
11.301,49.6962,0.005281
11.317,49.7136,0.005281
11.333,49.7318,0.005281
11.349,49.7498,0.005281
11.365,49.7681,0.005281
11.381,49.7861,0.005281
11.398,49.8055,0.005140
11.413,49.8236,0.005140
11.429,49.8433,0.005140
11.445,49.8623,0.005140
11.462,49.8822,0.005140
11.477,49.9010,0.005140
11.493,49.9214,0.005140
11.509,49.9406,0.005140
11.525,49.9607,0.005140
11.541,49.9814,0.005140
11.557,50.0015,0.005140
11.574,50.0236,0.005140
11.589,50.0435,0.005140
11.607,50.0693,0.005140
11.632,50.1004,0.005140
11.648,50.1230,0.005140
11.664,50.1445,0.004923
11.680,50.1661,0.004923
11.696,50.1883,0.004923
11.712,50.2108,0.004923
11.729,50.2349,0.004923
11.744,50.2568,0.004923
11.760,50.2802,0.004923
11.776,50.3027,0.004923
11.792,50.3269,0.004923
11.808,50.3503,0.004923
11.824,50.3736,0.004923
11.840,50.3979,0.004923
11.856,50.4221,0.004923
11.872,50.4457,0.004923
11.888,50.4702,0.004660
11.904,50.4958,0.004660
11.920,50.5213,0.004660
11.936,50.5453,0.004660
11.952,50.5706,0.004660
11.968,50.5961,0.004660
11.984,50.6226,0.004660
12.000,50.6484,0.004660
12.016,50.6739,0.004660
12.033,50.7024,0.004660
12.051,50.7344,0.004660
12.079,50.7797,0.004660
12.097,50.8097,0.004660
12.126,50.8610,0.004660
12.154,50.9078,0.004452
12.170,50.9356,0.004452
12.186,50.9638,0.004452
12.202,50.9916,0.004452
12.219,51.0229,0.004452
12.250,51.0787,0.004452
12.265,51.1072,0.004452
12.282,51.1377,0.004452
12.298,51.1672,0.004452
12.313,51.1959,0.004452
12.330,51.2264,0.004452
12.346,51.2559,0.004452
12.362,51.2860,0.004452
12.378,51.3175,0.004452
12.394,51.3476,0.004311
12.410,51.3797,0.004311
12.425,51.4092,0.004311
12.442,51.4411,0.004311
12.458,51.4732,0.004311
12.473,51.5035,0.004311
12.489,51.5353,0.004311
12.506,51.5677,0.004311
12.522,51.6011,0.004311
12.538,51.6328,0.004311
12.554,51.6653,0.004311
12.570,51.6985,0.004311
12.585,51.7309,0.004311
12.601,51.7642,0.004311
12.618,51.7976,0.004311
12.634,51.8314,0.004311
12.649,51.8646,0.004311
12.665,51.8988,0.004311
12.682,51.9343,0.004311
12.698,51.9695,0.004095
12.716,52.0055,0.004095
12.744,52.0632,0.004095
12.763,52.1041,0.004095
12.790,52.1599,0.004095
12.810,52.1981,0.004095
12.825,52.2310,0.004095
12.841,52.2620,0.004095
12.857,52.2939,0.004095
12.873,52.3254,0.004095
12.891,52.3629,0.004095
12.914,52.4071,0.004095
12.945,52.4658,0.003954
12.976,52.5255,0.003954
13.008,52.5841,0.003954
13.023,52.6133,0.003954
13.054,52.6700,0.003954
13.071,52.7017,0.003954
13.101,52.7554,0.003954
13.133,52.8115,0.003954
13.164,52.8673,0.003869
13.180,52.8946,0.003869
13.210,52.9486,0.003869
13.240,52.9989,0.003869
13.257,53.0277,0.003869
13.274,53.0552,0.003869
13.289,53.0810,0.003869
13.305,53.1075,0.003869
13.322,53.1357,0.003869
13.337,53.1600,0.003869
13.357,53.1922,0.003869
13.380,53.2304,0.003869
13.402,53.2627,0.003869
13.418,53.2887,0.003690
13.433,53.3122,0.003690
13.450,53.3385,0.003690
13.466,53.3623,0.003690
13.481,53.3855,0.003690
13.497,53.4102,0.003690
13.514,53.4344,0.003690
13.530,53.4584,0.003690
13.545,53.4809,0.003690
13.561,53.5045,0.003690
13.577,53.5279,0.003690
13.593,53.5505,0.003690
13.609,53.5732,0.003690
13.625,53.5957,0.003690
13.641,53.6184,0.003690
13.658,53.6413,0.003502
13.673,53.6622,0.003502
13.689,53.6840,0.003502
13.707,53.7087,0.003502
13.738,53.7490,0.003502
13.753,53.7704,0.003502
13.778,53.8012,0.003502
13.793,53.8207,0.003502
13.809,53.8404,0.003502
13.824,53.8608,0.003502
13.841,53.8812,0.003502
13.856,53.9001,0.003502
13.872,53.9198,0.003502
13.888,53.9403,0.003502
13.904,53.9581,0.003502
13.921,53.9781,0.003313
13.937,53.9967,0.003313
13.953,54.0168,0.003313
13.968,54.0338,0.003313
13.984,54.0514,0.003313
14.000,54.0694,0.003313
14.022,54.0939,0.003313
14.044,54.1189,0.003313
14.064,54.1398,0.003313
14.080,54.1573,0.003313
14.097,54.1748,0.003313
14.122,54.2007,0.003313
14.137,54.2170,0.003313
14.162,54.2410,0.003313
14.184,54.2630,0.003313
14.200,54.2787,0.003210
14.230,54.3076,0.003210
14.261,54.3369,0.003210
14.277,54.3513,0.003210
14.307,54.3778,0.003210
14.328,54.3966,0.003210
14.344,54.4111,0.003210
14.360,54.4241,0.003210
14.376,54.4374,0.003210
14.394,54.4522,0.003210
14.415,54.4696,0.003210
14.446,54.4945,0.003116
14.461,54.5063,0.003116
14.492,54.5296,0.003116
14.523,54.5527,0.003116
14.554,54.5745,0.003116
14.585,54.5961,0.003116
14.601,54.6068,0.003116
14.617,54.6172,0.003116
14.648,54.6374,0.003116
14.664,54.6475,0.003040
14.680,54.6568,0.003040
14.698,54.6675,0.003040
14.725,54.6840,0.003040
14.744,54.6941,0.003040
14.760,54.7031,0.003040
14.776,54.7116,0.003040
14.793,54.7206,0.003040
14.808,54.7287,0.003040
14.824,54.7365,0.003040
14.840,54.7443,0.003040
14.856,54.7518,0.003040
14.879,54.7625,0.003040
14.895,54.7697,0.003040
14.912,54.7772,0.002937
14.941,54.7896,0.002937
14.959,54.7972,0.002937
14.975,54.8030,0.002937
14.991,54.8091,0.002937
15.007,54.8149,0.002937
15.024,54.8208,0.002937
15.049,54.8294,0.002937
15.081,54.8394,0.002937
15.103,54.8459,0.002937
15.119,54.8505,0.002937
15.135,54.8547,0.002937
15.151,54.8587,0.002937
15.167,54.8625,0.002485
15.183,54.8662,0.002485
15.199,54.8698,0.002485
15.215,54.8732,0.002485
15.231,54.8764,0.002485
15.247,54.8793,0.002485
15.263,54.8821,0.002485
15.279,54.8846,0.002485
15.295,54.8869,0.002485
15.311,54.8891,0.002485
15.327,54.8910,0.002485
15.343,54.8928,0.002485
15.359,54.8944,0.002485
15.376,54.8960,0.002485
15.405,54.8979,0.002485
15.435,54.8992,0.001901
15.452,54.8997,0.001901
15.482,54.9001,0.001901
15.501,54.9001,0.001901
15.529,54.9001,0.001901
15.547,54.9001,0.001901
15.563,54.9001,0.001901
15.579,54.9001,0.001901
15.595,54.9001,0.001901
15.611,54.9001,0.001901
15.627,54.9001,0.001901
15.643,54.9001,0.001901
15.659,54.9001,0.001789
15.676,54.9001,0.001789
15.701,54.9001,0.001789
15.731,54.9001,0.001789
15.747,54.9001,0.001789
15.764,54.9001,0.001789
15.794,54.9001,0.001789
15.825,54.9001,0.001789
15.856,54.9001,0.001789
15.886,54.9001,0.001789
15.916,54.9001,0.002203
15.932,54.9001,0.002203
15.964,54.9001,0.002203
15.994,54.9001,0.002203
16.010,54.9001,0.002203
16.026,54.9001,0.002203
16.041,54.9001,0.002203
16.059,54.9001,0.002203
16.081,54.9001,0.002203
16.103,54.9001,0.002203
16.128,54.9001,0.002203
16.150,54.9001,0.002203
16.170,54.9001,0.002589
16.186,54.9001,0.002589
16.201,54.9001,0.002589
16.218,54.9001,0.002589
16.233,54.9001,0.002589
16.250,54.9001,0.002589
16.266,54.9001,0.002589
16.282,54.9001,0.002589
16.297,54.9001,0.002589
16.314,54.9001,0.002589
16.330,54.9001,0.002589
16.345,54.9001,0.002589
16.361,54.9001,0.002589
16.378,54.9001,0.002589
16.393,54.9001,0.002749
16.409,54.9001,0.002749
16.426,54.9001,0.002749
16.442,54.9001,0.002749
16.457,54.9001,0.002749
16.473,54.9001,0.002749
16.490,54.9001,0.002749
16.505,54.9001,0.002749
16.522,54.9001,0.002749
16.537,54.9001,0.002749
16.555,54.9001,0.002749
16.586,54.9001,0.002749
16.616,54.9001,0.002749
16.637,54.9001,0.002749
16.663,54.9001,0.002805
16.682,54.9001,0.002805
16.697,54.9001,0.002805
16.713,54.9001,0.002805
16.730,54.9001,0.002805
16.745,54.9001,0.002805
16.762,54.9001,0.002805
16.777,54.9001,0.002805
16.793,54.9001,0.002805
16.809,54.9001,0.002805
16.825,54.9001,0.002805
16.842,54.9001,0.002805
16.857,54.9001,0.002805
16.873,54.9001,0.002805
16.889,54.9001,0.002833
16.909,54.9001,0.002833
16.941,54.9001,0.002833
16.956,54.9001,0.002833
16.988,54.9001,0.002833
17.018,54.9001,0.002833
17.049,54.9001,0.002833
17.065,54.9001,0.002833
17.091,54.9001,0.002833
17.107,54.9001,0.002833
17.124,54.9001,0.002833
17.139,54.9001,0.002852
17.155,54.9001,0.002852
17.172,54.9001,0.002852
17.188,54.9001,0.002852
17.203,54.9001,0.002852
17.219,54.9001,0.002852
17.235,54.9001,0.002852
17.251,54.9001,0.002852
17.267,54.9001,0.002852
17.283,54.9001,0.002852
17.299,54.9001,0.002852
17.315,54.9001,0.002852
17.332,54.9001,0.002852
17.347,54.9001,0.002852
17.363,54.9001,0.002852
17.379,54.9001,0.002852
17.398,54.9001,0.002852
17.423,54.9001,0.002880
17.445,54.9001,0.002880
17.463,54.9001,0.002880
17.485,54.9001,0.002880
17.515,54.9001,0.002880
17.545,54.9001,0.002880
17.576,54.9001,0.002880
17.607,54.9001,0.002880
17.624,54.9001,0.002880
17.648,54.9001,0.002871
17.664,54.9001,0.002871
17.680,54.9001,0.002871
17.696,54.9001,0.002871
17.712,54.9001,0.002871
17.728,54.9001,0.002871
17.744,54.9001,0.002871
17.761,54.9001,0.002871
17.781,54.9001,0.002871
17.809,54.9001,0.002871
17.825,54.9001,0.002871
17.840,54.9001,0.002871
17.856,54.9001,0.002871
17.872,54.9001,0.002871
17.890,54.9001,0.002871
17.918,54.9001,0.002852
17.936,54.9001,0.002852
17.952,54.9001,0.002852
17.968,54.9001,0.002852
17.984,54.9001,0.002852
18.000,54.9001,0.002852
18.019,54.9001,0.002852
18.042,54.9001,0.002852
18.057,54.9001,0.002852
18.072,54.9001,0.002852
18.089,54.9001,0.002852
18.120,54.9001,0.002852
18.150,54.9001,0.002852
18.180,54.9001,0.002852
18.201,54.9001,0.002890
18.217,54.9001,0.002890
18.233,54.9001,0.002890
18.249,54.9001,0.002890
18.265,54.9001,0.002890
18.282,54.9001,0.002890
18.304,54.9001,0.002890
18.334,54.9001,0.002890
18.350,54.9001,0.002890
18.381,54.9001,0.002890
18.396,54.9001,0.002890
18.428,54.9001,0.002899
18.444,54.9001,0.002899
18.459,54.9001,0.002899
18.490,54.9001,0.002899
18.508,54.9001,0.002899
18.537,54.9001,0.002899
18.553,54.9001,0.002899
18.570,54.9001,0.002899
18.597,54.9001,0.002899
18.617,54.9001,0.002899
18.632,54.9001,0.002899
18.649,54.9001,0.002899
18.665,54.9001,0.002871
18.681,54.9001,0.002871
18.700,54.9001,0.002871
18.724,54.9001,0.002871
18.742,54.9001,0.002871
18.770,54.9001,0.002871
18.788,54.9001,0.002871
18.804,54.9001,0.002871
18.821,54.9001,0.002871
18.847,54.9001,0.002871
18.869,54.9001,0.002871
18.885,54.9001,0.002871
18.902,54.9001,0.002871
18.925,54.9001,0.002843
18.956,54.9001,0.002843
18.971,54.9001,0.002843
19.002,54.9001,0.002843
19.019,54.9001,0.002843
19.049,54.9001,0.002843
19.080,54.9001,0.002843
19.110,54.9001,0.002843
19.140,54.9001,0.002843
19.157,54.9001,0.002880
19.172,54.9001,0.002880
19.189,54.9001,0.002880
19.219,54.9001,0.002880
19.248,54.9001,0.002880
19.265,54.9001,0.002880
19.281,54.9001,0.002880
19.296,54.9001,0.002880
19.312,54.9001,0.002880
19.329,54.9001,0.002880
19.345,54.9001,0.002880
19.361,54.9001,0.002880
19.377,54.9001,0.002880
19.405,54.9001,0.002918
19.424,54.9001,0.002918
19.445,54.9001,0.002918
19.467,54.9001,0.002918
19.497,54.9001,0.002918
19.528,54.9001,0.002918
19.544,54.9001,0.002918
19.575,54.9001,0.002918
19.605,54.9001,0.002918
19.636,54.9001,0.002918
19.652,54.9001,0.002880
19.683,54.9001,0.002880
19.714,54.9001,0.002880
19.744,54.9001,0.002880
19.772,54.9001,0.002880
19.791,54.9001,0.002880
19.807,54.9001,0.002880
19.837,54.9001,0.002880
19.853,54.9001,0.002880
19.884,54.9001,0.002880
19.899,54.9001,0.002852
19.915,54.9001,0.002852
19.938,54.9001,0.002852
19.961,54.9001,0.002852
19.979,54.9001,0.002852
19.996,54.9001,0.002852
20.011,54.9001,0.002852
20.027,54.9001,0.002852
20.043,54.9001,0.002852
20.065,54.9001,0.002852
20.087,54.9001,0.002852
20.107,54.9001,0.002852
20.123,54.9001,0.002852
20.139,54.9001,0.002852
20.155,54.9001,0.002909
20.171,54.9001,0.002909
20.187,54.9001,0.002909
20.203,54.9001,0.002909
20.219,54.9001,0.002909
20.236,54.9001,0.002909
20.251,54.9001,0.002909
20.267,54.9001,0.002909
20.283,54.9001,0.002909
20.304,54.9001,0.002909
20.320,54.9001,0.002909
20.336,54.9001,0.002909
20.352,54.9001,0.002909
20.369,54.9001,0.002909
20.397,54.9001,0.002909
20.416,54.9001,0.002909
20.432,54.9001,0.002909
20.448,54.9001,0.002909
20.464,54.9001,0.002909
20.480,54.9001,0.002909
20.496,54.9001,0.002909
20.512,54.9001,0.002909
20.528,54.9001,0.002909
20.544,54.9001,0.002909
20.560,54.9001,0.002909
20.576,54.9001,0.002909
20.592,54.9001,0.002909
20.608,54.9001,0.002909
20.624,54.9001,0.002909
20.640,54.9001,0.002843
20.656,54.9001,0.002843
20.672,54.9001,0.002843
20.688,54.9001,0.002843
20.704,54.9001,0.002843
20.720,54.9001,0.002843
20.739,54.9001,0.002843
20.768,54.9001,0.002843
20.784,54.9001,0.002843
20.800,54.9001,0.002843
20.817,54.9001,0.002843
20.845,54.9001,0.002843
20.864,54.9001,0.002843
20.880,54.9001,0.002843
20.898,54.9001,0.002730
20.913,54.9001,0.002730
20.928,54.9001,0.002730
20.944,54.9001,0.002730
20.960,54.9001,0.002730
20.976,54.9001,0.002730
20.994,54.9001,0.002730
21.015,54.9001,0.002730
21.046,54.9001,0.002730
21.061,54.9001,0.002730
21.092,54.9001,0.002730
21.109,54.9001,0.002730
21.139,54.9001,0.002626
21.170,54.9001,0.002626
21.185,54.9001,0.002626
21.201,54.9001,0.002626
21.217,54.9001,0.002626
21.248,54.8997,0.002626
21.264,54.8992,0.002626
21.280,54.8986,0.002626
21.296,54.8976,0.002626
21.312,54.8966,0.002626
21.328,54.8953,0.002626
21.344,54.8939,0.002626
21.360,54.8923,0.002626
21.383,54.8895,0.002626
21.402,54.8869,0.002626
21.418,54.8846,0.002607
21.449,54.8794,0.002607
21.464,54.8768,0.002607
21.480,54.8737,0.002607
21.511,54.8672,0.002607
21.526,54.8636,0.002607
21.543,54.8597,0.002607
21.572,54.8522,0.002607
21.590,54.8471,0.002607
21.608,54.8418,0.002607
21.635,54.8337,0.005450
21.654,54.8277,0.005450
21.670,54.8221,0.005450
21.685,54.8166,0.005450
21.702,54.8104,0.005450
21.717,54.8050,0.005450
21.734,54.7984,0.005450
21.750,54.7922,0.005450
21.765,54.7855,0.005450
21.781,54.7790,0.005450
21.798,54.7721,0.005450
21.814,54.7647,0.005450
21.829,54.7576,0.005450
21.846,54.7500,0.005450
21.862,54.7421,0.005450
21.877,54.7345,0.005450
21.893,54.7260,0.005450
21.917,54.7142,0.009451
21.933,54.7054,0.009451
21.949,54.6968,0.009451
21.965,54.6879,0.009451
21.981,54.6785,0.009451
21.997,54.6693,0.009451
22.013,54.6595,0.009451
22.028,54.6503,0.009451
22.046,54.6394,0.009451
22.070,54.6234,0.009451
22.093,54.6093,0.009451
22.108,54.5986,0.009451
22.124,54.5878,0.009451
22.140,54.5768,0.007032
22.157,54.5651,0.007032
22.174,54.5526,0.007032
22.194,54.5377,0.007032
22.210,54.5265,0.007032
22.226,54.5134,0.007032
22.256,54.4899,0.007032
22.272,54.4777,0.007032
22.288,54.4651,0.007032
22.319,54.4388,0.007032
22.335,54.4264,0.007032
22.351,54.4127,0.007032
22.367,54.3984,0.007032
22.398,54.3711,0.003342
22.416,54.3543,0.003342
22.443,54.3297,0.003342
22.467,54.3065,0.003342
22.490,54.2859,0.003342
22.510,54.2662,0.003342
22.525,54.2508,0.003342
22.541,54.2356,0.003342
22.556,54.2203,0.003342
22.572,54.2036,0.003342
22.589,54.1865,0.003342
22.605,54.1703,0.003342
22.621,54.1528,0.003342
22.637,54.1359,0.003342
22.652,54.1194,0.003342
22.669,54.1011,0.003238
22.685,54.0839,0.003238
22.700,54.0657,0.003238
22.716,54.0484,0.003238
22.732,54.0301,0.003238
22.748,54.0112,0.003238
22.765,53.9912,0.003238
22.784,53.9692,0.003238
22.815,53.9316,0.003238
22.832,53.9122,0.003238
22.848,53.8923,0.003238
22.863,53.8732,0.003238
22.894,53.8347,0.003238
22.909,53.8144,0.003304
22.940,53.7751,0.003304
22.968,53.7376,0.003304
22.985,53.7148,0.003304
23.017,53.6714,0.003304
23.047,53.6310,0.003304
23.063,53.6085,0.003304
23.079,53.5862,0.003304
23.095,53.5640,0.003304
23.111,53.5412,0.003304
23.129,53.5152,0.003304
23.157,53.4738,0.003379
23.175,53.4470,0.003379
23.191,53.4224,0.003379
23.207,53.3989,0.003379
23.223,53.3756,0.003379
23.239,53.3513,0.003379
23.258,53.3210,0.003379
23.281,53.2857,0.003379
23.312,53.2367,0.003379
23.329,53.2113,0.003379
23.359,53.1612,0.003379
23.390,53.1107,0.003379
23.420,53.0596,0.003455
23.451,53.0090,0.003455
23.481,52.9569,0.003455
23.502,52.9218,0.003455
23.518,52.8940,0.003455
23.534,52.8660,0.003455
23.550,52.8380,0.003455
23.566,52.8102,0.003455
23.582,52.7809,0.003455
23.598,52.7532,0.003455
23.614,52.7235,0.003455
23.630,52.6931,0.003455
23.646,52.6651,0.003455
23.662,52.6363,0.003624
23.678,52.6058,0.003624
23.695,52.5745,0.003624
23.714,52.5371,0.003624
23.745,52.4783,0.003624
23.777,52.4176,0.003624
23.807,52.3597,0.003624
23.823,52.3276,0.003624
23.853,52.2671,0.003624
23.871,52.2316,0.003624
23.901,52.1716,0.003812
23.918,52.1375,0.003812
23.934,52.1044,0.003812
23.950,52.0717,0.003812
23.966,52.0385,0.003812
23.982,52.0051,0.003812
23.998,51.9700,0.003812
24.014,51.9379,0.003812
24.030,51.9036,0.003812
24.054,51.8504,0.003812
24.071,51.8161,0.003812
24.087,51.7815,0.003812
24.102,51.7489,0.003812
24.119,51.7153,0.003812
24.148,51.6534,0.003982
24.166,51.6181,0.003982
24.182,51.5840,0.003982
24.198,51.5526,0.003982
24.214,51.5208,0.003982
24.230,51.4888,0.003982
24.250,51.4485,0.003982
24.272,51.4035,0.003982
24.294,51.3626,0.003982
24.310,51.3311,0.003982
24.325,51.3004,0.003982
24.341,51.2704,0.003982
24.358,51.2388,0.003982
24.375,51.2075,0.003982
24.390,51.1783,0.003982
24.405,51.1495,0.004104
24.421,51.1194,0.004104
24.438,51.0889,0.004104
24.453,51.0608,0.004104
24.469,51.0314,0.004104
24.486,51.0018,0.004104
24.502,50.9731,0.004104
24.518,50.9440,0.004104
24.533,50.9155,0.004104
24.551,50.8851,0.004104
24.581,50.8335,0.004104
24.611,50.7814,0.004104
24.627,50.7546,0.004104
24.643,50.7273,0.004264
24.658,50.7016,0.004264
24.683,50.6589,0.004264
24.709,50.6179,0.004264
24.737,50.5715,0.004264
24.755,50.5439,0.004264
24.770,50.5191,0.004264
24.786,50.4937,0.004264
24.803,50.4665,0.004264
24.830,50.4240,0.004264
24.850,50.3943,0.004264
24.867,50.3689,0.004264
24.882,50.3455,0.004264
24.899,50.3202,0.004471
24.914,50.2980,0.004471
24.931,50.2729,0.004471
24.946,50.2507,0.004471
24.963,50.2268,0.004471
24.978,50.2038,0.004471
25.004,50.1674,0.004471
25.033,50.1278,0.004471
25.064,50.0850,0.004471
25.094,50.0438,0.004471
25.110,50.0227,0.004471
25.133,49.9921,0.004471
25.150,49.9695,0.004471
25.166,49.9501,0.004650
25.182,49.9292,0.004650
25.197,49.9094,0.004650
25.213,49.8894,0.004650
25.229,49.8693,0.004650
25.245,49.8494,0.004650
25.262,49.8291,0.004650
25.277,49.8097,0.004650
25.301,49.7807,0.004650
25.326,49.7519,0.004650
25.355,49.7184,0.004650
25.374,49.6973,0.004650
25.390,49.6799,0.004857
25.405,49.6627,0.004857
25.421,49.6443,0.004857
25.438,49.6266,0.004857
25.454,49.6097,0.004857
25.469,49.5931,0.004857
25.485,49.5758,0.004857
25.502,49.5589,0.004857
25.517,49.5430,0.004857
25.533,49.5265,0.004857
25.549,49.5095,0.004857
25.565,49.4945,0.004857
25.581,49.4792,0.004857
25.598,49.4625,0.004857
25.613,49.4481,0.004857
25.629,49.4330,0.004857
25.645,49.4184,0.004857
25.668,49.3967,0.005111
25.684,49.3823,0.005111
25.701,49.3680,0.005111
25.716,49.3544,0.005111
25.732,49.3402,0.005111
25.749,49.3254,0.005111
25.765,49.3123,0.005111
25.780,49.2996,0.005111
25.796,49.2864,0.005111
25.812,49.2735,0.005111
25.828,49.2612,0.005111
25.844,49.2483,0.005111
25.860,49.2359,0.005111
25.881,49.2202,0.005111
25.912,49.1972,0.005318
25.943,49.1752,0.005318
25.958,49.1648,0.005318
25.975,49.1535,0.005318
26.005,49.1331,0.005318
26.036,49.1133,0.005318
26.053,49.1032,0.005318
26.068,49.0938,0.005318
26.084,49.0841,0.005318
26.100,49.0742,0.005318
26.116,49.0652,0.005318
26.132,49.0565,0.005318
26.148,49.0475,0.005431
26.164,49.0385,0.005431
26.180,49.0304,0.005431
26.209,49.0156,0.005431
26.225,49.0077,0.005431
26.241,49.0000,0.005431
26.257,48.9925,0.005431
26.273,48.9850,0.005431
26.290,48.9776,0.005431
26.305,48.9707,0.005431
26.321,48.9642,0.005431
26.338,48.9575,0.005431
26.361,48.9483,0.005431
26.391,48.9369,0.005431
26.423,48.9259,0.005610
26.438,48.9205,0.005610
26.469,48.9110,0.005610
26.500,48.9018,0.005610
26.515,48.8976,0.005610
26.531,48.8936,0.005610
26.562,48.8859,0.005610
26.580,48.8817,0.005610
26.600,48.8776,0.005610
26.625,48.8729,0.005610
26.641,48.8699,0.005610
26.657,48.8672,0.005610
26.673,48.8649,0.005695
26.689,48.8625,0.005695
26.707,48.8601,0.005695
26.732,48.8573,0.005695
26.753,48.8553,0.005695
26.770,48.8539,0.005695
26.785,48.8528,0.005695
26.802,48.8518,0.005695
26.825,48.8508,0.005695
26.840,48.8505,0.005695
26.871,48.8501,0.005695
26.901,48.8501,0.005695
26.917,48.8501,0.005695
26.933,48.8501,0.005648
26.948,48.8501,0.005648
26.964,48.8501,0.005648
26.980,48.8501,0.005648
27.011,48.8502,0.005648
27.027,48.8505,0.005648
27.058,48.8516,0.005648
27.088,48.8535,0.005648
27.104,48.8547,0.005648
27.121,48.8561,0.005648
27.136,48.8577,0.005648
27.152,48.8595,0.005648
27.168,48.8615,0.005676
27.185,48.8637,0.005676
27.201,48.8662,0.005676
27.216,48.8687,0.005676
27.233,48.8717,0.005676
27.249,48.8744,0.005676
27.265,48.8776,0.005676
27.281,48.8811,0.005676
27.297,48.8847,0.005676
27.313,48.8884,0.005676
27.329,48.8923,0.005676
27.345,48.8965,0.005676
27.361,48.9008,0.005676
27.377,48.9054,0.005676
27.393,48.9103,0.005676
27.408,48.9148,0.005657
27.425,48.9202,0.005657
27.440,48.9253,0.005657
27.456,48.9307,0.005657
27.472,48.9364,0.005657
27.488,48.9423,0.005657
27.504,48.9483,0.005657
27.521,48.9552,0.005657
27.537,48.9612,0.005657
27.552,48.9677,0.005657
27.571,48.9760,0.005657
27.598,48.9879,0.005657
27.617,48.9965,0.005657
27.633,49.0043,0.005657
27.649,49.0120,0.005657
27.664,49.0198,0.005610
27.681,49.0282,0.005610
27.697,49.0368,0.005610
27.713,49.0453,0.005610
27.728,49.0537,0.005610
27.744,49.0627,0.005610
27.761,49.0722,0.005610
27.776,49.0812,0.005610
27.792,49.0915,0.005610
27.815,49.1050,0.005610
27.832,49.1154,0.005610
27.847,49.1251,0.005610
27.863,49.1355,0.005610
27.879,49.1468,0.005610
27.896,49.1571,0.005610
27.911,49.1685,0.005544
27.928,49.1794,0.005544
27.944,49.1912,0.005544
27.960,49.2025,0.005544
27.976,49.2145,0.005544
27.991,49.2259,0.005544
28.008,49.2385,0.005544
28.023,49.2506,0.005544
28.039,49.2629,0.005544
28.056,49.2760,0.005544
28.072,49.2890,0.005544
28.087,49.3017,0.005544
28.103,49.3152,0.005544
28.120,49.3290,0.005544
28.136,49.3430,0.005544
28.151,49.3561,0.005403
28.167,49.3703,0.005403
28.185,49.3861,0.005403
28.201,49.4009,0.005403
28.216,49.4147,0.005403
28.247,49.4438,0.005403
28.264,49.4593,0.005403
28.279,49.4743,0.005403
28.295,49.4904,0.005403
28.312,49.5067,0.005403
28.328,49.5226,0.005403
28.348,49.5428,0.005403
28.372,49.5686,0.005403
28.395,49.5928,0.005403
28.417,49.6157,0.005262
28.437,49.6374,0.005262
28.465,49.6685,0.005262
28.483,49.6886,0.005262
28.500,49.7070,0.005262
28.515,49.7250,0.005262
28.531,49.7441,0.005262
28.547,49.7619,0.005262
28.563,49.7814,0.005262
28.580,49.8007,0.005262
28.595,49.8191,0.005262
28.611,49.8391,0.005262
28.628,49.8595,0.005262
28.644,49.8788,0.005064
28.659,49.8982,0.005064
28.675,49.9184,0.005064
28.691,49.9392,0.005064
28.707,49.9600,0.005064
28.723,49.9817,0.005064
28.739,50.0015,0.005064
28.755,50.0234,0.005064
28.771,50.0446,0.005064
28.787,50.0662,0.005064
28.804,50.0893,0.005064
28.834,50.1305,0.005064
28.851,50.1543,0.005064
28.869,50.1812,0.005064
28.896,50.2186,0.005064
28.915,50.2455,0.004810
28.932,50.2704,0.004810
28.947,50.2927,0.004810
28.963,50.3161,0.004810
28.979,50.3405,0.004810
28.995,50.3648,0.004810
29.011,50.3895,0.004810
29.027,50.4132,0.004810
29.043,50.4375,0.004810
29.059,50.4625,0.004810
29.075,50.4877,0.004810
29.091,50.5126,0.004810
29.107,50.5389,0.004810
29.123,50.5657,0.004810
29.139,50.5905,0.004810
29.155,50.6157,0.004612
29.171,50.6424,0.004612
29.187,50.6704,0.004612
29.203,50.6951,0.004612
29.219,50.7219,0.004612
29.236,50.7511,0.004612
29.254,50.7825,0.004612
29.285,50.8356,0.004612
29.316,50.8923,0.004612
29.331,50.9161,0.004612
29.347,50.9445,0.004612
29.368,50.9826,0.004612
29.393,51.0280,0.004612
29.412,51.0621,0.004612
29.439,51.1113,0.004462
29.454,51.1390,0.004462
29.470,51.1695,0.004462
29.486,51.1980,0.004462
29.504,51.2336,0.004462
29.532,51.2857,0.004462
29.550,51.3211,0.004462
29.566,51.3520,0.004462
29.582,51.3829,0.004462
29.598,51.4150,0.004462
29.614,51.4467,0.004462
29.630,51.4785,0.004462
29.646,51.5108,0.004462
29.662,51.5418,0.004283
29.678,51.5742,0.004283
29.694,51.6081,0.004283
29.710,51.6401,0.004283
29.726,51.6723,0.004283
29.742,51.7067,0.004283
29.759,51.7422,0.004283
29.780,51.7862,0.004283
29.811,51.8531,0.004283
29.826,51.8852,0.004283
29.842,51.9181,0.004283
29.858,51.9513,0.004283
29.888,52.0151,0.004283
29.906,52.0511,0.004283
29.936,52.1118,0.004283
29.959,52.1582,0.004057
29.975,52.1912,0.004057
29.991,52.2221,0.004057
30.007,52.2560,0.004057
30.023,52.2863,0.004057
30.038,52.3169,0.004057
30.055,52.3483,0.004057
30.071,52.3793,0.004057
30.087,52.4108,0.004057
30.103,52.4412,0.004057
30.119,52.4711,0.004057
30.134,52.5012,0.004057
30.150,52.5312,0.003888
30.167,52.5621,0.003888
30.182,52.5913,0.003888
30.199,52.6214,0.003888
30.214,52.6506,0.003888
30.231,52.6793,0.003888
30.247,52.7091,0.003888
30.263,52.7379,0.003888
30.279,52.7654,0.003888
30.296,52.7958,0.003888
30.316,52.8318,0.003888
30.341,52.8755,0.003888
30.359,52.9053,0.003888
30.374,52.9323,0.003888
30.390,52.9590,0.003888
30.407,52.9875,0.003794
30.422,53.0130,0.003794
30.441,53.0437,0.003794
30.463,53.0800,0.003794
30.479,53.1055,0.003794
30.500,53.1396,0.003794
30.516,53.1660,0.003794
30.532,53.1907,0.003794
30.548,53.2160,0.003794
30.564,53.2421,0.003794
30.580,53.2668,0.003794
30.595,53.2898,0.003794
30.611,53.3146,0.003794
30.628,53.3396,0.003794
30.643,53.3632,0.003671
30.659,53.3866,0.003671
30.675,53.4104,0.003671
30.692,53.4348,0.003671
30.707,53.4573,0.003671
30.724,53.4809,0.003671
30.740,53.5040,0.003671
30.755,53.5262,0.003671
30.773,53.5511,0.003671
30.789,53.5732,0.003671
30.804,53.5947,0.003671
30.835,53.6373,0.003671
30.852,53.6589,0.003671
30.868,53.6804,0.003671
30.884,53.7019,0.003671
30.899,53.7224,0.003521
30.916,53.7434,0.003521
30.932,53.7649,0.003521
30.947,53.7839,0.003521
30.963,53.8041,0.003521
30.979,53.8244,0.003521
30.996,53.8448,0.003521
31.011,53.8635,0.003521
31.028,53.8835,0.003521
31.051,53.9119,0.003521
31.068,53.9312,0.003521
31.083,53.9495,0.003521
31.099,53.9686,0.003521
31.116,53.9869,0.003521
31.132,54.0053,0.003521
31.147,54.0227,0.003285
31.164,54.0417,0.003285
31.181,54.0601,0.003285
31.197,54.0774,0.003285
31.222,54.1045,0.003285
31.243,54.1271,0.003285
31.260,54.1439,0.003285
31.275,54.1599,0.003285
31.291,54.1760,0.003285
31.307,54.1922,0.003285
31.323,54.2080,0.003285
31.339,54.2235,0.003285
31.355,54.2390,0.003285
31.372,54.2553,0.003285
31.387,54.2694,0.003153
31.403,54.2843,0.003153
31.420,54.3004,0.003153
31.437,54.3157,0.003153
31.453,54.3292,0.003153
31.483,54.3566,0.003153
31.505,54.3752,0.003153
31.530,54.3958,0.003153
31.547,54.4102,0.003153
31.563,54.4230,0.003153
31.579,54.4364,0.003153
31.604,54.4552,0.003153
31.620,54.4679,0.003153
31.636,54.4795,0.003106
31.652,54.4914,0.003106
31.669,54.5035,0.003106
31.684,54.5145,0.003106
31.700,54.5263,0.003106
31.718,54.5383,0.003106
31.747,54.5578,0.003106
31.764,54.5693,0.003106
31.781,54.5800,0.003106
31.796,54.5897,0.003106
31.812,54.6000,0.003106
31.828,54.6093,0.003106
31.844,54.6188,0.003106
31.861,54.6287,0.003106
31.876,54.6375,0.003106
31.893,54.6471,0.002993
31.908,54.6553,0.002993
31.924,54.6637,0.002993
31.940,54.6720,0.002993
31.956,54.6804,0.002993
31.972,54.6888,0.002993
31.988,54.6963,0.002993
32.004,54.7038,0.002993
32.020,54.7113,0.002993
32.036,54.7185,0.002993
32.053,54.7260,0.002993
32.069,54.7328,0.002993
32.085,54.7399,0.002993
32.101,54.7457,0.002993
32.131,54.7572,0.002993
32.148,54.7640,0.002993
32.164,54.7694,0.002993
32.180,54.7748,0.002805
32.197,54.7807,0.002805
32.217,54.7869,0.002805
32.239,54.7936,0.002805
32.260,54.7996,0.002805
32.277,54.8043,0.002805
32.301,54.8103,0.002805
32.332,54.8177,0.002805
32.348,54.8210,0.002805
32.379,54.8270,0.002805
32.411,54.8325,0.002805
32.426,54.8350,0.002287
32.441,54.8372,0.002287
32.457,54.8394,0.002287
32.488,54.8430,0.002287
32.518,54.8458,0.002287
32.549,54.8479,0.002287
32.565,54.8487,0.002287
32.581,54.8494,0.002287
32.596,54.8497,0.002287
32.612,54.8500,0.002287
32.628,54.8501,0.002287
32.644,54.8501,0.002287
32.667,54.8501,0.001732
32.683,54.8501,0.001732
32.699,54.8501,0.001732
32.715,54.8501,0.001732
32.731,54.8501,0.001732
32.747,54.8501,0.001732
32.763,54.8501,0.001732
32.779,54.8501,0.001732
32.795,54.8501,0.001732
32.811,54.8501,0.001732
32.827,54.8501,0.001732
32.843,54.8501,0.001732
32.859,54.8501,0.001732
32.876,54.8501,0.001732
32.907,54.8501,0.001854
32.923,54.8501,0.001854
32.938,54.8501,0.001854
32.955,54.8501,0.001854
32.971,54.8501,0.001854
32.987,54.8501,0.001854
33.002,54.8501,0.001854
33.021,54.8501,0.001854
33.046,54.8501,0.001854
33.067,54.8501,0.001854
33.083,54.8501,0.001854
33.100,54.8501,0.001854
33.123,54.8501,0.001854
33.139,54.8501,0.001854
33.156,54.8501,0.001854
33.185,54.8501,0.001854
33.207,54.8501,0.002410
33.223,54.8501,0.002410
33.239,54.8501,0.002410
33.255,54.8501,0.002410
33.272,54.8501,0.002410
33.294,54.8501,0.002410
33.325,54.8501,0.002410
33.341,54.8501,0.002410
33.371,54.8501,0.002410
33.402,54.8501,0.002410
33.418,54.8501,0.002702
33.449,54.8501,0.002702
33.480,54.8501,0.002702
33.495,54.8501,0.002702
33.510,54.8501,0.002702
33.527,54.8501,0.002702
33.542,54.8501,0.002702
33.558,54.8501,0.002702
33.575,54.8501,0.002702
33.590,54.8501,0.002702
33.606,54.8501,0.002702
33.622,54.8501,0.002702
33.643,54.8501,0.002702
33.665,54.8501,0.002758
33.687,54.8501,0.002758
33.703,54.8501,0.002758
33.718,54.8501,0.002758
33.735,54.8501,0.002758
33.758,54.8501,0.002758
33.775,54.8501,0.002758
33.790,54.8501,0.002758
33.806,54.8501,0.002758
33.824,54.8501,0.002758
33.852,54.8501,0.002758
33.870,54.8501,0.002758
33.891,54.8501,0.002758
33.913,54.8501,0.002758
33.934,54.8501,0.002815
33.950,54.8501,0.002815
33.967,54.8501,0.002815
33.982,54.8501,0.002815
33.998,54.8501,0.002815
34.014,54.8501,0.002815
34.030,54.8501,0.002815
34.046,54.8501,0.002815
34.062,54.8501,0.002815
34.079,54.8501,0.002815
34.094,54.8501,0.002815
34.111,54.8501,0.002815
34.126,54.8501,0.002815
34.143,54.8501,0.002815
34.158,54.8501,0.002928
34.175,54.8501,0.002928
34.190,54.8501,0.002928
34.207,54.8501,0.002928
34.223,54.8501,0.002928
34.239,54.8501,0.002928
34.262,54.8501,0.002928
34.284,54.8501,0.002928
34.303,54.8501,0.002928
34.318,54.8501,0.002928
34.335,54.8501,0.002928
34.351,54.8501,0.002928
34.366,54.8501,0.002928
34.382,54.8501,0.002928
34.399,54.8501,0.002928
34.415,54.8501,0.002928
34.430,54.8501,0.002928
34.449,54.8501,0.002928
34.471,54.8501,0.002928
34.501,54.8501,0.002928
34.532,54.8501,0.002928
34.548,54.8501,0.002928
34.565,54.8501,0.002928
34.594,54.8501,0.002928
34.624,54.8501,0.002928
34.656,54.8501,0.002862
34.686,54.8501,0.002862
34.703,54.8501,0.002862
34.718,54.8501,0.002862
34.734,54.8501,0.002862
34.756,54.8501,0.002862
34.779,54.8501,0.002862
34.798,54.8501,0.002862
34.829,54.8501,0.002862
34.846,54.8501,0.002862
34.861,54.8501,0.002862
34.877,54.8501,0.002862
34.893,54.8501,0.002862
34.910,54.8501,0.002862
34.925,54.8501,0.002833
34.941,54.8501,0.002833
34.957,54.8501,0.002833
34.973,54.8501,0.002833
34.989,54.8501,0.002833
35.005,54.8501,0.002833
35.021,54.8501,0.002833
35.037,54.8501,0.002833
35.053,54.8501,0.002833
35.069,54.8501,0.002833
35.085,54.8501,0.002833
35.101,54.8501,0.002833
35.117,54.8501,0.002833
35.133,54.8501,0.002833
35.150,54.8501,0.002833
35.165,54.8501,0.002824
35.181,54.8501,0.002824
35.197,54.8501,0.002824
35.214,54.8501,0.002824
35.229,54.8501,0.002824
35.246,54.8501,0.002824
35.261,54.8501,0.002824
35.277,54.8501,0.002824
35.293,54.8501,0.002824
35.309,54.8501,0.002824
35.326,54.8501,0.002824
35.341,54.8501,0.002824
35.357,54.8501,0.002824
35.381,54.8501,0.002824
35.397,54.8501,0.002824
35.413,54.8501,0.002880
35.429,54.8501,0.002880
35.451,54.8501,0.002880
35.474,54.8501,0.002880
35.493,54.8501,0.002880
35.512,54.8501,0.002880
35.527,54.8501,0.002880
35.551,54.8501,0.002880
35.567,54.8501,0.002880
35.597,54.8501,0.002880
35.613,54.8501,0.002880
35.644,54.8501,0.002880
35.675,54.8501,0.002899
35.706,54.8501,0.002899
35.721,54.8501,0.002899
35.737,54.8501,0.002899
35.768,54.8501,0.002899
35.798,54.8501,0.002899
35.829,54.8501,0.002899
35.845,54.8501,0.002899
35.861,54.8501,0.002899
35.878,54.8501,0.002899
35.905,54.8501,0.002899
35.925,54.8501,0.002880
35.943,54.8501,0.002880
35.959,54.8501,0.002880
35.982,54.8501,0.002880
36.014,54.8501,0.002880
36.044,54.8501,0.002880
36.078,54.8501,0.002880
36.106,54.8501,0.002880
36.122,54.8501,0.002880
36.138,54.8501,0.002880
36.169,54.8501,0.002928
36.204,54.8501,0.002928
36.230,54.8501,0.002928
36.248,54.8501,0.002928
36.278,54.8501,0.002928
36.311,54.8501,0.002928
36.339,54.8501,0.002928
36.357,54.8501,0.002928
36.374,54.8501,0.002928
36.402,54.8501,0.002928
36.421,54.8501,0.002928
36.437,54.8501,0.002928
36.453,54.8501,0.002928
36.468,54.8501,0.002928
36.485,54.8501,0.002928
36.501,54.8501,0.002928
36.526,54.8501,0.002928
36.542,54.8501,0.002928
36.557,54.8501,0.002928
36.574,54.8501,0.002928
36.604,54.8501,0.002928
36.619,54.8501,0.002928
36.635,54.8501,0.002928
36.650,54.8501,0.002928
36.681,54.8501,0.002918
36.697,54.8501,0.002918
36.727,54.8501,0.002918
36.759,54.8501,0.002918
36.788,54.8501,0.002918
36.805,54.8501,0.002918
36.820,54.8501,0.002918
36.836,54.8501,0.002918
36.852,54.8501,0.002918
36.871,54.8501,0.002918
36.896,54.8501,0.003003
36.917,54.8501,0.003003
36.933,54.8501,0.003003
36.949,54.8501,0.003003
36.965,54.8501,0.003003
36.988,54.8501,0.003003
37.004,54.8501,0.003003
37.020,54.8501,0.003003
37.037,54.8501,0.003003
37.053,54.8501,0.003003
37.084,54.8501,0.003003
37.100,54.8501,0.003003
37.117,54.8501,0.003003
37.133,54.8501,0.003003
37.149,54.8501,0.002993
37.165,54.8501,0.002993
37.185,54.8501,0.002993
37.209,54.8501,0.002993
37.228,54.8501,0.002993
37.244,54.8501,0.002993
37.260,54.8501,0.002993
37.276,54.8501,0.002993
37.292,54.8501,0.002993
37.308,54.8501,0.002993
37.324,54.8501,0.002993
37.340,54.8501,0.002993
37.356,54.8501,0.002993
37.372,54.8501,0.002993
37.388,54.8501,0.002918
37.404,54.8501,0.002918
37.421,54.8501,0.002918
37.437,54.8501,0.002918
37.452,54.8501,0.002918
37.470,54.8501,0.002918
37.501,54.8501,0.002918
37.517,54.8501,0.002918
37.545,54.8501,0.002918
37.562,54.8501,0.002918
37.593,54.8501,0.002918
37.611,54.8501,0.002918
37.640,54.8501,0.002899
37.657,54.8501,0.002899
37.674,54.8501,0.002899
37.689,54.8501,0.002899
37.705,54.8501,0.002899
37.721,54.8501,0.002899
37.740,54.8501,0.002899
37.765,54.8501,0.002899
37.785,54.8501,0.002899
37.801,54.8501,0.002899
37.818,54.8501,0.002899
37.834,54.8501,0.002899
37.849,54.8501,0.002899
37.866,54.8501,0.002899
37.882,54.8501,0.002899
37.898,54.8501,0.002880
37.913,54.8501,0.002880
37.930,54.8501,0.002880
37.945,54.8501,0.002880
37.961,54.8501,0.002880
37.977,54.8501,0.002880
37.993,54.8501,0.002880
38.009,54.8501,0.002880
38.025,54.8501,0.002880
38.042,54.8501,0.002880
38.059,54.8501,0.002880
38.075,54.8501,0.002880
38.106,54.8501,0.002880
38.122,54.8501,0.002880
38.137,54.8501,0.002749
38.153,54.8501,0.002749
38.170,54.8501,0.002749
38.185,54.8501,0.002749
38.201,54.8501,0.002749
38.218,54.8501,0.002749
38.234,54.8501,0.002749
38.249,54.8501,0.002749
38.265,54.8501,0.002749
38.281,54.8501,0.002749
38.297,54.8501,0.002749
38.314,54.8501,0.002749
38.329,54.8501,0.002749
38.346,54.8501,0.002749
38.361,54.8501,0.002749
38.378,54.8501,0.002749
38.401,54.8501,0.002607
38.416,54.8501,0.002607
38.447,54.8501,0.002607
38.478,54.8501,0.002607
38.509,54.8501,0.002607
38.540,54.8499,0.002607
38.570,54.8490,0.002607
38.589,54.8481,0.002607
38.616,54.8464,0.002607
38.645,54.8439,0.002607
38.661,54.8423,0.002607
38.677,54.8404,0.002579
38.693,54.8385,0.002579
38.712,54.8357,0.002579
38.740,54.8311,0.002579
38.757,54.8284,0.002579
38.775,54.8248,0.002579
38.802,54.8194,0.002579
38.821,54.8153,0.002579
38.837,54.8113,0.002579
38.853,54.8074,0.002579
38.869,54.8032,0.002579
38.886,54.7985,0.002579
38.901,54.7943,0.002579
38.918,54.7893,0.002579
38.933,54.7847,0.004500
38.949,54.7794,0.004500
38.965,54.7741,0.004500
38.981,54.7686,0.004500
38.997,54.7630,0.004500
39.013,54.7572,0.004500
39.029,54.7508,0.004500
39.045,54.7448,0.004500
39.061,54.7381,0.004500
39.077,54.7314,0.004500
39.093,54.7247,0.004500
39.109,54.7177,0.004500
39.125,54.7105,0.004500
39.142,54.7023,0.004500
39.157,54.6950,0.004500
39.173,54.6875,0.004500
39.203,54.6716,0.008839
39.220,54.6631,0.008839
39.236,54.6548,0.008839
39.252,54.6458,0.008839
39.268,54.6365,0.008839
39.284,54.6274,0.008839
39.300,54.6183,0.008839
39.316,54.6088,0.008839
39.337,54.5955,0.008839
39.359,54.5816,0.008839
39.380,54.5686,0.008839
39.396,54.5578,0.008839
39.412,54.5469,0.008839
39.428,54.5365,0.007681
39.444,54.5252,0.007681
39.460,54.5134,0.007681
39.476,54.5022,0.007681
39.492,54.4908,0.007681
39.508,54.4785,0.007681
39.524,54.4666,0.007681
39.540,54.4545,0.007681
39.555,54.4421,0.007681
39.572,54.4284,0.007681
39.593,54.4112,0.007681
39.625,54.3850,0.007681
39.655,54.3597,0.003699
39.671,54.3461,0.003699
39.702,54.3185,0.003699
39.717,54.3038,0.003699
39.741,54.2836,0.003699
39.757,54.2684,0.003699
39.772,54.2536,0.003699
39.789,54.2383,0.003699
39.805,54.2219,0.003699
39.821,54.2069,0.003699
39.836,54.1914,0.003699
39.852,54.1750,0.003699
39.868,54.1587,0.003699
39.885,54.1426,0.003238
39.901,54.1259,0.003238
39.917,54.1087,0.003238
39.933,54.0912,0.003238
39.949,54.0742,0.003238
39.964,54.0575,0.003238
39.983,54.0370,0.003238
40.010,54.0063,0.003238
40.028,53.9857,0.003238
40.047,53.9645,0.003238
40.071,53.9364,0.003238
40.087,53.9163,0.003238
40.108,53.8918,0.003238
40.125,53.8714,0.003238
40.140,53.8530,0.003200
40.156,53.8329,0.003200
40.174,53.8113,0.003200
40.195,53.7844,0.003200
40.225,53.7461,0.003200
40.240,53.7253,0.003200
40.271,53.6850,0.003200
40.292,53.6582,0.003200
40.308,53.6365,0.003200
40.324,53.6150,0.003200
40.339,53.5934,0.003200
40.356,53.5696,0.003200
40.375,53.5440,0.003200
40.394,53.5166,0.003200
40.426,53.4708,0.003351
40.442,53.4477,0.003351
40.472,53.4020,0.003351
40.492,53.3745,0.003351
40.518,53.3349,0.003351
40.534,53.3094,0.003351
40.550,53.2862,0.003351
40.580,53.2392,0.003351
40.599,53.2085,0.003351
40.627,53.1661,0.003351
40.643,53.1393,0.003521
40.660,53.1128,0.003521
40.676,53.0867,0.003521
40.691,53.0613,0.003521
40.707,53.0345,0.003521
40.724,53.0071,0.003521
40.739,52.9810,0.003521
40.756,52.9537,0.003521
40.771,52.9272,0.003521
40.787,52.8996,0.003521
40.804,52.8718,0.003521
40.819,52.8447,0.003521
40.844,52.8009,0.003521
40.874,52.7464,0.003521
40.890,52.7185,0.003662
40.907,52.6895,0.003662
40.922,52.6610,0.003662
40.938,52.6320,0.003662
40.955,52.6011,0.003662
40.970,52.5724,0.003662
40.987,52.5420,0.003662
41.002,52.5129,0.003662
41.018,52.4814,0.003662
41.034,52.4524,0.003662
41.050,52.4220,0.003662
41.066,52.3905,0.003662
41.082,52.3598,0.003662
41.099,52.3275,0.003662
41.114,52.2977,0.003662
41.130,52.2652,0.003662
41.147,52.2331,0.003662
41.162,52.2015,0.003812
41.178,52.1702,0.003812
41.194,52.1372,0.003812
41.211,52.1049,0.003812
41.226,52.0729,0.003812
41.242,52.0391,0.003812
41.258,52.0060,0.003812
41.274,51.9729,0.003812
41.290,51.9382,0.003812
41.306,51.9053,0.003812
41.322,51.8727,0.003812
41.338,51.8371,0.003812
41.354,51.8030,0.003812
41.383,51.7418,0.003812
41.399,51.7071,0.003812
41.415,51.6751,0.003982
41.431,51.6413,0.003982
41.449,51.6050,0.003982
41.479,51.5434,0.003982
41.495,51.5104,0.003982
41.511,51.4772,0.003982
41.527,51.4454,0.003982
41.543,51.4147,0.003982
41.559,51.3825,0.003982
41.575,51.3504,0.003982
41.591,51.3198,0.003982
41.607,51.2889,0.003982
41.623,51.2575,0.003982
41.639,51.2268,0.003982
41.655,51.1956,0.003982
41.671,51.1666,0.004095
41.687,51.1355,0.004095
41.703,51.1056,0.004095
41.719,51.0757,0.004095
41.735,51.0472,0.004095
41.751,51.0175,0.004095
41.767,50.9878,0.004095
41.783,50.9590,0.004095
41.799,50.9301,0.004095
41.815,50.9017,0.004095
41.831,50.8735,0.004095
41.847,50.8454,0.004095
41.863,50.8166,0.004095
41.879,50.7890,0.004095
41.896,50.7592,0.004095
41.912,50.7315,0.004095
41.941,50.6833,0.004217
41.957,50.6558,0.004217
41.973,50.6296,0.004217
41.990,50.6014,0.004217
42.005,50.5746,0.004217
42.021,50.5508,0.004217
42.037,50.5248,0.004217
42.053,50.4989,0.004217
42.071,50.4676,0.004217
42.097,50.4290,0.004217
42.117,50.3980,0.004217
42.135,50.3675,0.004217
42.159,50.3333,0.004217
42.190,50.2864,0.004424
42.206,50.2615,0.004424
42.236,50.2171,0.004424
42.253,50.1936,0.004424
42.269,50.1697,0.004424
42.300,50.1259,0.004424
42.330,50.0822,0.004424
42.345,50.0614,0.004424
42.361,50.0402,0.004424
42.392,49.9978,0.004424
42.423,49.9578,0.004669
42.453,49.9170,0.004669
42.469,49.8971,0.004669
42.496,49.8620,0.004669
42.512,49.8419,0.004669
42.528,49.8223,0.004669
42.544,49.8029,0.004669
42.564,49.7782,0.004669
42.591,49.7457,0.004669
42.608,49.7256,0.004669
42.624,49.7060,0.004669
42.640,49.6880,0.004669
42.656,49.6692,0.004942
42.672,49.6499,0.004942
42.688,49.6327,0.004942
42.704,49.6147,0.004942
42.720,49.5965,0.004942
42.736,49.5799,0.004942
42.753,49.5616,0.004942
42.768,49.5451,0.004942
42.783,49.5291,0.004942
42.800,49.5120,0.004942
42.816,49.4953,0.004942
42.831,49.4796,0.004942
42.848,49.4635,0.004942
42.864,49.4472,0.004942
42.880,49.4314,0.004942
42.895,49.4161,0.005102
42.912,49.4005,0.005102
42.928,49.3854,0.005102
42.943,49.3705,0.005102
42.960,49.3553,0.005102
42.976,49.3411,0.005102
42.992,49.3268,0.005102
43.008,49.3118,0.005102
43.024,49.2989,0.005102
43.052,49.2740,0.005102
43.068,49.2605,0.005102
43.084,49.2472,0.005102
43.101,49.2337,0.005102
43.118,49.2202,0.005102
43.147,49.1969,0.005309
43.164,49.1839,0.005309
43.180,49.1713,0.005309
43.197,49.1597,0.005309
43.212,49.1481,0.005309
43.229,49.1365,0.005309
43.245,49.1247,0.005309
43.260,49.1140,0.005309
43.277,49.1029,0.005309
43.292,49.0924,0.005309
43.309,49.0814,0.005309
43.326,49.0707,0.005309
43.341,49.0613,0.005309
43.356,49.0514,0.005309
43.373,49.0413,0.005309
43.389,49.0319,0.005309
43.404,49.0229,0.005516
43.421,49.0134,0.005516
43.437,49.0043,0.005516
43.452,48.9958,0.005516
43.468,48.9871,0.005516
43.485,48.9787,0.005516
43.500,48.9707,0.005516
43.516,48.9626,0.005516
43.533,48.9543,0.005516
43.549,48.9467,0.005516
43.564,48.9396,0.005516
43.581,48.9322,0.005516
43.611,48.9191,0.005516
43.627,48.9122,0.005516
43.643,48.9059,0.005573
43.659,48.8993,0.005573
43.675,48.8934,0.005573
43.691,48.8874,0.005573
43.706,48.8821,0.005573
43.723,48.8761,0.005573
43.741,48.8699,0.005573
43.767,48.8620,0.005573
43.787,48.8562,0.005573
43.803,48.8516,0.005573
43.818,48.8474,0.005573
43.834,48.8430,0.005573
43.850,48.8392,0.005573
43.867,48.8351,0.005573
43.883,48.8317,0.005573
43.899,48.8283,0.005657
43.914,48.8252,0.005657
43.930,48.8222,0.005657
43.946,48.8193,0.005657
43.962,48.8167,0.005657
43.978,48.8143,0.005657
43.994,48.8119,0.005657
44.010,48.8099,0.005657
44.026,48.8081,0.005657
44.042,48.8064,0.005657
44.059,48.8050,0.005657
44.075,48.8037,0.005657
44.090,48.8026,0.005657
44.107,48.8016,0.005657
44.122,48.8010,0.005657
44.138,48.8005,0.005657
44.169,48.8001,0.005704
44.186,48.8001,0.005704
44.201,48.8001,0.005704
44.217,48.8001,0.005704
44.234,48.8001,0.005704
44.251,48.8001,0.005704
44.279,48.8001,0.005704
44.298,48.8001,0.005704
44.313,48.8001,0.005704
44.329,48.8001,0.005704
44.345,48.8001,0.005704
44.362,48.8001,0.005704
44.377,48.8001,0.005704
44.393,48.8001,0.005761
44.409,48.8001,0.005761
44.425,48.8001,0.005761
44.441,48.8001,0.005761
44.457,48.8001,0.005761
44.474,48.8001,0.005761
44.490,48.8001,0.005761
44.505,48.8001,0.005761
44.521,48.8001,0.005761
44.537,48.8001,0.005761
44.553,48.8001,0.005761
44.569,48.8001,0.005761
44.585,48.8001,0.005761
44.602,48.8001,0.005761
44.618,48.8001,0.005761
44.633,48.8001,0.005817
44.649,48.8001,0.005817
44.673,48.8001,0.005817
44.695,48.8001,0.005817
44.713,48.8001,0.005817
44.729,48.8001,0.005817
44.745,48.8001,0.005817
44.761,48.8001,0.005817
44.777,48.8001,0.005817
44.793,48.8001,0.005817
44.809,48.8001,0.005817
44.825,48.8001,0.005817
44.841,48.8001,0.005817
44.857,48.8001,0.005817
44.873,48.8001,0.005817
44.889,48.8001,0.005836
44.905,48.8001,0.005836
44.922,48.8001,0.005836
44.943,48.8001,0.005836
44.959,48.8001,0.005836
44.989,48.8001,0.005836
45.021,48.8001,0.005836
45.038,48.8001,0.005836
45.068,48.8001,0.005836
45.099,48.8002,0.005836
45.130,48.8011,0.005836
45.145,48.8017,0.005817
45.162,48.8027,0.005817
45.192,48.8048,0.005817
45.223,48.8081,0.005817
45.239,48.8097,0.005817
45.255,48.8117,0.005817
45.271,48.8139,0.005817
45.287,48.8162,0.005817
45.303,48.8190,0.005817
45.319,48.8217,0.005817
45.335,48.8248,0.005817
45.351,48.8280,0.005817
45.367,48.8313,0.005817
45.383,48.8348,0.005817
45.399,48.8387,0.005629
45.415,48.8427,0.005629
45.431,48.8466,0.005629
45.447,48.8510,0.005629
45.464,48.8566,0.005629
45.487,48.8630,0.005629
45.503,48.8677,0.005629
45.534,48.8784,0.005629
45.565,48.8890,0.005629
45.580,48.8949,0.005629
45.596,48.9013,0.005629
45.612,48.9073,0.005629
45.642,48.9197,0.005629
45.672,48.9330,0.005554
45.688,48.9401,0.005554
45.704,48.9475,0.005554
45.719,48.9547,0.005554
45.734,48.9622,0.005554
45.762,48.9761,0.005554
45.778,48.9848,0.005554
45.795,48.9936,0.005554
45.825,49.0108,0.005554
45.841,49.0196,0.005554
45.857,49.0289,0.005554
45.873,49.0384,0.005554
45.890,49.0487,0.005554
45.906,49.0583,0.005554
45.922,49.0686,0.005544
45.937,49.0784,0.005544
45.955,49.0898,0.005544
45.980,49.1071,0.005544
46.001,49.1215,0.005544
46.017,49.1329,0.005544
46.034,49.1447,0.005544
46.049,49.1557,0.005544
46.066,49.1677,0.005544
46.082,49.1799,0.005544
46.097,49.1919,0.005544
46.113,49.2043,0.005544
46.129,49.2170,0.005544
46.145,49.2301,0.005544
46.161,49.2429,0.005469
46.177,49.2559,0.005469
46.193,49.2693,0.005469
46.210,49.2836,0.005469
46.225,49.2966,0.005469
46.241,49.3105,0.005469
46.258,49.3250,0.005469
46.274,49.3402,0.005469
46.289,49.3541,0.005469
46.321,49.3833,0.005469
46.338,49.3989,0.005469
46.368,49.4274,0.005469
46.384,49.4441,0.005469
46.400,49.4592,0.005469
46.415,49.4749,0.005356
46.431,49.4911,0.005356
46.452,49.5142,0.005356
46.475,49.5367,0.005356
46.495,49.5584,0.005356
46.512,49.5761,0.005356
46.527,49.5930,0.005356
46.544,49.6115,0.005356
46.559,49.6284,0.005356
46.576,49.6471,0.005356
46.592,49.6651,0.005356
46.607,49.6828,0.005356
46.623,49.7018,0.005356
46.640,49.7206,0.005356
46.655,49.7392,0.005187
46.671,49.7583,0.005187
46.687,49.7777,0.005187
46.704,49.7984,0.005187
46.719,49.8170,0.005187
46.735,49.8375,0.005187
46.751,49.8574,0.005187
46.767,49.8774,0.005187
46.784,49.8990,0.005187
46.799,49.9192,0.005187
46.816,49.9403,0.005187
46.831,49.9615,0.005187
46.848,49.9831,0.005187
46.874,50.0190,0.005187
46.891,50.0410,0.005187
46.906,50.0623,0.004989
46.923,50.0853,0.004989
46.938,50.1078,0.004989
46.954,50.1295,0.004989
46.970,50.1525,0.004989
46.986,50.1752,0.004989
47.010,50.2127,0.004989
47.033,50.2454,0.004989
47.050,50.2696,0.004989
47.067,50.2936,0.004989
47.082,50.3177,0.004989
47.098,50.3419,0.004989
47.114,50.3659,0.004989
47.135,50.3989,0.004989
47.150,50.4250,0.004989
47.173,50.4573,0.004989
47.204,50.5074,0.004744
47.234,50.5553,0.004744
47.264,50.6070,0.004744
47.280,50.6324,0.004744
47.295,50.6570,0.004744
47.327,50.7119,0.004744
47.357,50.7630,0.004744
47.388,50.8177,0.004744
47.403,50.8440,0.004744
47.432,50.8945,0.004547
47.448,50.9237,0.004547
47.464,50.9517,0.004547
47.481,50.9822,0.004547
47.497,51.0125,0.004547
47.512,51.0392,0.004547
47.528,51.0680,0.004547
47.544,51.0978,0.004547
47.560,51.1294,0.004547
47.576,51.1578,0.004547
47.592,51.1887,0.004547
47.608,51.2187,0.004547
47.624,51.2500,0.004547
47.640,51.2801,0.004547
47.657,51.3127,0.004368
47.672,51.3427,0.004368
47.688,51.3757,0.004368
47.704,51.4059,0.004368
47.720,51.4376,0.004368
47.736,51.4706,0.004368
47.752,51.5022,0.004368
47.768,51.5357,0.004368
47.784,51.5668,0.004368
47.800,51.6004,0.004368
47.817,51.6349,0.004368
47.832,51.6666,0.004368
47.848,51.6993,0.004368
47.864,51.7329,0.004368
47.880,51.7671,0.004368
47.896,51.8011,0.004132
47.912,51.8350,0.004132
47.928,51.8693,0.004132
47.944,51.9029,0.004132
47.960,51.9358,0.004132
47.976,51.9690,0.004132
47.997,52.0129,0.004132
48.013,52.0457,0.004132
48.029,52.0783,0.004132
48.045,52.1098,0.004132
48.061,52.1427,0.004132
48.077,52.1738,0.004132
48.093,52.2057,0.004132
48.109,52.2374,0.004132
48.125,52.2703,0.004132
48.141,52.3007,0.004001
48.156,52.3309,0.004001
48.173,52.3639,0.004001
48.196,52.4070,0.004001
48.225,52.4608,0.004001
48.255,52.5188,0.004001
48.286,52.5747,0.004001
48.317,52.6318,0.004001
48.333,52.6602,0.004001
48.349,52.6899,0.004001
48.366,52.7185,0.004001
48.393,52.7673,0.003935
48.413,52.8017,0.003935
48.429,52.8311,0.003935
48.445,52.8566,0.003935
48.461,52.8845,0.003935
48.478,52.9129,0.003935
48.494,52.9394,0.003935
48.509,52.9653,0.003935
48.525,52.9910,0.003935
48.548,53.0296,0.003935
48.564,53.0561,0.003935
48.579,53.0810,0.003935
48.596,53.1068,0.003935
48.617,53.1422,0.003935
48.642,53.1809,0.003935
48.659,53.2079,0.003935
48.675,53.2323,0.003794
48.692,53.2584,0.003794
48.707,53.2812,0.003794
48.724,53.3058,0.003794
48.740,53.3307,0.003794
48.756,53.3540,0.003794
48.772,53.3771,0.003794
48.787,53.4003,0.003794
48.804,53.4240,0.003794
48.820,53.4470,0.003794
48.835,53.4690,0.003794
48.851,53.4917,0.003794
48.867,53.5147,0.003794
48.883,53.5365,0.003605
48.899,53.5583,0.003605
48.915,53.5802,0.003605
48.931,53.6021,0.003605
48.948,53.6241,0.003605
48.963,53.6445,0.003605
48.979,53.6664,0.003605
48.995,53.6864,0.003605
49.011,53.7072,0.003605
49.028,53.7281,0.003605
49.046,53.7519,0.003605
49.073,53.7849,0.003605
49.104,53.8228,0.003605
49.120,53.8422,0.003605
49.135,53.8613,0.003379
49.151,53.8796,0.003379
49.170,53.9012,0.003379
49.196,53.9330,0.003379
49.215,53.9538,0.003379
49.231,53.9723,0.003379
49.247,53.9896,0.003379
49.264,54.0076,0.003379
49.279,54.0246,0.003379
49.297,54.0433,0.003379
49.319,54.0670,0.003379
49.335,54.0844,0.003379
49.351,54.1000,0.003379
49.381,54.1311,0.003379
49.411,54.1612,0.003219
49.427,54.1763,0.003219
49.442,54.1912,0.003219
49.473,54.2206,0.003219
49.488,54.2342,0.003219
49.504,54.2488,0.003219
49.519,54.2627,0.003219
49.542,54.2838,0.003219
49.565,54.3037,0.003219
49.584,54.3193,0.003219
49.600,54.3334,0.003219
49.616,54.3462,0.003219
49.631,54.3591,0.003219
49.654,54.3778,0.003116
49.670,54.3902,0.003116
49.686,54.4033,0.003116
49.702,54.4154,0.003116
49.718,54.4273,0.003116
49.735,54.4400,0.003116
49.751,54.4512,0.003116
49.766,54.4630,0.003116
49.783,54.4744,0.003116
49.813,54.4948,0.003116
49.830,54.5066,0.003116
49.847,54.5176,0.003116
49.862,54.5275,0.003116
49.879,54.5381,0.003116
49.894,54.5480,0.003059
49.911,54.5582,0.003059
49.926,54.5672,0.003059
49.942,54.5768,0.003059
49.963,54.5885,0.003059
49.981,54.5988,0.003059
49.997,54.6073,0.003059
50.027,54.6233,0.003059
50.058,54.6388,0.003059
50.073,54.6462,0.003059
50.105,54.6613,0.003059
50.121,54.6683,0.003059
50.152,54.6822,0.003059
50.183,54.6945,0.002956
50.206,54.7040,0.002956
50.232,54.7136,0.002956
50.260,54.7234,0.002956
50.278,54.7294,0.002956
50.294,54.7344,0.002956
50.310,54.7392,0.002956
50.326,54.7442,0.002956
50.342,54.7487,0.002956
50.358,54.7531,0.002956
50.375,54.7575,0.002956
50.390,54.7612,0.002956
50.406,54.7652,0.002956
50.422,54.7685,0.002579
50.438,54.7720,0.002579
50.455,54.7753,0.002579
50.470,54.7782,0.002579
50.486,54.7810,0.002579
50.502,54.7836,0.002579
50.518,54.7861,0.002579
50.534,54.7883,0.002579
50.550,54.7903,0.002579
50.567,54.7923,0.002579
50.582,54.7938,0.002579
50.598,54.7953,0.002579
50.614,54.7967,0.002579
50.630,54.7976,0.002579
50.646,54.7985,0.002579
50.662,54.7993,0.001986
50.678,54.7998,0.001986
50.694,54.8000,0.001986
50.718,54.8001,0.001986
50.734,54.8001,0.001986
50.750,54.8001,0.001986
50.766,54.8001,0.001986
50.782,54.8001,0.001986
50.798,54.8001,0.001986
50.814,54.8001,0.001986
50.830,54.8001,0.001986
50.846,54.8001,0.001986
50.862,54.8001,0.001986
50.878,54.8001,0.001986
50.903,54.8001,0.001986
50.925,54.8001,0.001986
50.942,54.8001,0.001920
50.958,54.8001,0.001920
50.974,54.8001,0.001920
50.990,54.8001,0.001920
51.006,54.8001,0.001920
51.022,54.8001,0.001920
51.038,54.8001,0.001920
51.054,54.8001,0.001920
51.070,54.8001,0.001920
51.086,54.8001,0.001920
51.102,54.8001,0.001920
51.118,54.8001,0.001920
51.134,54.8001,0.001920
51.151,54.8001,0.001920
51.172,54.8001,0.001920
51.202,54.8001,0.002353
51.218,54.8001,0.002353
51.249,54.8001,0.002353
51.265,54.8001,0.002353
51.280,54.8001,0.002353
51.311,54.8001,0.002353
51.329,54.8001,0.002353
51.357,54.8001,0.002353
51.375,54.8001,0.002353
51.391,54.8001,0.002353
51.406,54.8001,0.002353
51.422,54.8001,0.002664
51.438,54.8001,0.002664
51.455,54.8001,0.002664
51.470,54.8001,0.002664
51.486,54.8001,0.002664
51.502,54.8001,0.002664
51.519,54.8001,0.002664
51.542,54.8001,0.002664
51.572,54.8001,0.002664
51.603,54.8001,0.002664
51.619,54.8001,0.002664
51.650,54.8001,0.002664
51.681,54.8001,0.002796
51.697,54.8001,0.002796
51.728,54.8001,0.002796
51.744,54.8001,0.002796
51.775,54.8001,0.002796
51.791,54.8001,0.002796
51.820,54.8001,0.002796
51.836,54.8001,0.002796
51.851,54.8001,0.002796
51.867,54.8001,0.002796
51.891,54.8001,0.002796
51.914,54.8001,0.002796
51.932,54.8001,0.002815
51.947,54.8001,0.002815
51.963,54.8001,0.002815
51.979,54.8001,0.002815
51.995,54.8001,0.002815
52.013,54.8001,0.002815
52.038,54.8001,0.002815
52.069,54.8001,0.002815
52.101,54.8001,0.002815
52.116,54.8001,0.002815
52.132,54.8001,0.002815
52.148,54.8001,0.002815
52.179,54.8001,0.002909
52.209,54.8001,0.002909
52.224,54.8001,0.002909
52.240,54.8001,0.002909
52.256,54.8001,0.002909
52.271,54.8001,0.002909
52.288,54.8001,0.002909
52.318,54.8001,0.002909
52.348,54.8001,0.002909
52.378,54.8001,0.002909
52.394,54.8001,0.002909
52.410,54.8001,0.002937
52.426,54.8001,0.002937
52.442,54.8001,0.002937
52.458,54.8001,0.002937
52.474,54.8001,0.002937
52.491,54.8001,0.002937
52.508,54.8001,0.002937
52.523,54.8001,0.002937
52.538,54.8001,0.002937
52.555,54.8001,0.002937
52.577,54.8001,0.002937
52.601,54.8001,0.002937
52.618,54.8001,0.002937
52.635,54.8001,0.002937
52.659,54.8001,0.002937
52.674,54.8001,0.002937
52.690,54.8001,0.002937
52.720,54.8001,0.002937
52.750,54.8001,0.002937
52.766,54.8001,0.002937
52.796,54.8001,0.002937
52.812,54.8001,0.002937
52.844,54.8001,0.002937
52.860,54.8001,0.002937
52.890,54.8001,0.002937
52.906,54.8001,0.002937
52.936,54.8001,0.002946
52.952,54.8001,0.002946
52.968,54.8001,0.002946
52.984,54.8001,0.002946
53.001,54.8001,0.002946
53.017,54.8001,0.002946
53.033,54.8001,0.002946
53.048,54.8001,0.002946
53.068,54.8001,0.002946
53.091,54.8001,0.002946
53.112,54.8001,0.002946
53.129,54.8001,0.002946
53.144,54.8001,0.002946
53.160,54.8001,0.002928
53.176,54.8001,0.002928
53.192,54.8001,0.002928
53.208,54.8001,0.002928
53.224,54.8001,0.002928
53.240,54.8001,0.002928
53.256,54.8001,0.002928
53.273,54.8001,0.002928
53.288,54.8001,0.002928
53.305,54.8001,0.002928
53.320,54.8001,0.002928
53.336,54.8001,0.002928
53.352,54.8001,0.002928
53.368,54.8001,0.002928
53.384,54.8001,0.002928
53.400,54.8001,0.002946
53.416,54.8001,0.002946
53.433,54.8001,0.002946
53.463,54.8001,0.002946
53.492,54.8001,0.002946
53.508,54.8001,0.002946
53.525,54.8001,0.002946
53.540,54.8001,0.002946
53.556,54.8001,0.002946
53.572,54.8001,0.002946
53.588,54.8001,0.002946
53.605,54.8001,0.002946
53.620,54.8001,0.002946
53.636,54.8001,0.002946
53.652,54.8001,0.002937
53.668,54.8001,0.002937
53.684,54.8001,0.002937
53.700,54.8001,0.002937
53.716,54.8001,0.002937
53.732,54.8001,0.002937
53.749,54.8001,0.002937
53.773,54.8001,0.002937
53.803,54.8001,0.002937
53.820,54.8001,0.002937
53.850,54.8001,0.002937
53.866,54.8001,0.002937
53.897,54.8001,0.002928
53.912,54.8001,0.002928
53.928,54.8001,0.002928
53.946,54.8001,0.002928
53.975,54.8001,0.002928
53.991,54.8001,0.002928
54.007,54.8001,0.002928
54.022,54.8001,0.002928
54.053,54.8001,0.002928
54.068,54.8001,0.002928
54.084,54.8001,0.002928
54.100,54.8001,0.002928
54.116,54.8001,0.002928
54.133,54.8001,0.002928
54.161,54.8001,0.002965
54.181,54.8001,0.002965
54.196,54.8001,0.002965
54.212,54.8001,0.002965
54.228,54.8001,0.002965
54.244,54.8001,0.002965
54.260,54.8001,0.002965
54.276,54.8001,0.002965
54.293,54.8001,0.002965
54.308,54.8001,0.002965
54.324,54.8001,0.002965
54.340,54.8001,0.002965
54.356,54.8001,0.002965
54.372,54.8001,0.002965
54.388,54.8001,0.002984
54.404,54.8001,0.002984
54.420,54.8001,0.002984
54.436,54.8001,0.002984
54.452,54.8001,0.002984
54.468,54.8001,0.002984
54.484,54.8001,0.002984
54.500,54.8001,0.002984
54.516,54.8001,0.002984
54.532,54.8001,0.002984
54.549,54.8001,0.002984
54.579,54.8001,0.002984
54.609,54.8001,0.002984
54.625,54.8001,0.002984
54.641,54.8001,0.002880
54.657,54.8001,0.002880
54.672,54.8001,0.002880
54.689,54.8001,0.002880
54.705,54.8001,0.002880
54.721,54.8001,0.002880
54.738,54.8001,0.002880
54.753,54.8001,0.002880
54.768,54.8001,0.002880
54.785,54.8001,0.002880
54.804,54.8001,0.002880
54.819,54.8001,0.002880
54.842,54.8001,0.002880
54.872,54.8001,0.002880
54.903,54.8001,0.002777
54.919,54.8001,0.002777
54.934,54.8001,0.002777
54.965,54.8001,0.002777
54.996,54.8001,0.002777
55.027,54.8001,0.002777
55.058,54.8001,0.002777
55.073,54.8001,0.002777
55.089,54.8001,0.002777
55.106,54.8001,0.002777
55.121,54.8001,0.002777
55.136,54.8001,0.002626
55.152,54.8001,0.002626
55.168,54.8001,0.002626
55.184,54.8001,0.002626
55.201,54.8001,0.002626
55.216,54.8001,0.002626
55.235,54.7999,0.002626
55.260,54.7993,0.002626
55.281,54.7984,0.002626
55.297,54.7974,0.002626
55.313,54.7963,0.002626
55.329,54.7950,0.002626
55.345,54.7936,0.002626
55.360,54.7919,0.002626
55.377,54.7898,0.002626
55.393,54.7878,0.002579
55.408,54.7857,0.002579
55.425,54.7831,0.002579
55.440,54.7807,0.002579
55.456,54.7778,0.002579
55.473,54.7745,0.002579
55.494,54.7702,0.002579
55.524,54.7635,0.002579
55.540,54.7596,0.002579
55.555,54.7556,0.002579
55.571,54.7516,0.002579
55.586,54.7474,0.002579
55.602,54.7428,0.002579
55.618,54.7376,0.002579
55.633,54.7333,0.002579
55.664,54.7230,0.004923
55.681,54.7173,0.004923
55.696,54.7117,0.004923
55.724,54.7013,0.004923
55.740,54.6950,0.004923
55.757,54.6880,0.004923
55.772,54.6817,0.004923
55.788,54.6749,0.004923
55.805,54.6674,0.004923
55.833,54.6545,0.004923
55.853,54.6450,0.004923
55.869,54.6375,0.004923
55.885,54.6295,0.009131
55.900,54.6214,0.009131
55.917,54.6126,0.009131
55.932,54.6043,0.009131
55.948,54.5952,0.009131
55.964,54.5866,0.009131
55.981,54.5768,0.009131
55.997,54.5677,0.009131
56.012,54.5584,0.009131
56.028,54.5485,0.009131
56.044,54.5384,0.009131
56.061,54.5281,0.009131
56.076,54.5182,0.009131
56.092,54.5074,0.009131
56.108,54.4968,0.009131
56.124,54.4859,0.009131
56.140,54.4748,0.007295
56.157,54.4633,0.007295
56.172,54.4517,0.007295
56.188,54.4403,0.007295
56.207,54.4259,0.007295
56.236,54.4042,0.007295
56.252,54.3912,0.007295
56.269,54.3784,0.007295
56.284,54.3660,0.007295
56.301,54.3527,0.007295
56.316,54.3398,0.007295
56.332,54.3257,0.007295
56.348,54.3127,0.007295
56.365,54.2983,0.007295
56.380,54.2847,0.007295
56.397,54.2701,0.007295
56.412,54.2555,0.007295
56.428,54.2414,0.003445
56.444,54.2263,0.003445
56.460,54.2113,0.003445
56.476,54.1959,0.003445
56.492,54.1811,0.003445
56.508,54.1650,0.003445
56.526,54.1480,0.003445
56.544,54.1292,0.003445
56.559,54.1139,0.003445
56.590,54.0827,0.003445
56.605,54.0662,0.003445
56.636,54.0342,0.003445
56.653,54.0148,0.003445
56.683,53.9828,0.003379
56.700,53.9633,0.003379
56.716,53.9449,0.003379
56.732,53.9269,0.003379
56.748,53.9085,0.003379
56.766,53.8858,0.003379
56.792,53.8568,0.003379
56.812,53.8321,0.003379
56.828,53.8130,0.003379
56.844,53.7934,0.003379
56.860,53.7725,0.003379
56.876,53.7536,0.003379
56.892,53.7334,0.003379
56.909,53.7118,0.003379
56.931,53.6829,0.003379
56.946,53.6630,0.003379
56.976,53.6228,0.003379
57.007,53.5817,0.003379
57.023,53.5593,0.003379
57.055,53.5167,0.003379
57.085,53.4725,0.003379
57.116,53.4298,0.003379
57.135,53.4013,0.003379
57.162,53.3613,0.003389
57.180,53.3353,0.003389
57.196,53.3118,0.003389
57.212,53.2880,0.003389
57.228,53.2629,0.003389
57.244,53.2387,0.003389
57.260,53.2137,0.003389
57.276,53.1893,0.003389
57.293,53.1630,0.003389
57.309,53.1377,0.003389
57.338,53.0900,0.003389
57.354,53.0653,0.003389
57.370,53.0394,0.003389
57.386,53.0134,0.003389
57.402,52.9863,0.003389
57.418,52.9589,0.003521
57.440,52.9228,0.003521
57.456,52.8950,0.003521
57.487,52.8440,0.003521
57.502,52.8171,0.003521
57.518,52.7877,0.003521
57.549,52.7350,0.003521
57.564,52.7075,0.003521
57.580,52.6790,0.003521
57.611,52.6246,0.003521
57.627,52.5939,0.003521
57.642,52.5667,0.003521
57.658,52.5368,0.003681
57.674,52.5084,0.003681
57.691,52.4753,0.003681
57.706,52.4475,0.003681
57.722,52.4174,0.003681
57.738,52.3877,0.003681
57.756,52.3528,0.003681
57.780,52.3061,0.003681
57.795,52.2756,0.003681
57.811,52.2450,0.003681
57.843,52.1832,0.003681
57.873,52.1207,0.003681
57.905,52.0580,0.003869
57.935,51.9963,0.003869
57.950,51.9638,0.003869
57.966,51.9321,0.003869
57.982,51.8979,0.003869
58.013,51.8332,0.003869
58.043,51.7687,0.003869
58.058,51.7365,0.003869
58.074,51.7030,0.003869
58.090,51.6689,0.003869
58.114,51.6193,0.003869
58.138,51.5691,0.003869
58.154,51.5367,0.003869
58.170,51.5036,0.004048
58.186,51.4696,0.004048
58.202,51.4390,0.004048
58.218,51.4060,0.004048
58.234,51.3736,0.004048
58.253,51.3362,0.004048
58.276,51.2893,0.004048
58.297,51.2496,0.004048
58.314,51.2155,0.004048
58.330,51.1876,0.004048
58.346,51.1546,0.004048
58.362,51.1253,0.004048
58.377,51.0968,0.004048
58.401,51.0510,0.004170
58.431,50.9961,0.004170
58.449,50.9641,0.004170
58.465,50.9330,0.004170
58.480,50.9063,0.004170
58.496,50.8771,0.004170
58.512,50.8490,0.004170
58.531,50.8143,0.004170
58.546,50.7864,0.004170
58.568,50.7505,0.004170
58.599,50.6964,0.004170
58.630,50.6455,0.004170
58.660,50.5934,0.004170
58.690,50.5443,0.004339
58.721,50.4923,0.004339
58.736,50.4689,0.004339
58.753,50.4422,0.004339
58.771,50.4135,0.004339
58.799,50.3688,0.004339
58.817,50.3409,0.004339
58.833,50.3163,0.004339
58.849,50.2924,0.004339
58.865,50.2682,0.004339
58.880,50.2444,0.004339
58.897,50.2188,0.004339
58.913,50.1964,0.004339
58.928,50.1733,0.004339
58.957,50.1309,0.004556
58.974,50.1071,0.004556
58.989,50.0846,0.004556
59.005,50.0623,0.004556
59.021,50.0390,0.004556
59.037,50.0174,0.004556
59.054,49.9946,0.004556
59.069,49.9738,0.004556
59.086,49.9516,0.004556
59.101,49.9306,0.004556
59.118,49.9089,0.004556
59.133,49.8884,0.004556
59.157,49.8572,0.004556
59.186,49.8197,0.004810
59.216,49.7811,0.004810
59.247,49.7434,0.004810
59.278,49.7055,0.004810
59.294,49.6865,0.004810
59.309,49.6688,0.004810
59.326,49.6489,0.004810
59.341,49.6308,0.004810
59.357,49.6133,0.004810
59.374,49.5936,0.004810
59.389,49.5770,0.004810
59.406,49.5583,0.004810
59.421,49.5415,0.004998
59.437,49.5238,0.004998
59.453,49.5066,0.004998
59.470,49.4893,0.004998
59.485,49.4726,0.004998
59.512,49.4449,0.004998
59.543,49.4138,0.004998
59.559,49.3975,0.004998
59.577,49.3796,0.004998
59.607,49.3518,0.004998
59.623,49.3359,0.004998
59.639,49.3200,0.004998
59.655,49.3059,0.004998
59.671,49.2915,0.005196
59.692,49.2725,0.005196
59.716,49.2508,0.005196
59.735,49.2343,0.005196
59.751,49.2217,0.005196
59.768,49.2074,0.005196
59.792,49.1868,0.005196
59.823,49.1621,0.005196
59.854,49.1381,0.005196
59.869,49.1269,0.005196
59.885,49.1148,0.005196
59.901,49.1036,0.005196
59.916,49.0919,0.005196
59.947,49.0707,0.005413
59.978,49.0493,0.005413
60.008,49.0296,0.005413
60.024,49.0194,0.005413
60.040,49.0093,0.005413
60.069,48.9912,0.005413
60.085,48.9816,0.005413
60.101,48.9723,0.005413
60.117,48.9632,0.005413
60.134,48.9535,0.005413
60.149,48.9452,0.005413
60.165,48.9368,0.005601
60.181,48.9284,0.005601
60.197,48.9198,0.005601
60.213,48.9120,0.005601
60.230,48.9038,0.005601
60.245,48.8965,0.005601
60.262,48.8887,0.005601
60.278,48.8814,0.005601
60.301,48.8717,0.005601
60.332,48.8583,0.005601
60.347,48.8523,0.005601
60.378,48.8407,0.005601
60.394,48.8346,0.005601
60.424,48.8242,0.005704
60.454,48.8143,0.005704
60.485,48.8055,0.005704
60.501,48.8006,0.005704
60.517,48.7964,0.005704
60.533,48.7923,0.005704
60.549,48.7885,0.005704
60.565,48.7845,0.005704
60.581,48.7810,0.005704
60.597,48.7777,0.005704
60.623,48.7726,0.005704
60.639,48.7697,0.005704
60.655,48.7670,0.005714
60.671,48.7647,0.005714
60.688,48.7622,0.005714
60.703,48.7603,0.005714
60.719,48.7583,0.005714
60.735,48.7566,0.005714
60.752,48.7551,0.005714
60.767,48.7537,0.005714
60.783,48.7527,0.005714
60.799,48.7518,0.005714
60.815,48.7510,0.005714
60.831,48.7505,0.005714
60.847,48.7501,0.005714
60.862,48.7500,0.005714
60.885,48.7500,0.005714
60.905,48.7500,0.005714
60.927,48.7500,0.005723
60.943,48.7500,0.005723
60.959,48.7500,0.005723
60.975,48.7500,0.005723
60.991,48.7501,0.005723
61.007,48.7504,0.005723
61.022,48.7508,0.005723
61.039,48.7514,0.005723
61.054,48.7522,0.005723
61.071,48.7532,0.005723
61.086,48.7545,0.005723
61.103,48.7558,0.005723
61.119,48.7576,0.005723
61.134,48.7593,0.005723
61.152,48.7614,0.005723
61.167,48.7634,0.005723
61.183,48.7659,0.005742
61.199,48.7685,0.005742
61.215,48.7713,0.005742
61.231,48.7742,0.005742
61.253,48.7787,0.005742
61.276,48.7838,0.005742
61.294,48.7880,0.005742
61.311,48.7921,0.005742
61.326,48.7960,0.005742
61.342,48.8004,0.005742
61.359,48.8050,0.005742
61.376,48.8102,0.005742
61.398,48.8170,0.005742
61.429,48.8273,0.005667
61.446,48.8331,0.005667
61.476,48.8442,0.005667
61.507,48.8562,0.005667
61.538,48.8690,0.005667
61.568,48.8820,0.005667
61.583,48.8890,0.005667
61.598,48.8957,0.005667
61.614,48.9034,0.005667
61.630,48.9115,0.005667
61.646,48.9192,0.005582
61.662,48.9274,0.005582
61.680,48.9374,0.005582
61.706,48.9508,0.005582
61.726,48.9620,0.005582
61.742,48.9713,0.005582
61.759,48.9811,0.005582
61.774,48.9901,0.005582
61.790,48.9998,0.005582
61.807,49.0105,0.005582
61.829,49.0242,0.005582
61.845,49.0345,0.005582
61.876,49.0557,0.005582
61.907,49.0768,0.005582
61.938,49.0989,0.005582
61.968,49.1207,0.005582
61.983,49.1328,0.005582
61.998,49.1442,0.005582
62.014,49.1564,0.005582
62.030,49.1692,0.005582
62.047,49.1827,0.005582
62.063,49.1954,0.005582
62.079,49.2092,0.005582
62.094,49.2219,0.005582
62.111,49.2357,0.005582
62.127,49.2497,0.005582
62.142,49.2631,0.005507
62.159,49.2777,0.005507
62.175,49.2925,0.005507
62.197,49.3126,0.005507
62.227,49.3412,0.005507
62.252,49.3648,0.005507
62.274,49.3861,0.005507
62.304,49.4158,0.005507
62.335,49.4478,0.005507
62.366,49.4788,0.005507
62.396,49.5110,0.005384
62.419,49.5366,0.005384
62.435,49.5534,0.005384
62.457,49.5781,0.005384
62.475,49.5985,0.005384
62.491,49.6164,0.005384
62.507,49.6358,0.005384
62.523,49.6546,0.005384
62.543,49.6785,0.005384
62.566,49.7052,0.005384
62.587,49.7299,0.005384
62.603,49.7498,0.005384
62.619,49.7695,0.005384
62.635,49.7893,0.005196
62.652,49.8110,0.005196
62.668,49.8304,0.005196
62.683,49.8502,0.005196
62.699,49.8712,0.005196
62.719,49.8977,0.005196
62.737,49.9219,0.005196
62.753,49.9434,0.005196
62.775,49.9723,0.005196
62.791,49.9942,0.005196
62.807,50.0164,0.005196
62.823,50.0390,0.005196
62.840,50.0622,0.005196
62.856,50.0843,0.005196
62.871,50.1062,0.005196
62.887,50.1300,0.005196
62.903,50.1525,0.005196
62.919,50.1773,0.004980
62.935,50.1995,0.004980
62.951,50.2232,0.004980
62.967,50.2482,0.004980
62.983,50.2718,0.004980
62.999,50.2958,0.004980
63.018,50.3252,0.004980
63.044,50.3665,0.004980
63.063,50.3953,0.004980
63.079,50.4205,0.004980
63.095,50.4467,0.004980
63.111,50.4727,0.004980
63.127,50.4978,0.004980
63.144,50.5262,0.004980
63.159,50.5508,0.004980
63.175,50.5781,0.004735
63.191,50.6040,0.004735
63.207,50.6310,0.004735
63.223,50.6584,0.004735
63.239,50.6845,0.004735
63.255,50.7123,0.004735
63.271,50.7413,0.004735
63.287,50.7679,0.004735
63.303,50.7955,0.004735
63.324,50.8332,0.004735
63.340,50.8630,0.004735
63.356,50.8904,0.004735
63.373,50.9217,0.004735
63.388,50.9492,0.004735
63.404,50.9770,0.004735
63.420,51.0079,0.004509
63.436,51.0373,0.004509
63.452,51.0673,0.004509
63.469,51.0978,0.004509
63.484,51.1274,0.004509
63.500,51.1573,0.004509
63.517,51.1907,0.004509
63.532,51.2188,0.004509
63.548,51.2492,0.004509
63.564,51.2808,0.004509
63.580,51.3121,0.004509
63.596,51.3447,0.004509
63.612,51.3752,0.004509
63.629,51.4098,0.004509
63.652,51.4568,0.004509
63.678,51.5109,0.004321
63.709,51.5740,0.004321
63.724,51.6042,0.004321
63.740,51.6375,0.004321
63.756,51.6723,0.004321
63.779,51.7206,0.004321
63.802,51.7700,0.004321
63.823,51.8131,0.004321
63.849,51.8701,0.004321
63.881,51.9339,0.004321
63.897,51.9673,0.004321
63.912,51.9993,0.004123
63.929,52.0312,0.004123
63.944,52.0638,0.004123
63.960,52.0958,0.004123
63.977,52.1283,0.004123
63.992,52.1595,0.004123
64.010,52.1943,0.004123
64.034,52.2418,0.004123
64.065,52.3007,0.004123
64.080,52.3318,0.004123
64.111,52.3886,0.004123
64.141,52.4465,0.004123
64.157,52.4747,0.003944
64.173,52.5048,0.003944
64.190,52.5366,0.003944
64.221,52.5919,0.003944
64.251,52.6471,0.003944
64.282,52.7025,0.003944
64.298,52.7299,0.003944
64.314,52.7583,0.003944
64.345,52.8114,0.003944
64.360,52.8368,0.003944
64.377,52.8649,0.003944
64.392,52.8908,0.003944
64.408,52.9175,0.003944
64.437,52.9647,0.003831
64.452,52.9909,0.003831
64.468,53.0170,0.003831
64.484,53.0422,0.003831
64.501,53.0693,0.003831
64.516,53.0928,0.003831
64.532,53.1185,0.003831
64.548,53.1433,0.003831
64.565,53.1695,0.003831
64.581,53.1935,0.003831
64.597,53.2181,0.003831
64.612,53.2414,0.003831
64.629,53.2663,0.003831
64.644,53.2894,0.003831
64.660,53.3131,0.003746
64.676,53.3369,0.003746
64.694,53.3621,0.003746
64.715,53.3923,0.003746
64.746,53.4364,0.003746
64.776,53.4784,0.003746
64.791,53.4994,0.003746
64.807,53.5216,0.003746
64.837,53.5626,0.003746
64.852,53.5828,0.003746
64.869,53.6045,0.003746
64.885,53.6249,0.003746
64.900,53.6455,0.003511
64.916,53.6657,0.003511
64.938,53.6947,0.003511
64.963,53.7260,0.003511
64.980,53.7468,0.003511
65.008,53.7803,0.003511
65.026,53.8026,0.003511
65.042,53.8208,0.003511
65.058,53.8402,0.003511
65.075,53.8599,0.003511
65.090,53.8773,0.003511
65.107,53.8961,0.003511
65.122,53.9135,0.003511
65.138,53.9321,0.003511
65.155,53.9503,0.003511
65.170,53.9669,0.003342
65.186,53.9844,0.003342
65.202,54.0020,0.003342
65.218,54.0182,0.003342
65.234,54.0347,0.003342
65.250,54.0518,0.003342
65.266,54.0681,0.003342
65.282,54.0844,0.003342
65.298,54.1003,0.003342
65.314,54.1159,0.003342
65.330,54.1313,0.003342
65.346,54.1469,0.003342
65.362,54.1617,0.003342
65.378,54.1768,0.003342
65.394,54.1918,0.003342
65.410,54.2061,0.003238
65.426,54.2207,0.003238
65.442,54.2358,0.003238
65.458,54.2491,0.003238
65.474,54.2627,0.003238
65.500,54.2851,0.003238
65.516,54.2981,0.003238
65.532,54.3116,0.003238
65.548,54.3241,0.003238
65.567,54.3390,0.003238
65.596,54.3620,0.003238
65.612,54.3740,0.003238
65.628,54.3860,0.003238
65.644,54.3978,0.003238
65.660,54.4093,0.003135
65.676,54.4206,0.003135
65.693,54.4328,0.003135
65.720,54.4512,0.003135
65.740,54.4645,0.003135
65.756,54.4751,0.003135
65.772,54.4852,0.003135
65.788,54.4954,0.003135
65.804,54.5047,0.003135
65.820,54.5151,0.003135
65.836,54.5242,0.003135
65.852,54.5331,0.003135
65.868,54.5423,0.003135
65.884,54.5516,0.003135
65.900,54.5601,0.003088
65.916,54.5683,0.003088
65.932,54.5768,0.003088
65.947,54.5847,0.003088
65.964,54.5928,0.003088
65.981,54.6007,0.003088
65.996,54.6078,0.003088
66.012,54.6151,0.003088
66.029,54.6227,0.003088
66.059,54.6357,0.003088
66.075,54.6424,0.003088
66.091,54.6487,0.003088
66.107,54.6546,0.003088
66.122,54.6606,0.003088
66.139,54.6664,0.003088
66.155,54.6720,0.002890
66.171,54.6778,0.002890
66.192,54.6845,0.002890
66.215,54.6915,0.002890
66.235,54.6974,0.002890
66.251,54.7017,0.002890
66.268,54.7060,0.002890
66.283,54.7098,0.002890
66.299,54.7137,0.002890
66.315,54.7173,0.002890
66.331,54.7209,0.002890
66.347,54.7240,0.002890
66.363,54.7272,0.002890
66.379,54.7301,0.002890
66.395,54.7327,0.002372
66.411,54.7353,0.002372
66.427,54.7375,0.002372
66.443,54.7396,0.002372
66.459,54.7415,0.002372
66.475,54.7432,0.002372
66.490,54.7447,0.002372
66.507,54.7461,0.002372
66.523,54.7473,0.002372
66.539,54.7482,0.002372
66.557,54.7490,0.002372
66.587,54.7499,0.002372
66.615,54.7500,0.002372
66.631,54.7500,0.002372
66.646,54.7500,0.001920
66.663,54.7500,0.001920
66.679,54.7500,0.001920
66.695,54.7500,0.001920
66.711,54.7500,0.001920
66.742,54.7500,0.001920
66.763,54.7500,0.001920
66.789,54.7500,0.001920
66.807,54.7500,0.001920
66.822,54.7500,0.001920
66.838,54.7500,0.001920
66.854,54.7500,0.001920
66.873,54.7500,0.001920
66.896,54.7500,0.002033
66.918,54.7500,0.002033
66.935,54.7500,0.002033
66.951,54.7500,0.002033
66.966,54.7500,0.002033
66.983,54.7500,0.002033
66.999,54.7500,0.002033
67.014,54.7500,0.002033
67.030,54.7500,0.002033
67.046,54.7500,0.002033
67.062,54.7500,0.002033
67.078,54.7500,0.002033
67.095,54.7500,0.002033
67.111,54.7500,0.002033
67.141,54.7500,0.002033
67.157,54.7500,0.002033
67.174,54.7500,0.002457
67.191,54.7500,0.002457
67.206,54.7500,0.002457
67.221,54.7500,0.002457
67.238,54.7500,0.002457
67.254,54.7500,0.002457
67.269,54.7500,0.002457
67.285,54.7500,0.002457
67.307,54.7500,0.002457
67.332,54.7500,0.002457
67.350,54.7500,0.002457
67.365,54.7500,0.002457
67.382,54.7500,0.002457
67.397,54.7500,0.002702
67.413,54.7500,0.002702
67.429,54.7500,0.002702
67.446,54.7500,0.002702
67.468,54.7500,0.002702
67.484,54.7500,0.002702
67.499,54.7500,0.002702
67.530,54.7500,0.002702
67.561,54.7500,0.002702
67.577,54.7500,0.002702
67.593,54.7500,0.002702
67.609,54.7500,0.002702
67.640,54.7500,0.002702
67.669,54.7500,0.002805
67.684,54.7500,0.002805
67.700,54.7500,0.002805
67.717,54.7500,0.002805
67.732,54.7500,0.002805
67.749,54.7500,0.002805
67.764,54.7500,0.002805
67.780,54.7500,0.002805
67.797,54.7500,0.002805
67.812,54.7500,0.002805
67.828,54.7500,0.002805
67.845,54.7500,0.002805
67.861,54.7500,0.002805
67.881,54.7500,0.002805
67.905,54.7500,0.002937
67.924,54.7500,0.002937
67.940,54.7500,0.002937
67.956,54.7500,0.002937
67.972,54.7500,0.002937
67.989,54.7500,0.002937
68.004,54.7500,0.002937
68.020,54.7500,0.002937
68.036,54.7500,0.002937
68.052,54.7500,0.002937
68.068,54.7500,0.002937
68.084,54.7500,0.002937
68.100,54.7500,0.002937
68.116,54.7500,0.002937
68.132,54.7500,0.002937
68.148,54.7500,0.002975
68.164,54.7500,0.002975
68.190,54.7500,0.002975
68.206,54.7500,0.002975
68.222,54.7500,0.002975
68.239,54.7500,0.002975
68.259,54.7500,0.002975
68.290,54.7500,0.002975
68.321,54.7500,0.002975
68.336,54.7500,0.002975
68.352,54.7500,0.002975
68.382,54.7500,0.002975
68.398,54.7500,0.002928
68.414,54.7500,0.002928
68.430,54.7500,0.002928
68.446,54.7500,0.002928
68.462,54.7500,0.002928
68.478,54.7500,0.002928
68.494,54.7500,0.002928
68.511,54.7500,0.002928
68.527,54.7500,0.002928
68.544,54.7500,0.002928
68.569,54.7500,0.002928
68.590,54.7500,0.002928
68.608,54.7500,0.002928
68.631,54.7500,0.002928
68.647,54.7500,0.002965
68.678,54.7500,0.002965
68.707,54.7500,0.002965
68.728,54.7500,0.002965
68.744,54.7500,0.002965
68.760,54.7500,0.002965
68.776,54.7500,0.002965
68.792,54.7500,0.002965
68.809,54.7500,0.002965
68.831,54.7500,0.002965
68.847,54.7500,0.002965
68.878,54.7500,0.002965
68.893,54.7500,0.002993
68.910,54.7500,0.002993
68.939,54.7500,0.002993
68.969,54.7500,0.002993
68.985,54.7500,0.002993
69.001,54.7500,0.002993
69.019,54.7500,0.002993
69.047,54.7500,0.002993
69.064,54.7500,0.002993
69.081,54.7500,0.002993
69.096,54.7500,0.002993
69.112,54.7500,0.002993
69.128,54.7500,0.002993
69.145,54.7500,0.002993
69.171,54.7500,0.002956
69.192,54.7500,0.002956
69.208,54.7500,0.002956
69.224,54.7500,0.002956
69.241,54.7500,0.002956
69.265,54.7500,0.002956
69.282,54.7500,0.002956
69.311,54.7500,0.002956
69.330,54.7500,0.002956
69.358,54.7500,0.002956
69.377,54.7500,0.002956
69.393,54.7500,0.002956
69.409,54.7500,0.002956
69.424,54.7500,0.002993
69.441,54.7500,0.002993
69.457,54.7500,0.002993
69.473,54.7500,0.002993
69.488,54.7500,0.002993
69.505,54.7500,0.002993
69.522,54.7500,0.002993
69.545,54.7500,0.002993
69.575,54.7500,0.002993
69.605,54.7500,0.002993
69.620,54.7500,0.002993
69.636,54.7500,0.002993
69.652,54.7500,0.002993
69.667,54.7500,0.002965
69.684,54.7500,0.002965
69.714,54.7500,0.002965
69.745,54.7500,0.002965
69.761,54.7500,0.002965
69.777,54.7500,0.002965
69.792,54.7500,0.002965
69.820,54.7500,0.002965
69.836,54.7500,0.002965
69.852,54.7500,0.002965
69.869,54.7500,0.002965
69.885,54.7500,0.002965
69.901,54.7500,0.002965
69.916,54.7500,0.002928
69.932,54.7500,0.002928
69.949,54.7500,0.002928
69.965,54.7500,0.002928
69.981,54.7500,0.002928
69.996,54.7500,0.002928
70.013,54.7500,0.002928
70.028,54.7500,0.002928
70.044,54.7500,0.002928
70.061,54.7500,0.002928
70.077,54.7500,0.002928
70.092,54.7500,0.002928
70.109,54.7500,0.002928
70.124,54.7500,0.002928
70.140,54.7500,0.002928
70.156,54.7500,0.002928
70.172,54.7500,0.002946
70.189,54.7500,0.002946
70.205,54.7500,0.002946
70.225,54.7500,0.002946
70.255,54.7500,0.002946
70.286,54.7500,0.002946
70.317,54.7500,0.002946
70.332,54.7500,0.002946
70.348,54.7500,0.002946
70.377,54.7500,0.002946
70.393,54.7500,0.002946
70.410,54.7500,0.002890
70.426,54.7500,0.002890
70.442,54.7500,0.002890
70.457,54.7500,0.002890
70.473,54.7500,0.002890
70.489,54.7500,0.002890
70.506,54.7500,0.002890
70.521,54.7500,0.002890
70.538,54.7500,0.002890
70.553,54.7500,0.002890
70.569,54.7500,0.002890
70.585,54.7500,0.002890
70.601,54.7500,0.002890
70.617,54.7500,0.002890
70.634,54.7500,0.002890
70.650,54.7500,0.002890
70.665,54.7500,0.002758
70.681,54.7500,0.002758
70.698,54.7500,0.002758
70.713,54.7500,0.002758
70.729,54.7500,0.002758
70.745,54.7500,0.002758
70.762,54.7500,0.002758
70.777,54.7500,0.002758
70.793,54.7500,0.002758
70.809,54.7500,0.002758
70.825,54.7500,0.002758
70.842,54.7500,0.002758
70.857,54.7500,0.002758
70.874,54.7500,0.002758
70.889,54.7500,0.002758
70.905,54.7500,0.002758
70.934,54.7500,0.002702
70.951,54.7500,0.002702
70.966,54.7500,0.002702
70.982,54.7500,0.002702
70.998,54.7499,0.002702
71.014,54.7497,0.002702
71.030,54.7492,0.002702
71.046,54.7484,0.002702
71.062,54.7475,0.002702
71.078,54.7465,0.002702
71.094,54.7452,0.002702
71.110,54.7438,0.002702
71.127,54.7421,0.002702
71.142,54.7402,0.002702
71.158,54.7382,0.002655
71.174,54.7360,0.002655
71.190,54.7335,0.002655
71.206,54.7309,0.002655
71.222,54.7282,0.002655
71.238,54.7251,0.002655
71.255,54.7217,0.002655
71.274,54.7177,0.002655
71.306,54.7103,0.002655
71.321,54.7064,0.002655
71.352,54.6981,0.002655
71.384,54.6888,0.002655
71.399,54.6842,0.004612
71.414,54.6792,0.004612
71.433,54.6730,0.004612
71.461,54.6628,0.004612
71.489,54.6525,0.004612
71.505,54.6461,0.004612
71.521,54.6400,0.004612
71.537,54.6334,0.004612
71.553,54.6264,0.004612
71.569,54.6194,0.004612
71.585,54.6124,0.004612
71.601,54.6050,0.004612
71.618,54.5969,0.004612
71.633,54.5897,0.004612
71.649,54.5812,0.009008
71.665,54.5735,0.009008
71.681,54.5649,0.009008
71.697,54.5562,0.009008
71.714,54.5472,0.009008
71.729,54.5386,0.009008
71.745,54.5295,0.009008
71.761,54.5203,0.009008
71.777,54.5109,0.009008
71.793,54.5010,0.009008
71.809,54.4907,0.009008
71.825,54.4811,0.009008
71.841,54.4707,0.009008
71.857,54.4603,0.009008
71.873,54.4496,0.009008
71.889,54.4387,0.007587
71.905,54.4272,0.007587
71.929,54.4098,0.007587
71.955,54.3915,0.007587
71.983,54.3706,0.007587
72.010,54.3500,0.007587
72.027,54.3365,0.007587
72.042,54.3246,0.007587
72.058,54.3114,0.007587
72.074,54.2989,0.007587
72.089,54.2856,0.007587
72.111,54.2676,0.007587
72.137,54.2443,0.003568
72.154,54.2304,0.003568
72.176,54.2099,0.003568
72.191,54.1963,0.003568
72.215,54.1741,0.003568
72.235,54.1557,0.003568
72.250,54.1413,0.003568
72.266,54.1263,0.003568
72.282,54.1106,0.003568
72.298,54.0946,0.003568
72.314,54.0783,0.003568
72.330,54.0627,0.003568
72.346,54.0453,0.003568
72.365,54.0252,0.003568
72.381,54.0095,0.003568
72.401,53.9872,0.003568
72.417,53.9703,0.003342
72.433,53.9534,0.003342
72.462,53.9204,0.003342
72.479,53.9011,0.003342
72.509,53.8673,0.003342
72.540,53.8296,0.003342
72.556,53.8115,0.003342
72.586,53.7754,0.003342
72.602,53.7570,0.003342
72.618,53.7365,0.003342
72.633,53.7175,0.003389
72.649,53.6976,0.003389
72.666,53.6765,0.003389
72.682,53.6564,0.003389
72.697,53.6360,0.003389
72.713,53.6151,0.003389
72.730,53.5938,0.003389
72.746,53.5720,0.003389
72.761,53.5515,0.003389
72.777,53.5296,0.003389
72.793,53.5077,0.003389
72.810,53.4852,0.003389
72.825,53.4638,0.003389
72.841,53.4410,0.003389
72.858,53.4175,0.003389
72.873,53.3959,0.003389
72.889,53.3730,0.003473
72.905,53.3494,0.003473
72.922,53.3256,0.003473
72.938,53.3023,0.003473
72.954,53.2784,0.003473
72.970,53.2543,0.003473
72.986,53.2302,0.003473
73.001,53.2064,0.003473
73.018,53.1811,0.003473
73.033,53.1562,0.003473
73.050,53.1320,0.003473
73.065,53.1070,0.003473
73.096,53.0585,0.003473
73.126,53.0100,0.003473
73.142,52.9834,0.003605
73.159,52.9561,0.003605
73.175,52.9297,0.003605
73.190,52.9038,0.003605
73.207,52.8760,0.003605
73.222,52.8501,0.003605
73.238,52.8226,0.003605
73.254,52.7955,0.003605
73.270,52.7663,0.003605
73.287,52.7392,0.003605
73.303,52.7105,0.003605
73.319,52.6832,0.003605
73.334,52.6548,0.003605
73.350,52.6256,0.003605
73.366,52.5985,0.003605
73.383,52.5683,0.003605
73.399,52.5383,0.003605
73.414,52.5105,0.003784
73.430,52.4805,0.003784
73.446,52.4511,0.003784
73.463,52.4206,0.003784
73.479,52.3899,0.003784
73.495,52.3602,0.003784
73.510,52.3301,0.003784
73.526,52.2992,0.003784
73.542,52.2687,0.003784
73.558,52.2378,0.003784
73.574,52.2064,0.003784
73.590,52.1748,0.003784
73.607,52.1427,0.003784
73.632,52.0918,0.003784
73.648,52.0596,0.003784
73.664,52.0260,0.003954
73.680,51.9942,0.003954
73.697,51.9594,0.003954
73.713,51.9260,0.003954
73.728,51.8953,0.003954
73.744,51.8619,0.003954
73.765,51.8167,0.003954
73.790,51.7643,0.003954
73.809,51.7251,0.003954
73.835,51.6701,0.003954
73.865,51.6073,0.003954
73.880,51.5720,0.003954
73.897,51.5400,0.003954
73.927,51.4787,0.004095
73.942,51.4449,0.004095
73.958,51.4140,0.004095
73.989,51.3528,0.004095
74.019,51.2905,0.004095
74.050,51.2307,0.004095
74.066,51.1984,0.004095
74.083,51.1664,0.004095
74.113,51.1094,0.004095
74.128,51.0807,0.004095
74.144,51.0507,0.004095
74.160,51.0205,0.004095
74.189,50.9659,0.004142
74.206,50.9357,0.004142
74.222,50.9049,0.004142
74.251,50.8517,0.004142
74.274,50.8105,0.004142
74.297,50.7695,0.004142
74.317,50.7336,0.004142
74.333,50.7069,0.004142
74.349,50.6788,0.004142
74.365,50.6522,0.004142
74.382,50.6225,0.004142
74.406,50.5812,0.004142
74.437,50.5302,0.004330
74.469,50.4770,0.004330
74.498,50.4294,0.004330
74.530,50.3792,0.004330
74.560,50.3316,0.004330
74.575,50.3065,0.004330
74.591,50.2818,0.004330
74.607,50.2562,0.004330
74.643,50.2028,0.004330
74.671,50.1618,0.004594
74.686,50.1396,0.004594
74.701,50.1171,0.004594
74.717,50.0927,0.004594
74.742,50.0577,0.004594
74.759,50.0343,0.004594
74.775,50.0112,0.004594
74.790,49.9891,0.004594
74.807,49.9661,0.004594
74.824,49.9421,0.004594
74.839,49.9214,0.004594
74.856,49.9001,0.004594
74.886,49.8590,0.004594
74.902,49.8376,0.004763
74.918,49.8171,0.004763
74.934,49.7959,0.004763
74.950,49.7763,0.004763
74.966,49.7557,0.004763
74.983,49.7344,0.004763
74.999,49.7142,0.004763
75.014,49.6956,0.004763
75.030,49.6763,0.004763
75.046,49.6568,0.004763
75.062,49.6378,0.004763
75.079,49.6181,0.004763
75.100,49.5929,0.004763
75.131,49.5572,0.004763
75.147,49.5393,0.004970
75.178,49.5040,0.004970
75.200,49.4809,0.004970
75.224,49.4547,0.004970
75.255,49.4210,0.004970
75.271,49.4044,0.004970
75.299,49.3770,0.004970
75.314,49.3612,0.004970
75.330,49.3453,0.004970
75.346,49.3303,0.004970
75.366,49.3102,0.004970
75.383,49.2942,0.004970
75.409,49.2694,0.005168
75.427,49.2537,0.005168
75.456,49.2275,0.005168
75.474,49.2111,0.005168
75.491,49.1966,0.005168
75.517,49.1733,0.005168
75.538,49.1567,0.005168
75.554,49.1433,0.005168
75.570,49.1299,0.005168
75.586,49.1171,0.005168
75.603,49.1040,0.005168
75.618,49.0921,0.005168
75.634,49.0798,0.005168
75.650,49.0678,0.005384
75.666,49.0565,0.005384
75.681,49.0444,0.005384
75.698,49.0333,0.005384
75.714,49.0219,0.005384
75.730,49.0108,0.005384
75.746,48.9997,0.005384
75.762,48.9890,0.005384
75.778,48.9788,0.005384
75.794,48.9684,0.005384
75.809,48.9586,0.005384
75.825,48.9487,0.005384
75.853,48.9320,0.005384
75.870,48.9218,0.005384
75.885,48.9132,0.005563
75.901,48.9043,0.005563
75.918,48.8950,0.005563
75.934,48.8866,0.005563
75.949,48.8785,0.005563
75.965,48.8703,0.005563
75.982,48.8621,0.005563
75.997,48.8543,0.005563
76.014,48.8466,0.005563
76.029,48.8393,0.005563
76.046,48.8317,0.005563
76.061,48.8251,0.005563
76.077,48.8181,0.005563
76.094,48.8114,0.005563
76.110,48.8047,0.005563
76.126,48.7985,0.005563
76.141,48.7926,0.005676
76.157,48.7867,0.005676
76.173,48.7808,0.005676
76.190,48.7754,0.005676
76.205,48.7704,0.005676
76.221,48.7651,0.005676
76.238,48.7599,0.005676
76.253,48.7555,0.005676
76.269,48.7509,0.005676
76.286,48.7465,0.005676
76.302,48.7423,0.005676
76.317,48.7385,0.005676
76.333,48.7348,0.005676
76.350,48.7308,0.005676
76.374,48.7258,0.005676
76.391,48.7229,0.005676
76.406,48.7200,0.005761
76.423,48.7172,0.005761
76.439,48.7147,0.005761
76.454,48.7126,0.005761
76.471,48.7105,0.005761
76.487,48.7085,0.005761
76.502,48.7069,0.005761
76.519,48.7052,0.005761
76.534,48.7039,0.005761
76.550,48.7028,0.005761
76.567,48.7019,0.005761
76.583,48.7012,0.005761
76.598,48.7005,0.005761
76.615,48.7002,0.005761
76.631,48.7000,0.005761
76.646,48.7000,0.005808
76.664,48.7000,0.005808
76.693,48.7000,0.005808
76.710,48.7000,0.005808
76.727,48.7000,0.005808
76.743,48.7000,0.005808
76.758,48.7000,0.005808
76.774,48.7000,0.005808
76.791,48.7003,0.005808
76.806,48.7007,0.005808
76.822,48.7012,0.005808
76.838,48.7020,0.005808
76.854,48.7029,0.005808
76.871,48.7041,0.005808
76.886,48.7054,0.005808
76.910,48.7078,0.005836
76.926,48.7097,0.005836
76.956,48.7136,0.005836
76.975,48.7167,0.005836
77.003,48.7211,0.005836
77.021,48.7246,0.005836
77.037,48.7277,0.005836
77.053,48.7310,0.005836
77.069,48.7348,0.005836
77.086,48.7387,0.005836
77.101,48.7425,0.005836
77.118,48.7465,0.005836
77.134,48.7510,0.005836
77.150,48.7555,0.005686
77.165,48.7602,0.005686
77.181,48.7650,0.005686
77.197,48.7702,0.005686
77.213,48.7756,0.005686
77.229,48.7810,0.005686
77.245,48.7866,0.005686
77.261,48.7927,0.005686
77.277,48.7989,0.005686
77.293,48.8048,0.005686
77.309,48.8113,0.005686
77.326,48.8186,0.005686
77.344,48.8260,0.005686
77.374,48.8397,0.005686
77.389,48.8466,0.005686
77.412,48.8582,0.005686
77.436,48.8696,0.005639
77.453,48.8781,0.005639
77.469,48.8868,0.005639
77.485,48.8954,0.005639
77.501,48.9041,0.005639
77.519,48.9142,0.005639
77.544,48.9286,0.005639
77.575,48.9477,0.005639
77.597,48.9610,0.005639
77.613,48.9713,0.005639
77.629,48.9816,0.005639
77.645,48.9924,0.005639
77.661,49.0027,0.005639
77.677,49.0134,0.005676
77.693,49.0247,0.005676
77.709,49.0369,0.005676
77.725,49.0475,0.005676
77.741,49.0591,0.005676
77.757,49.0711,0.005676
77.772,49.0831,0.005676
77.789,49.0960,0.005676
77.805,49.1078,0.005676
77.825,49.1246,0.005676
77.853,49.1475,0.005676
77.869,49.1597,0.005676
77.885,49.1733,0.005676
77.901,49.1868,0.005676
77.917,49.2006,0.005544
77.933,49.2147,0.005544
77.949,49.2289,0.005544
77.965,49.2434,0.005544
77.981,49.2584,0.005544
77.997,49.2727,0.005544
78.013,49.2878,0.005544
78.029,49.3034,0.005544
78.045,49.3184,0.005544
78.061,49.3338,0.005544
78.077,49.3497,0.005544
78.093,49.3663,0.005544
78.109,49.3822,0.005544
78.125,49.3983,0.005544
78.140,49.4148,0.005544
78.158,49.4324,0.005544
78.175,49.4519,0.005403
78.206,49.4841,0.005403
78.221,49.5010,0.005403
78.237,49.5185,0.005403
78.253,49.5358,0.005403
78.270,49.5552,0.005403
78.299,49.5892,0.005403
78.317,49.6094,0.005403
78.333,49.6295,0.005403
78.349,49.6473,0.005403
78.366,49.6684,0.005403
78.381,49.6860,0.005403
78.397,49.7062,0.005403
78.413,49.7262,0.005403
78.429,49.7452,0.005215
78.445,49.7655,0.005215
78.461,49.7867,0.005215
78.476,49.8066,0.005215
78.493,49.8284,0.005215
78.520,49.8629,0.005215
78.535,49.8847,0.005215
78.551,49.9058,0.005215
78.567,49.9274,0.005215
78.584,49.9502,0.005215
78.600,49.9726,0.005215
78.615,49.9937,0.005215
78.632,50.0164,0.005215
78.649,50.0417,0.005215
78.669,50.0702,0.004998
78.685,50.0929,0.004998
78.716,50.1395,0.004998
78.747,50.1839,0.004998
78.778,50.2312,0.004998
78.794,50.2555,0.004998
78.824,50.3034,0.004998
78.847,50.3399,0.004998
78.871,50.3761,0.004998
78.887,50.4026,0.004998
78.903,50.4284,0.004998
78.920,50.4548,0.004782
78.936,50.4806,0.004782
78.951,50.5069,0.004782
78.967,50.5332,0.004782
78.984,50.5618,0.004782
78.999,50.5867,0.004782
79.015,50.6147,0.004782
79.032,50.6427,0.004782
79.047,50.6690,0.004782
79.074,50.7155,0.004782
79.091,50.7446,0.004782
79.107,50.7723,0.004782
79.122,50.8001,0.004782
79.138,50.8285,0.004782
79.155,50.8599,0.004782
79.171,50.8872,0.004528
79.187,50.9166,0.004528
79.203,50.9482,0.004528
79.219,50.9761,0.004528
79.234,51.0044,0.004528
79.251,51.0353,0.004528
79.267,51.0659,0.004528
79.282,51.0953,0.004528
79.298,51.1257,0.004528
79.314,51.1571,0.004528
79.330,51.1878,0.004528
79.347,51.2191,0.004528
79.362,51.2498,0.004528
79.379,51.2820,0.004528
79.395,51.3143,0.004528
79.411,51.3461,0.004339
79.426,51.3776,0.004339
79.444,51.4126,0.004339
79.459,51.4436,0.004339
79.488,51.5035,0.004339
79.508,51.5434,0.004339
79.523,51.5751,0.004339
79.539,51.6091,0.004339
79.555,51.6417,0.004339
79.571,51.6763,0.004339
79.586,51.7098,0.004339
79.602,51.7431,0.004339
79.628,51.7985,0.004339
79.646,51.8346,0.004339
79.674,51.8920,0.004151
79.693,51.9311,0.004151
79.708,51.9630,0.004151
79.725,51.9968,0.004151
79.740,52.0273,0.004151
79.760,52.0674,0.004151
79.781,52.1103,0.004151
79.813,52.1723,0.004151
79.842,52.2305,0.004151
79.873,52.2887,0.004151
79.890,52.3199,0.004151
79.920,52.3777,0.004029
79.952,52.4364,0.004029
79.967,52.4655,0.004029
79.983,52.4935,0.004029
79.999,52.5234,0.004029
80.014,52.5510,0.004029
80.045,52.6075,0.004029
80.077,52.6623,0.004029
80.092,52.6888,0.004029
80.108,52.7163,0.004029
80.124,52.7443,0.004029
80.147,52.7833,0.004029
80.169,52.8210,0.003982
80.188,52.8525,0.003982
80.204,52.8789,0.003982
80.220,52.9058,0.003982
80.236,52.9322,0.003982
80.252,52.9590,0.003982
80.268,52.9839,0.003982
80.285,53.0108,0.003982
80.300,53.0348,0.003982
80.316,53.0613,0.003982
80.332,53.0867,0.003982
80.348,53.1101,0.003982
80.364,53.1355,0.003982
80.380,53.1609,0.003982
80.396,53.1841,0.003982
80.412,53.2077,0.003822
80.428,53.2319,0.003822
80.444,53.2562,0.003822
80.460,53.2792,0.003822
80.476,53.3027,0.003822
80.492,53.3259,0.003822
80.508,53.3487,0.003822
80.524,53.3727,0.003822
80.540,53.3948,0.003822
80.556,53.4162,0.003822
80.572,53.4385,0.003822
80.588,53.4609,0.003822
80.604,53.4829,0.003822
80.621,53.5054,0.003822
80.648,53.5420,0.003633
80.668,53.5677,0.003633
80.683,53.5883,0.003633
80.712,53.6249,0.003633
80.728,53.6450,0.003633
80.744,53.6649,0.003633
80.760,53.6850,0.003633
80.776,53.7044,0.003633
80.791,53.7240,0.003633
80.808,53.7444,0.003633
80.826,53.7668,0.003633
80.851,53.7963,0.003633
80.872,53.8195,0.003633
80.888,53.8375,0.003633
80.904,53.8559,0.003633
80.920,53.8738,0.003408
80.936,53.8915,0.003408
80.953,53.9100,0.003408
80.972,53.9313,0.003408
80.987,53.9477,0.003408
81.018,53.9805,0.003408
81.034,53.9966,0.003408
81.065,54.0280,0.003408
81.080,54.0432,0.003408
81.096,54.0588,0.003408
81.112,54.0752,0.003408
81.134,54.0969,0.003408
81.158,54.1181,0.003408
81.176,54.1359,0.003266
81.192,54.1504,0.003266
81.207,54.1641,0.003266
81.223,54.1785,0.003266
81.247,54.2002,0.003266
81.263,54.2135,0.003266
81.279,54.2270,0.003266
81.296,54.2408,0.003266
81.312,54.2539,0.003266
81.328,54.2674,0.003266
81.344,54.2798,0.003266
81.359,54.2924,0.003266
81.377,54.3064,0.003266
81.406,54.3277,0.003257
81.423,54.3410,0.003257
81.445,54.3571,0.003257
81.467,54.3731,0.003257
81.487,54.3865,0.003257
81.503,54.3974,0.003257
81.520,54.4086,0.003257
81.535,54.4189,0.003257
81.552,54.4293,0.003257
81.567,54.4393,0.003257
81.584,54.4495,0.003257
81.599,54.4589,0.003257
81.615,54.4686,0.003257
81.638,54.4819,0.003257
81.669,54.4997,0.003153
81.685,54.5079,0.003153
81.701,54.5167,0.003153
81.732,54.5330,0.003153
81.748,54.5404,0.003153
81.779,54.5554,0.003153
81.812,54.5701,0.003153
81.840,54.5826,0.003153
81.871,54.5954,0.003153
81.887,54.6016,0.003153
81.903,54.6075,0.002909
81.920,54.6138,0.002909
81.937,54.6197,0.002909
81.963,54.6286,0.002909
81.984,54.6352,0.002909
82.000,54.6404,0.002909
82.016,54.6450,0.002909
82.032,54.6493,0.002909
82.048,54.6537,0.002909
82.064,54.6579,0.002909
82.079,54.6617,0.002909
82.095,54.6654,0.002909
82.111,54.6690,0.002909
82.127,54.6724,0.002909
82.143,54.6756,0.002909
82.159,54.6786,0.002447
82.175,54.6813,0.002447
82.192,54.6840,0.002447
82.208,54.6864,0.002447
82.223,54.6885,0.002447
82.239,54.6906,0.002447
82.256,54.6924,0.002447
82.272,54.6941,0.002447
82.301,54.6966,0.002447
82.317,54.6976,0.002447
82.334,54.6986,0.002447
82.349,54.6992,0.002447
82.367,54.6997,0.002447
82.395,54.7000,0.001939
82.413,54.7000,0.001939
82.430,54.7000,0.001939
82.445,54.7000,0.001939
82.461,54.7000,0.001939
82.477,54.7000,0.001939
82.493,54.7000,0.001939
82.509,54.7000,0.001939
82.526,54.7000,0.001939
82.541,54.7000,0.001939
82.558,54.7000,0.001939
82.574,54.7000,0.001939
82.589,54.7000,0.001939
82.605,54.7000,0.001939
82.621,54.7000,0.001939
82.637,54.7000,0.001939
82.653,54.7000,0.002033
82.670,54.7000,0.002033
82.691,54.7000,0.002033
82.721,54.7000,0.002033
82.737,54.7000,0.002033
82.752,54.7000,0.002033
82.768,54.7000,0.002033
82.799,54.7000,0.002033
82.830,54.7000,0.002033
82.861,54.7000,0.002033
82.876,54.7000,0.002033
82.895,54.7000,0.002033
82.923,54.7000,0.002495
82.940,54.7000,0.002495
82.956,54.7000,0.002495
82.972,54.7000,0.002495
82.988,54.7000,0.002495
83.004,54.7000,0.002495
83.021,54.7000,0.002495
83.037,54.7000,0.002495
83.052,54.7000,0.002495
83.068,54.7000,0.002495
83.084,54.7000,0.002495
83.100,54.7000,0.002495
83.116,54.7000,0.002495
83.133,54.7000,0.002495
83.157,54.7000,0.002758
83.173,54.7000,0.002758
83.204,54.7000,0.002758
83.219,54.7000,0.002758
83.235,54.7000,0.002758
83.250,54.7000,0.002758
83.266,54.7000,0.002758
83.297,54.7000,0.002758
83.328,54.7000,0.002758
83.358,54.7000,0.002758
83.387,54.7000,0.002758
83.403,54.7000,0.002758
83.418,54.7000,0.002880
83.434,54.7000,0.002880
83.450,54.7000,0.002880
83.466,54.7000,0.002880
83.485,54.7000,0.002880
83.512,54.7000,0.002880
83.530,54.7000,0.002880
83.546,54.7000,0.002880
83.562,54.7000,0.002880
83.579,54.7000,0.002880
83.594,54.7000,0.002880
83.611,54.7000,0.002880
83.638,54.7000,0.002937
83.658,54.7000,0.002937
83.674,54.7000,0.002937
83.690,54.7000,0.002937
83.706,54.7000,0.002937
83.722,54.7000,0.002937
83.738,54.7000,0.002937
83.754,54.7000,0.002937
83.770,54.7000,0.002937
83.786,54.7000,0.002937
83.803,54.7000,0.002937
83.823,54.7000,0.002937
83.839,54.7000,0.002937
83.855,54.7000,0.002937
83.886,54.7000,0.002937
83.917,54.7000,0.002984
83.948,54.7000,0.002984
83.964,54.7000,0.002984
83.980,54.7000,0.002984
84.011,54.7000,0.002984
84.026,54.7000,0.002984
84.042,54.7000,0.002984
84.058,54.7000,0.002984
84.073,54.7000,0.002984
84.090,54.7000,0.002984
84.105,54.7000,0.002984
84.122,54.7000,0.002984
84.137,54.7000,0.003012
84.153,54.7000,0.003012
84.170,54.7000,0.003012
84.185,54.7000,0.003012
84.202,54.7000,0.003012
84.217,54.7000,0.003012
84.235,54.7000,0.003012
84.259,54.7000,0.003012
84.275,54.7000,0.003012
84.306,54.7000,0.003012
84.337,54.7000,0.003012
84.352,54.7000,0.003012
84.383,54.7000,0.003012
84.399,54.7000,0.002993
84.430,54.7000,0.002993
84.461,54.7000,0.002993
84.493,54.7000,0.002993
84.523,54.7000,0.002993
84.540,54.7000,0.002993
84.570,54.7000,0.002993
84.585,54.7000,0.002993
84.603,54.7000,0.002993
84.632,54.7000,0.002975
84.649,54.7000,0.002975
84.666,54.7000,0.002975
84.682,54.7000,0.002975
84.697,54.7000,0.002975
84.714,54.7000,0.002975
84.729,54.7000,0.002975
84.746,54.7000,0.002975
84.761,54.7000,0.002975
84.777,54.7000,0.002975
84.794,54.7000,0.002975
84.810,54.7000,0.002975
84.825,54.7000,0.002975
84.841,54.7000,0.002975
84.858,54.7000,0.002975
84.873,54.7000,0.002975
84.889,54.7000,0.002993
84.905,54.7000,0.002993
84.922,54.7000,0.002993
84.938,54.7000,0.002993
84.953,54.7000,0.002993
84.974,54.7000,0.002993
84.990,54.7000,0.002993
85.006,54.7000,0.002993
85.022,54.7000,0.002993
85.039,54.7000,0.002993
85.054,54.7000,0.002993
85.071,54.7000,0.002993
85.086,54.7000,0.002993
85.102,54.7000,0.002993
85.118,54.7000,0.002993
85.134,54.7000,0.002993
85.150,54.7000,0.002984
85.167,54.7000,0.002984
85.182,54.7000,0.002984
85.198,54.7000,0.002984
85.215,54.7000,0.002984
85.230,54.7000,0.002984
85.246,54.7000,0.002984
85.262,54.7000,0.002984
85.278,54.7000,0.002984
85.294,54.7000,0.002984
85.310,54.7000,0.002984
85.326,54.7000,0.002984
85.342,54.7000,0.002984
85.358,54.7000,0.002984
85.374,54.7000,0.002984
85.391,54.7000,0.002984
85.407,54.7000,0.002984
85.436,54.7000,0.002984
85.458,54.7000,0.002984
85.484,54.7000,0.002984
85.516,54.7000,0.002984
85.533,54.7000,0.002984
85.562,54.7000,0.002984
85.586,54.7000,0.002984
85.608,54.7000,0.002984
85.628,54.7000,0.002984
85.648,54.7000,0.002984
85.670,54.7000,0.002984
85.701,54.7000,0.003012
85.732,54.7000,0.003012
85.747,54.7000,0.003012
85.765,54.7000,0.003012
85.794,54.7000,0.003012
85.825,54.7000,0.003012
85.841,54.7000,0.003012
85.856,54.7000,0.003012
85.872,54.7000,0.003012
85.903,54.7000,0.003012
85.933,54.7000,0.002937
85.949,54.7000,0.002937
85.965,54.7000,0.002937
85.980,54.7000,0.002937
85.995,54.7000,0.002937
86.019,54.7000,0.002937
86.044,54.7000,0.002937
86.063,54.7000,0.002937
86.089,54.7000,0.002937
86.107,54.7000,0.002937
86.123,54.7000,0.002937
86.139,54.7000,0.002918
86.155,54.7000,0.002918
86.172,54.7000,0.002918
86.187,54.7000,0.002918
86.203,54.7000,0.002918
86.219,54.7000,0.002918
86.235,54.7000,0.002918
86.251,54.7000,0.002918
86.267,54.7000,0.002918
86.283,54.7000,0.002918
86.299,54.7000,0.002918
86.315,54.7000,0.002918
86.331,54.7000,0.002918
86.348,54.7000,0.002918
86.368,54.7000,0.002918
86.399,54.7000,0.002918
86.414,54.7000,0.002918
86.430,54.7000,0.002880
86.461,54.7000,0.002880
86.492,54.7000,0.002880
86.523,54.7000,0.002880
86.545,54.7000,0.002880
86.569,54.7000,0.002880
86.602,54.7000,0.002880
86.619,54.7000,0.002880
86.646,54.7000,0.002702
86.666,54.7000,0.002702
86.682,54.7000,0.002702
86.698,54.7000,0.002702
86.713,54.7000,0.002702
86.730,54.6999,0.002702
86.746,54.6995,0.002702
86.762,54.6989,0.002702
86.778,54.6982,0.002702
86.794,54.6972,0.002702
86.810,54.6962,0.002702
86.826,54.6948,0.002702
86.842,54.6932,0.002702
86.858,54.6916,0.002702
86.874,54.6897,0.002702
86.890,54.6875,0.002589
86.905,54.6853,0.002589
86.922,54.6827,0.002589
86.938,54.6799,0.002589
86.955,54.6771,0.002589
86.970,54.6740,0.002589
86.985,54.6709,0.002589
87.002,54.6675,0.002589
87.023,54.6623,0.002589
87.045,54.6570,0.002589
87.066,54.6517,0.002589
87.083,54.6470,0.002589
87.098,54.6425,0.002589
87.113,54.6379,0.002589
87.138,54.6301,0.002589
87.154,54.6249,0.002589
87.169,54.6194,0.005281
87.186,54.6137,0.005281
87.202,54.6076,0.005281
87.217,54.6018,0.005281
87.234,54.5954,0.005281
87.250,54.5890,0.005281
87.267,54.5820,0.005281
87.293,54.5703,0.005281
87.313,54.5614,0.005281
87.329,54.5538,0.005281
87.346,54.5460,0.005281
87.361,54.5384,0.005281
87.378,54.5300,0.005281
87.401,54.5185,0.005281
87.431,54.5021,0.009479
87.447,54.4935,0.009479
87.463,54.4844,0.009479
87.493,54.4669,0.009479
87.510,54.4565,0.009479
87.539,54.4381,0.009479
87.555,54.4286,0.009479
87.570,54.4189,0.009479
87.586,54.4087,0.009479
87.601,54.3982,0.009479
87.617,54.3873,0.009479
87.633,54.3760,0.009479
87.649,54.3648,0.009479
87.666,54.3530,0.009479
87.692,54.3336,0.007267
87.707,54.3223,0.007267
87.724,54.3094,0.007267
87.739,54.2973,0.007267
87.756,54.2831,0.007267
87.772,54.2719,0.007267
87.787,54.2594,0.007267
87.803,54.2462,0.007267
87.820,54.2317,0.007267
87.835,54.2193,0.007267
87.851,54.2054,0.007267
87.867,54.1915,0.007267
87.886,54.1748,0.007267
87.909,54.1535,0.003417
87.931,54.1339,0.003417
87.948,54.1179,0.003417
87.964,54.1036,0.003417
87.979,54.0886,0.003417
87.995,54.0732,0.003417
88.022,54.0467,0.003417
88.043,54.0255,0.003417
88.059,54.0092,0.003417
88.076,53.9921,0.003417
88.091,53.9761,0.003417
88.108,53.9589,0.003417
88.123,53.9423,0.003417
88.140,53.9242,0.003417
88.156,53.9070,0.003276
88.172,53.8891,0.003276
88.187,53.8722,0.003276
88.204,53.8531,0.003276
88.219,53.8360,0.003276
88.249,53.8006,0.003276
88.266,53.7818,0.003276
88.281,53.7634,0.003276
88.297,53.7444,0.003276
88.321,53.7148,0.003276
88.343,53.6884,0.003276
88.361,53.6657,0.003276
88.382,53.6380,0.003276
88.406,53.6089,0.003389
88.425,53.5843,0.003389
88.442,53.5626,0.003389
88.457,53.5425,0.003389
88.473,53.5211,0.003389
88.489,53.4999,0.003389
88.506,53.4764,0.003389
88.522,53.4551,0.003389
88.537,53.4336,0.003389
88.553,53.4121,0.003389
88.569,53.3890,0.003389
88.585,53.3667,0.003389
88.601,53.3435,0.003389
88.617,53.3208,0.003389
88.633,53.2970,0.003389
88.649,53.2739,0.003389
88.665,53.2510,0.003502
88.682,53.2249,0.003502
88.699,53.1987,0.003502
88.729,53.1545,0.003502
88.746,53.1279,0.003502
88.761,53.1053,0.003502
88.777,53.0799,0.003502
88.804,53.0376,0.003502
88.820,53.0117,0.003502
88.836,52.9859,0.003502
88.853,52.9589,0.003502
88.876,52.9212,0.003502
88.898,52.8852,0.003502
88.916,52.8554,0.003624
88.932,52.8272,0.003624
88.948,52.8017,0.003624
88.964,52.7736,0.003624
88.980,52.7469,0.003624
88.998,52.7157,0.003624
89.023,52.6710,0.003624
89.044,52.6348,0.003624
89.060,52.6058,0.003624
89.076,52.5773,0.003624
89.092,52.5497,0.003624
89.108,52.5207,0.003624
89.124,52.4902,0.003624
89.141,52.4604,0.003624
89.162,52.4205,0.003765
89.194,52.3623,0.003765
89.209,52.3312,0.003765
89.225,52.3029,0.003765
89.241,52.2704,0.003765
89.257,52.2421,0.003765
89.272,52.2108,0.003765
89.303,52.1512,0.003765
89.327,52.1040,0.003765
89.344,52.0709,0.003765
89.359,52.0404,0.003765
89.375,52.0076,0.003765
89.391,51.9754,0.003765
89.407,51.9430,0.003944
89.423,51.9106,0.003944
89.439,51.8774,0.003944
89.455,51.8445,0.003944
89.471,51.8100,0.003944
89.487,51.7758,0.003944
89.506,51.7366,0.003944
89.535,51.6736,0.003944
89.552,51.6386,0.003944
89.567,51.6076,0.003944
89.583,51.5745,0.003944
89.599,51.5409,0.003944
89.615,51.5073,0.003944
89.631,51.4739,0.003944
89.647,51.4413,0.004095
89.663,51.4086,0.004095
89.680,51.3735,0.004095
89.695,51.3433,0.004095
89.711,51.3104,0.004095
89.728,51.2770,0.004095
89.743,51.2471,0.004095
89.759,51.2161,0.004095
89.775,51.1848,0.004095
89.791,51.1516,0.004095
89.807,51.1212,0.004095
89.823,51.0913,0.004095
89.838,51.0608,0.004095
89.861,51.0188,0.004095
89.877,50.9880,0.004095
89.893,50.9587,0.004179
89.909,50.9287,0.004179
89.925,50.8982,0.004179
89.941,50.8697,0.004179
89.957,50.8399,0.004179
89.972,50.8118,0.004179
89.989,50.7804,0.004179
90.005,50.7530,0.004179
90.020,50.7255,0.004179
90.037,50.6967,0.004179
90.053,50.6682,0.004179
90.069,50.6409,0.004179
90.085,50.6132,0.004179
90.101,50.5856,0.004179
90.117,50.5582,0.004179
90.133,50.5315,0.004179
90.148,50.5051,0.004396
90.166,50.4763,0.004396
90.181,50.4514,0.004396
90.197,50.4245,0.004396
90.212,50.3984,0.004396
90.236,50.3598,0.004396
90.260,50.3231,0.004396
90.276,50.2971,0.004396
90.295,50.2683,0.004396
90.321,50.2263,0.004396
90.341,50.1970,0.004396
90.356,50.1718,0.004396
90.373,50.1488,0.004396
90.388,50.1251,0.004396
90.414,50.0859,0.004641
90.432,50.0612,0.004641
90.447,50.0394,0.004641
90.463,50.0159,0.004641
90.478,49.9935,0.004641
90.495,49.9702,0.004641
90.510,49.9480,0.004641
90.526,49.9259,0.004641
90.545,49.9003,0.004641
90.570,49.8655,0.004641
90.591,49.8380,0.004641
90.607,49.8165,0.004641
90.623,49.7950,0.004641
90.638,49.7749,0.004848
90.655,49.7537,0.004848
90.670,49.7334,0.004848
90.687,49.7128,0.004848
90.702,49.6932,0.004848
90.718,49.6731,0.004848
90.734,49.6533,0.004848
90.750,49.6336,0.004848
90.766,49.6143,0.004848
90.782,49.5949,0.004848
90.799,49.5756,0.004848
90.814,49.5570,0.004848
90.830,49.5386,0.004848
90.847,49.5196,0.004848
90.863,49.5011,0.004848
90.879,49.4831,0.004848
90.894,49.4659,0.005064
90.911,49.4475,0.005064
90.926,49.4305,0.005064
90.942,49.4134,0.005064
90.958,49.3963,0.005064
90.975,49.3788,0.005064
90.991,49.3624,0.005064
91.007,49.3457,0.005064
91.023,49.3291,0.005064
91.038,49.3138,0.005064
91.054,49.2978,0.005064
91.070,49.2821,0.005064
91.087,49.2660,0.005064
91.102,49.2512,0.005064
91.119,49.2357,0.005064
91.134,49.2207,0.005064
91.151,49.2048,0.005064
91.167,49.1909,0.005064
91.182,49.1772,0.005337
91.199,49.1626,0.005337
91.215,49.1483,0.005337
91.236,49.1306,0.005337
91.266,49.1046,0.005337
91.287,49.0875,0.005337
91.312,49.0675,0.005337
91.342,49.0440,0.005337
91.359,49.0317,0.005337
91.374,49.0194,0.005337
91.392,49.0061,0.005337
91.419,48.9867,0.005544
91.438,48.9733,0.005544
91.455,48.9604,0.005544
91.481,48.9441,0.005544
91.502,48.9302,0.005544
91.518,48.9199,0.005544
91.534,48.9096,0.005544
91.550,48.9000,0.005544
91.566,48.8902,0.005544
91.582,48.8805,0.005544
91.598,48.8713,0.005544
91.614,48.8619,0.005544
91.630,48.8528,0.005544
91.646,48.8443,0.005639
91.662,48.8356,0.005639
91.678,48.8272,0.005639
91.694,48.8191,0.005639
91.710,48.8108,0.005639
91.726,48.8030,0.005639
91.742,48.7955,0.005639
91.759,48.7882,0.005639
91.775,48.7808,0.005639
91.790,48.7740,0.005639
91.807,48.7666,0.005639
91.836,48.7549,0.005639
91.854,48.7479,0.005639
91.870,48.7418,0.005639
91.886,48.7360,0.005639
91.902,48.7303,0.005704
91.918,48.7248,0.005704
91.934,48.7194,0.005704
91.950,48.7140,0.005704
91.967,48.7092,0.005704
91.982,48.7049,0.005704
91.998,48.7002,0.005704
92.015,48.6957,0.005704
92.036,48.6904,0.005704
92.057,48.6854,0.005704
92.073,48.6817,0.005704
92.089,48.6783,0.005704
92.105,48.6751,0.005704
92.121,48.6721,0.005704
92.137,48.6693,0.005704
92.153,48.6667,0.005789
92.169,48.6641,0.005789
92.185,48.6620,0.005789
92.200,48.6600,0.005789
92.217,48.6580,0.005789
92.233,48.6564,0.005789
92.251,48.6548,0.005789
92.281,48.6525,0.005789
92.298,48.6517,0.005789
92.313,48.6509,0.005789
92.329,48.6504,0.005789
92.345,48.6502,0.005789
92.365,48.6501,0.005789
92.390,48.6501,0.005827
92.414,48.6501,0.005827
92.438,48.6501,0.005827
92.457,48.6501,0.005827
92.473,48.6501,0.005827
92.489,48.6501,0.005827
92.505,48.6501,0.005827
92.521,48.6501,0.005827
92.538,48.6501,0.005827
92.561,48.6501,0.005827
92.592,48.6501,0.005827
92.615,48.6501,0.005827
92.639,48.6501,0.005827
92.670,48.6501,0.005864
92.686,48.6501,0.005864
92.716,48.6501,0.005864
92.747,48.6501,0.005864
92.778,48.6501,0.005864
92.793,48.6501,0.005864
92.809,48.6501,0.005864
92.839,48.6501,0.005864
92.870,48.6501,0.005864
92.886,48.6501,0.005949
92.902,48.6501,0.005949
92.918,48.6501,0.005949
92.934,48.6501,0.005949
92.949,48.6501,0.005949
92.966,48.6501,0.005949
92.987,48.6501,0.005949
93.009,48.6501,0.005949
93.030,48.6501,0.005949
93.047,48.6501,0.005949
93.062,48.6501,0.005949
93.077,48.6501,0.005949
93.093,48.6501,0.005949
93.116,48.6501,0.005949
93.133,48.6501,0.005949
93.165,48.6501,0.005949
93.188,48.6501,0.005996
93.204,48.6501,0.005996
93.220,48.6501,0.005996
93.235,48.6501,0.005996
93.262,48.6501,0.005996
93.283,48.6501,0.005996
93.300,48.6501,0.005996
93.315,48.6501,0.005996
93.332,48.6501,0.005996
93.347,48.6501,0.005996
93.363,48.6502,0.005996
93.380,48.6505,0.005996
93.396,48.6510,0.005930
93.411,48.6517,0.005930
93.436,48.6533,0.005930
93.458,48.6549,0.005930
93.476,48.6565,0.005930
93.492,48.6582,0.005930
93.508,48.6600,0.005930
93.523,48.6621,0.005930
93.540,48.6644,0.005930
93.556,48.6668,0.005930
93.572,48.6695,0.005930
93.588,48.6724,0.005930
93.603,48.6752,0.005930
93.619,48.6786,0.005930
93.636,48.6821,0.005930
93.652,48.6855,0.005799
93.667,48.6894,0.005799
93.685,48.6937,0.005799
93.701,48.6983,0.005799
93.720,48.7034,0.005799
93.737,48.7083,0.005799
93.768,48.7179,0.005799
93.800,48.7282,0.005799
93.816,48.7339,0.005799
93.831,48.7396,0.005799
93.847,48.7454,0.005799
93.862,48.7513,0.005799
93.893,48.7635,0.005799
93.923,48.7764,0.005733
93.941,48.7844,0.005733
93.970,48.7983,0.005733
93.987,48.8061,0.005733
94.005,48.8149,0.005733
94.033,48.8289,0.005733
94.051,48.8386,0.005733
94.069,48.8481,0.005733
94.095,48.8626,0.005733
94.115,48.8747,0.005733
94.132,48.8842,0.005733
94.148,48.8936,0.005733
94.164,48.9038,0.005742
94.179,48.9132,0.005742
94.196,48.9239,0.005742
94.212,48.9344,0.005742
94.227,48.9442,0.005742
94.243,48.9552,0.005742
94.260,48.9668,0.005742
94.275,48.9776,0.005742
94.291,48.9886,0.005742
94.313,49.0046,0.005742
94.330,49.0170,0.005742
94.358,49.0381,0.005742
94.378,49.0534,0.005742
94.393,49.0655,0.005742
94.409,49.0788,0.005657
94.425,49.0913,0.005657
94.441,49.1045,0.005657
94.457,49.1184,0.005657
94.473,49.1313,0.005657
94.490,49.1459,0.005657
94.507,49.1617,0.005657
94.529,49.1804,0.005657
94.560,49.2087,0.005657
94.576,49.2239,0.005657
94.607,49.2522,0.005657
94.624,49.2689,0.005657
94.654,49.2980,0.005441
94.684,49.3293,0.005441
94.701,49.3458,0.005441
94.716,49.3616,0.005441
94.732,49.3783,0.005441
94.764,49.4118,0.005441
94.794,49.4445,0.005441
94.809,49.4613,0.005441
94.825,49.4789,0.005441
94.841,49.4966,0.005441
94.869,49.5290,0.005441
94.885,49.5480,0.005441
94.901,49.5665,0.005290
94.917,49.5852,0.005290
94.933,49.6048,0.005290
94.949,49.6238,0.005290
94.965,49.6427,0.005290
94.981,49.6626,0.005290
95.000,49.6880,0.005290
95.028,49.7214,0.005290
95.045,49.7437,0.005290
95.063,49.7679,0.005290
95.089,49.8015,0.005290
95.109,49.8270,0.005290
95.128,49.8544,0.005290
95.151,49.8840,0.005290
95.181,49.9259,0.005130
95.198,49.9498,0.005130
95.228,49.9919,0.005130
95.259,50.0369,0.005130
95.289,50.0805,0.005130
95.320,50.1268,0.005130
95.351,50.1726,0.005130
95.381,50.2190,0.005130
95.397,50.2435,0.005130
95.425,50.2873,0.004876
95.441,50.3131,0.004876
95.457,50.3381,0.004876
95.473,50.3629,0.004876
95.490,50.3911,0.004876
95.505,50.4159,0.004876
95.521,50.4410,0.004876
95.537,50.4677,0.004876
95.553,50.4949,0.004876
95.569,50.5216,0.004876
95.585,50.5479,0.004876
95.601,50.5753,0.004876
95.617,50.6037,0.004876
95.633,50.6305,0.004876
95.649,50.6594,0.004594
95.665,50.6868,0.004594
95.681,50.7150,0.004594
95.697,50.7433,0.004594
95.713,50.7723,0.004594
95.729,50.8005,0.004594
95.746,50.8310,0.004594
95.766,50.8702,0.004594
95.798,50.9261,0.004594
95.814,50.9569,0.004594
95.845,51.0142,0.004594
95.860,51.0440,0.004594
95.876,51.0742,0.004594
95.906,51.1328,0.004443
95.938,51.1946,0.004443
95.969,51.2542,0.004443
95.985,51.2885,0.004443
96.000,51.3182,0.004443
96.016,51.3505,0.004443
96.033,51.3855,0.004443
96.049,51.4184,0.004443
96.065,51.4501,0.004443
96.080,51.4820,0.004443
96.096,51.5146,0.004443
96.112,51.5501,0.004443
96.128,51.5816,0.004443
96.145,51.6171,0.004292
96.160,51.6496,0.004292
96.177,51.6853,0.004292
96.193,51.7198,0.004292
96.209,51.7516,0.004292
96.224,51.7845,0.004292
96.241,51.8190,0.004292
96.256,51.8513,0.004292
96.272,51.8832,0.004292
96.288,51.9160,0.004292
96.306,51.9517,0.004292
96.326,51.9920,0.004292
96.356,52.0530,0.004292
96.386,52.1115,0.004142
96.416,52.1705,0.004142
96.432,52.2015,0.004142
96.448,52.2322,0.004142
96.465,52.2642,0.004142
96.484,52.3001,0.004142
96.509,52.3466,0.004142
96.540,52.4041,0.004142
96.556,52.4335,0.004142
96.572,52.4622,0.004142
96.588,52.4922,0.004142
96.604,52.5209,0.004142
96.632,52.5706,0.004019
96.651,52.6047,0.004019
96.668,52.6343,0.004019
96.684,52.6616,0.004019
96.700,52.6888,0.004019
96.716,52.7163,0.004019
96.731,52.7432,0.004019
96.748,52.7707,0.004019
96.763,52.7967,0.004019
96.779,52.8237,0.004019
96.796,52.8512,0.004019
96.811,52.8764,0.004019
96.827,52.9024,0.004019
96.843,52.9287,0.004019
96.860,52.9554,0.004019
96.875,52.9796,0.004019
96.891,53.0054,0.003803
96.908,53.0309,0.003803
96.924,53.0557,0.003803
96.939,53.0807,0.003803
96.956,53.1050,0.003803
96.972,53.1300,0.003803
96.987,53.1527,0.003803
97.004,53.1784,0.003803
97.023,53.2066,0.003803
97.045,53.2390,0.003803
97.062,53.2626,0.003803
97.078,53.2856,0.003803
97.094,53.3091,0.003803
97.109,53.3318,0.003803
97.125,53.3533,0.003803
97.142,53.3778,0.003803
97.172,53.4175,0.003652
97.189,53.4417,0.003652
97.206,53.4637,0.003652
97.221,53.4847,0.003652
97.237,53.5054,0.003652
97.253,53.5264,0.003652
97.271,53.5492,0.003652
97.297,53.5828,0.003652
97.317,53.6095,0.003652
97.333,53.6290,0.003652
97.349,53.6493,0.003652
97.365,53.6677,0.003652
97.381,53.6875,0.003652
97.398,53.7071,0.003652
97.413,53.7262,0.003652
97.429,53.7443,0.003464
97.445,53.7633,0.003464
97.461,53.7818,0.003464
97.477,53.8000,0.003464
97.493,53.8174,0.003464
97.510,53.8366,0.003464
97.530,53.8589,0.003464
97.545,53.8755,0.003464
97.561,53.8920,0.003464
97.583,53.9161,0.003464
97.600,53.9339,0.003464
97.623,53.9570,0.003464
97.638,53.9725,0.003464
97.655,53.9895,0.003304
97.684,54.0185,0.003304
97.700,54.0342,0.003304
97.730,54.0627,0.003304
97.746,54.0773,0.003304
97.777,54.1066,0.003304
97.808,54.1337,0.003304
97.839,54.1608,0.003304
97.861,54.1801,0.003304
97.884,54.1992,0.003304
97.902,54.2132,0.003304
97.918,54.2270,0.003248
97.934,54.2389,0.003248
97.950,54.2514,0.003248
97.966,54.2640,0.003248
97.982,54.2760,0.003248
97.999,54.2889,0.003248
98.015,54.3011,0.003248
98.031,54.3122,0.003248
98.053,54.3278,0.003248
98.083,54.3482,0.003248
98.114,54.3689,0.003248
98.134,54.3815,0.003248
98.151,54.3925,0.003248
98.166,54.4018,0.003172
98.182,54.4113,0.003172
98.198,54.4214,0.003172
98.214,54.4302,0.003172
98.230,54.4391,0.003172
98.246,54.4480,0.003172
98.262,54.4573,0.003172
98.278,54.4654,0.003172
98.294,54.4738,0.003172
98.310,54.4820,0.003172
98.326,54.4901,0.003172
98.342,54.4978,0.003172
98.358,54.5054,0.003172
98.374,54.5129,0.003172
98.391,54.5207,0.003172
98.407,54.5273,0.002993
98.422,54.5342,0.002993
98.445,54.5434,0.002993
98.462,54.5506,0.002993
98.483,54.5580,0.002993
98.502,54.5651,0.002993
98.518,54.5706,0.002993
98.534,54.5760,0.002993
98.551,54.5816,0.002993
98.568,54.5868,0.002993
98.591,54.5939,0.002993
98.621,54.6024,0.002993
98.653,54.6105,0.002993
98.683,54.6178,0.002993
98.708,54.6228,0.002617
98.723,54.6260,0.002617
98.739,54.6289,0.002617
98.755,54.6316,0.002617
98.771,54.6343,0.002617
98.788,54.6367,0.002617
98.804,54.6388,0.002617
98.820,54.6408,0.002617
98.836,54.6426,0.002617
98.852,54.6442,0.002617
98.867,54.6456,0.002617
98.885,54.6470,0.002617
98.906,54.6482,0.002617
98.933,54.6493,0.002033
98.950,54.6498,0.002033
98.979,54.6501,0.002033
98.995,54.6501,0.002033
99.011,54.6501,0.002033
99.028,54.6501,0.002033
99.043,54.6501,0.002033
99.060,54.6501,0.002033
99.080,54.6501,0.002033
99.103,54.6501,0.002033
99.123,54.6501,0.002033
99.141,54.6501,0.002033
99.165,54.6501,0.002033
99.181,54.6501,0.001939
99.212,54.6501,0.001939
99.227,54.6501,0.001939
99.243,54.6501,0.001939
99.267,54.6501,0.001939
99.291,54.6501,0.001939
99.320,54.6501,0.001939
99.336,54.6501,0.001939
