Elapsed Time (s),Position (mm),Force (N)
-0.012,56.2001,-0.029003
0.019,56.2001,-0.031420
0.050,56.2001,-0.027794
0.080,56.2001,-0.024169
0.111,56.2001,-0.027794
0.143,56.2001,-0.027794
0.174,56.2001,-0.027794
0.206,56.2001,-0.027794
0.236,56.2001,-0.021752
0.268,56.2001,-0.022961
0.299,56.2001,-0.025377
0.330,56.2001,-0.024169
0.361,56.2001,-0.025377
0.381,56.2001,-0.020544
0.407,56.2001,-0.022961
0.438,56.2001,-0.025377
0.470,56.2001,-0.024169
0.499,56.2001,-0.025377
0.530,56.2001,-0.022961
0.561,56.2001,-0.026586
0.593,56.2001,-0.024169
0.624,56.2001,-0.024169
0.654,56.2001,-0.025377
0.685,56.2001,-0.024169
0.716,56.2001,-0.024169
0.747,56.2001,-0.022961
0.778,56.2001,-0.024169
0.809,56.2001,-0.025377
0.839,56.2001,-0.020544
0.861,56.2001,-0.022961
0.886,56.2001,-0.022961
0.917,56.2001,-0.024169
0.948,56.2001,-0.022961
0.979,56.2001,-0.020544
1.010,56.2001,-0.022961
1.042,56.2001,-0.020544
1.073,56.2001,-0.022961
1.105,56.2001,-0.027794
1.135,56.2001,-0.025377
1.167,56.2001,-0.020544
1.198,56.2001,-0.020544
1.229,56.2001,-0.021752
1.260,56.2001,-0.024169
1.291,56.2001,-0.020544
1.322,56.2001,-0.019335
1.354,56.2001,-0.025377
1.386,56.2001,-0.024169
1.417,56.2001,-0.016918
1.448,56.2001,-0.016918
1.468,56.2001,-0.019335
1.494,56.2001,-0.024169
1.525,56.2001,-0.014501
1.556,56.2001,-0.019335
1.588,56.2001,-0.019335
1.619,56.2001,-0.020544
1.650,56.2001,-0.018127
1.681,56.2001,-0.019335
1.713,56.2001,-0.019335
1.745,56.2001,-0.020544
1.774,56.2001,-0.016918
1.805,56.2001,-0.020544
1.835,56.2001,-0.019335
1.866,56.2001,-0.018127
1.899,56.2001,-0.022961
1.929,56.2001,-0.018127
1.961,56.2001,-0.022961
1.992,56.2001,-0.016918
2.022,56.2001,-0.016918
2.057,56.2001,-0.021752
2.084,56.2001,-0.021752
2.115,56.2001,-0.019335
2.146,56.2001,-0.016918
2.178,56.2001,-0.018127
2.209,56.2001,-0.021752
2.240,56.2001,-0.022961
2.271,56.2001,-0.016918
2.303,56.2001,-0.019335
2.333,56.2001,-0.016918
2.364,56.2001,-0.016918
2.394,56.2001,-0.016918
2.426,56.2001,-0.018127
2.457,56.2001,-0.019335
2.488,56.2001,-0.020544
2.519,56.2001,-0.020544
2.540,56.2001,-0.021752
2.565,56.2001,-0.021752
2.597,56.2001,-0.024169
2.628,56.2001,-0.022961
2.649,56.2001,-0.020544
2.675,56.2001,-0.020544
2.706,56.2001,-0.019335
2.737,56.2001,-0.019335
2.768,56.2001,-0.020544
2.798,56.2001,-0.018127
2.829,56.2001,-0.020544
2.860,56.2001,-0.019335
2.890,56.2001,-0.016918
2.922,56.2001,-0.016918
2.953,56.2001,-0.022961
2.984,56.2001,-0.020544
3.017,56.2001,-0.019335
3.047,56.2001,-0.020544
3.077,56.2001,-0.020544
3.108,56.2001,-0.024169
3.128,56.2001,-0.020544
3.154,56.2001,-0.019335
3.185,56.2001,-0.019335
3.206,56.2001,-0.020544
3.232,56.2001,-0.020544
3.263,56.2001,-0.020544
3.294,56.2001,-0.019335
3.324,56.2001,-0.021752
3.357,56.2001,-0.021752
3.387,56.2001,-0.016918
3.419,56.2001,-0.016918
3.450,56.2001,-0.021752
3.481,56.2001,-0.018127
3.513,56.2001,-0.015710
3.544,56.2001,-0.015710
3.575,56.2001,-0.016918
3.607,56.2001,-0.016918
3.638,56.2001,-0.014501
3.668,56.2001,-0.019335
3.699,56.2001,-0.022961
3.730,56.2001,-0.019335
3.750,56.2001,-0.019335
3.778,56.2001,-0.024169
3.798,56.2001,-0.019335
3.830,56.2001,-0.019335
3.854,56.2001,-0.018127
3.886,56.2001,-0.019335
3.917,56.2001,-0.019335
3.949,56.2001,-0.013293
3.979,56.2001,-0.014501
4.010,56.2001,-0.015710
4.042,56.2001,-0.016918
4.074,56.2001,-0.015710
4.105,56.2001,-0.018127
4.136,56.2001,-0.016918
4.168,56.2001,-0.016918
4.198,56.2001,-0.015710
4.230,56.2001,-0.013293
4.260,56.2001,-0.019335
4.292,56.2001,-0.014501
4.322,56.2001,-0.015710
4.353,56.2001,-0.018127
4.374,56.2001,-0.018127
4.399,56.2001,-0.019335
4.429,56.2001,-0.018127
4.460,56.2001,-0.016918
4.491,56.2001,-0.019335
4.521,56.2001,-0.019335
4.552,56.2001,-0.021752
4.583,56.2001,-0.021752
4.615,56.2001,-0.019335
4.647,56.2001,-0.016918
4.679,56.2001,-0.020544
4.710,56.2001,-0.018127
4.741,56.2001,-0.014501
4.773,56.2001,-0.014501
4.803,56.2001,-0.014501
4.834,56.2001,-0.018127
4.854,56.2001,-0.018127
4.881,56.2001,-0.015710
4.901,56.2001,-0.015710
4.928,56.2001,-0.016918
4.959,56.2001,-0.016918
4.990,56.2001,-0.016918
5.021,56.2001,-0.018127
5.053,56.2001,-0.018127
5.084,56.2001,-0.019335
5.115,56.2001,-0.015710
5.146,56.2001,-0.019335
5.177,56.2001,-0.021752
5.209,56.2001,-0.018127
5.240,56.2001,-0.018127
5.271,56.2001,-0.019335
5.303,56.2001,-0.019335
5.334,56.2001,-0.020544
5.365,56.2001,-0.018127
5.397,56.2001,-0.019335
5.427,56.2001,-0.020544
5.457,56.2001,-0.012084
5.488,56.2001,-0.013293
5.510,56.2001,-0.013293
5.535,56.2001,-0.018127
5.567,56.2001,-0.016918
5.597,56.2001,-0.016918
5.628,56.2001,-0.021752
5.660,56.2001,-0.021752
5.690,56.2001,-0.015710
5.722,56.2001,-0.015710
5.753,56.2001,-0.014501
5.784,56.2001,-0.014501
5.816,56.2001,-0.016918
5.847,56.2001,-0.019335
5.878,56.2001,-0.014501
5.910,56.2001,-0.020544
5.941,56.2001,-0.020544
5.971,56.2001,-0.021752
6.003,56.2001,-0.021752
6.033,56.2001,-0.015710
6.067,56.2001,-0.018127
6.096,56.2001,-0.019335
6.128,56.2001,-0.014501
6.159,56.2001,-0.014501
6.191,56.2001,-0.016918
6.211,56.2001,-0.016918
6.238,56.2001,-0.019335
6.259,56.2001,-0.019335
6.284,56.2001,-0.019335
6.316,56.2001,-0.018127
6.347,56.2001,-0.018127
6.377,56.2001,-0.016918
6.408,56.2001,-0.014501
6.439,56.2001,-0.012084
6.470,56.2001,-0.014501
6.500,56.2001,-0.015710
6.531,56.2001,-0.020544
6.563,56.2001,-0.022961
6.594,56.2001,-0.019335
6.625,56.2001,-0.016918
6.657,56.2001,-0.014501
6.688,56.2001,-0.018127
6.709,56.2001,-0.018127
6.734,56.2001,-0.015710
6.755,56.2001,-0.015710
6.781,56.2001,-0.016918
6.812,56.2001,-0.018127
6.843,56.2001,-0.015710
6.874,56.2001,-0.014501
6.905,56.2001,-0.015710
6.936,56.2001,-0.018127
6.967,56.2001,-0.015710
6.998,56.2001,-0.016918
7.028,56.2001,-0.018127
7.059,56.2001,-0.018127
7.090,56.2001,-0.016918
7.122,56.2001,-0.016918
7.154,56.2001,-0.016918
7.185,56.2001,-0.016918
7.216,56.2001,-0.016918
7.248,56.2001,-0.016918
7.278,56.2001,-0.013293
7.298,56.2001,-0.016918
7.325,56.2001,-0.016918
7.357,56.2001,-0.024169
7.388,56.2001,-0.012084
7.417,56.2001,-0.010876
7.449,56.2001,-0.012084
7.480,56.2001,-0.015710
7.512,56.2001,-0.016918
7.542,56.2001,-0.018127
7.573,56.2001,-0.019335
7.604,56.2001,-0.019335
7.636,56.2001,-0.019335
7.666,56.2001,-0.015710
7.698,56.2001,-0.016918
7.729,56.2001,-0.015710
7.760,56.2001,-0.014501
7.792,56.2001,-0.016918
7.822,56.2001,-0.019335
7.842,56.2001,-0.021752
7.869,56.2001,-0.019335
7.899,56.2001,-0.015710
7.932,56.2001,-0.018127
7.962,56.2001,-0.018127
7.993,56.2001,-0.015710
8.024,56.2001,-0.014501
8.055,56.2001,-0.016918
8.086,56.2001,-0.018127
8.107,56.2001,-0.016918
8.132,56.2001,-0.014501
8.164,56.2001,-0.014501
8.195,56.2001,-0.014501
8.226,56.2001,-0.018127
8.258,56.2001,-0.015710
8.289,56.2001,-0.015710
8.319,56.2001,-0.015710
8.351,56.2001,-0.018127
8.381,56.2001,-0.019335
8.413,56.2001,-0.016918
8.444,56.2001,-0.016918
8.476,56.2001,-0.015710
8.505,56.2001,-0.015710
8.537,56.2001,-0.013293
8.569,56.2001,-0.014501
8.600,56.2001,-0.016918
8.631,56.2001,-0.015710
8.651,56.2001,-0.015710
8.677,56.2001,-0.012084
8.708,56.2001,-0.018127
8.739,56.2001,-0.015710
8.771,56.2001,-0.015710
8.801,56.2001,-0.016918
8.832,56.2001,-0.018127
8.864,56.2001,-0.016918
8.895,56.2001,-0.015710
8.927,56.2001,-0.014501
8.960,56.2001,-0.019335
8.990,56.2001,-0.015710
9.021,56.2001,-0.015710
9.052,56.2001,-0.018127
9.082,56.2001,-0.018127
9.113,56.2001,-0.018127
9.144,56.2001,-0.018127
9.176,56.2001,-0.025377
9.207,56.2001,-0.016918
9.238,56.2001,-0.019335
9.259,56.2001,-0.016918
9.284,56.2001,-0.016918
9.315,56.2001,-0.010876
9.346,56.2001,-0.016918
9.378,56.2001,-0.015710
9.409,56.2001,-0.020544
9.440,56.2001,-0.018127
9.471,56.2001,-0.010876
9.503,56.2001,-0.014501
9.533,56.2001,-0.018127
9.564,56.2001,-0.018127
9.595,56.2001,-0.018127
9.626,56.2001,-0.015710
9.657,56.2001,-0.013293
9.688,56.2001,-0.013293
9.719,56.2001,-0.016918
9.751,56.2001,-0.019335
9.782,56.2001,-0.015710
9.802,56.2001,-0.015710
9.827,56.2001,-0.012084
9.858,56.2001,-0.013293
9.889,56.2001,-0.018127
9.927,56.2001,-0.016918
9.953,56.2001,-0.016918
9.985,56.2001,-0.015710
10.013,56.2001,-0.014501
10.045,56.2001,-0.014501
10.076,56.2001,-0.015710
10.107,56.2001,-0.021752
10.139,56.2001,-0.016918
10.169,56.2001,-0.020544
10.201,56.2001,-0.016918
10.232,56.2001,-0.018127
10.262,56.2001,-0.016918
10.282,56.2001,-0.016918
10.305,56.2001,-0.018127
10.339,56.2001,-0.018127
10.370,56.2001,-0.016918
10.400,56.2001,-0.013293
10.431,56.2001,-0.016918
10.462,56.2001,-0.016918
10.494,56.2001,-0.014501
10.525,56.2001,-0.013293
10.556,56.2001,-0.019335
10.576,56.2001,-0.015710
10.604,56.2001,-0.012084
10.625,56.2001,-0.014501
10.648,56.2001,-0.020544
10.681,56.2001,-0.022961
10.711,56.2001,-0.014501
10.742,56.2001,-0.013293
10.773,56.2001,-0.015710
10.806,56.2001,-0.016918
10.832,56.2001,-0.014501
10.867,56.2001,-0.010876
10.898,56.2001,-0.013293
10.929,56.2001,-0.016918
10.960,56.2001,-0.015710
10.991,56.2001,-0.015710
11.022,56.2001,-0.014501
11.053,56.2001,-0.014501
11.085,56.2001,-0.014501
11.114,56.1835,-0.012084
11.135,56.1220,0.003625
11.161,56.0427,-0.002417
11.192,55.9467,0.007251
11.215,55.8811,0.007251
11.239,55.8091,0.018127
11.271,55.7148,0.027794
11.301,55.6209,0.033837
11.333,55.5279,0.049546
11.358,55.4532,0.049546
11.379,55.3885,0.066465
11.409,55.2961,0.076132
11.441,55.2033,0.084591
11.473,55.1065,0.095467
11.502,55.0162,0.105135
11.533,54.9282,0.135346
11.564,54.8362,0.147431
11.596,54.7371,0.160724
11.627,54.6466,0.172808
11.658,54.5515,0.186101
11.689,54.4603,0.200602
11.709,54.3988,0.210270
11.735,54.3202,0.213895
11.757,54.2559,0.213895
11.781,54.1836,0.217521
11.811,54.0928,0.217521
11.843,53.9958,0.215104
11.873,53.9064,0.192143
11.894,53.8432,0.178850
11.920,53.7649,0.178850
11.951,53.6721,0.157098
11.982,53.5776,0.031420
12.014,53.4846,0.003625
12.044,53.3928,0.004834
12.075,53.3002,0.001208
12.106,53.2057,0.006042
12.138,53.1114,0.006042
12.170,53.0154,0.006042
12.202,52.9215,0.002417
12.233,52.8259,0.002417
12.265,52.7329,0.002417
12.295,52.6408,0.004834
12.325,52.5502,0.001208
12.356,52.4578,0.001208
12.388,52.3608,-0.001208
12.419,52.2691,0.002417
12.451,52.1737,0.006042
12.481,52.0830,0.004834
12.503,52.0164,0.004834
12.528,51.9418,-0.002417
12.559,51.8497,0.001208
12.590,51.7540,0.000000
12.621,51.6618,0.003625
12.652,51.5677,0.002417
12.683,51.4768,0.002417
12.714,51.3814,0.000000
12.746,51.2890,-0.003625
12.777,51.1918,-0.003625
12.809,51.0996,-0.001208
12.840,51.0036,0.002417
12.871,50.9122,0.004834
12.903,50.8156,0.007251
12.934,50.7237,0.000000
12.965,50.6332,0.000000
12.996,50.5393,-0.002417
13.027,50.4454,-0.003625
13.058,50.3488,0.000000
13.090,50.2573,0.006042
13.122,50.1615,0.004834
13.151,50.1501,-0.001208
13.184,50.1501,-0.020544
13.215,50.1501,0.003625
13.246,50.1501,0.003625
13.276,50.1501,0.003625
13.306,50.1501,0.001208
13.336,50.1501,0.002417
13.368,50.1501,0.003625
13.399,50.1501,0.001208
13.431,50.1501,0.008459
13.462,50.1501,0.001208
13.493,50.1501,-0.002417
13.524,50.1501,-0.002417
13.555,50.1501,0.000000
13.586,50.1501,0.000000
13.606,50.1501,-0.001208
13.632,50.1501,0.001208
13.654,50.1501,0.001208
13.678,50.1501,0.002417
13.709,50.1501,0.001208
13.740,50.1501,0.001208
13.771,50.2276,-0.001208
13.801,50.3189,-0.015710
13.832,50.4116,-0.004834
13.863,50.5046,-0.002417
13.893,50.5972,0.000000
13.924,50.6870,-0.002417
13.955,50.7811,-0.002417
13.987,50.8775,0.002417
14.019,50.9723,0.000000
14.047,51.0583,0.000000
14.080,51.1543,0.001208
14.111,51.2488,0.001208
14.141,51.3374,0.000000
14.172,51.4304,-0.002417
14.203,51.5267,-0.002417
14.235,51.6203,0.003625
14.265,51.7102,0.000000
14.286,51.7742,-0.002417
14.311,51.8480,-0.002417
14.342,51.9419,0.002417
14.372,52.0309,0.003625
14.404,52.1282,0.002417
14.434,52.2172,0.001208
14.469,52.3231,0.001208
14.497,52.4066,-0.001208
14.529,52.5028,-0.001208
14.560,52.5950,0.000000
14.592,52.6900,0.001208
14.622,52.7809,0.001208
14.655,52.8785,0.001208
14.686,52.9733,0.001208
14.716,53.0636,-0.002417
14.747,53.1568,0.000000
14.778,53.2498,0.001208
14.809,53.3416,-0.003625
14.830,53.4071,-0.004834
14.856,53.4830,-0.004834
14.887,53.5784,-0.002417
14.919,53.6740,0.000000
14.949,53.7607,0.001208
14.980,53.8549,0.003625
15.011,53.9476,0.002417
15.042,54.0400,0.001208
15.073,54.1340,-0.003625
15.104,54.2266,0.002417
15.127,54.2962,0.001208
15.150,54.3664,-0.004834
15.181,54.4582,-0.004834
15.211,54.5495,0.001208
15.244,54.6478,-0.001208
15.273,54.7328,-0.004834
15.304,54.8258,-0.004834
15.335,54.9212,-0.003625
15.366,55.0157,-0.008459
15.397,55.1062,-0.007251
15.428,55.1986,-0.004834
15.460,55.2935,-0.009668
15.490,55.3859,-0.012084
15.521,55.4813,-0.009668
15.542,55.5397,-0.012084
15.569,55.6225,-0.012084
15.590,55.6832,-0.016918
15.615,55.7585,-0.020544
15.646,55.8526,-0.020544
15.678,55.9501,-0.021752
15.707,56.0380,-0.029003
15.738,56.1289,-0.036253
15.762,56.1501,-0.036253
15.784,56.1501,-0.024169
15.816,56.1501,-0.036253
15.847,56.1501,-0.035045
15.878,56.1501,-0.033837
15.909,56.1501,-0.035045
15.941,56.1501,-0.032628
15.972,56.1501,-0.033837
16.003,56.1501,-0.033837
16.034,56.1501,-0.031420
16.055,56.1501,-0.031420
16.080,56.1501,-0.032628
16.102,56.1501,-0.035045
16.126,56.1501,-0.031420
16.157,56.1501,-0.029003
16.178,56.1501,-0.033837
16.203,56.1501,-0.033837
16.235,56.1501,-0.030211
16.266,56.1501,-0.024169
16.298,56.1501,-0.026586
16.329,56.1501,-0.022961
16.360,56.1501,-0.024169
16.392,56.1501,-0.029003
16.423,56.1501,-0.025377
16.453,56.1501,-0.024169
16.484,56.1501,-0.024169
16.516,56.1501,-0.027794
16.547,56.1501,-0.026586
16.577,56.1501,-0.027794
16.608,56.1501,-0.024169
16.638,56.1501,-0.025377
16.659,56.1501,-0.026586
16.685,56.1501,-0.022961
16.705,56.1501,-0.024169
16.732,56.1501,-0.020544
16.753,56.1501,-0.020544
16.779,56.1501,-0.024169
16.810,56.1501,-0.025377
16.841,56.1501,-0.027794
16.872,56.1501,-0.020544
16.904,56.1501,-0.026586
16.935,56.1501,-0.021752
16.965,56.1501,-0.020544
16.996,56.1501,-0.024169
17.028,56.1501,-0.024169
17.060,56.1501,-0.025377
17.091,56.1501,-0.022961
17.122,56.1501,-0.022961
17.154,56.1501,-0.022961
17.185,56.1501,-0.024169
17.217,56.1501,-0.024169
17.248,56.1501,-0.025377
17.279,56.1501,-0.020544
17.310,56.1501,-0.020544
17.340,56.1501,-0.020544
17.361,56.1501,-0.020544
17.387,56.1501,-0.020544
17.418,56.1501,-0.019335
17.448,56.1501,-0.022961
17.479,56.1501,-0.027794
17.510,56.1501,-0.022961
17.541,56.1501,-0.020544
17.572,56.1501,-0.020544
17.605,56.1501,-0.022961
17.635,56.1501,-0.021752
17.667,56.1501,-0.024169
17.697,56.1501,-0.022961
17.729,56.1501,-0.018127
17.759,56.1501,-0.020544
17.790,56.1501,-0.019335
17.822,56.1501,-0.021752
17.853,56.1501,-0.021752
17.884,56.1501,-0.019335
17.905,56.1501,-0.019335
17.930,56.1501,-0.025377
17.961,56.1501,-0.026586
17.991,56.1501,-0.024169
18.022,56.1501,-0.025377
18.053,56.1501,-0.018127
18.084,56.1501,-0.016918
18.115,56.1501,-0.018127
18.147,56.1501,-0.019335
18.178,56.1501,-0.021752
18.210,56.1501,-0.022961
18.241,56.1501,-0.021752
18.271,56.1501,-0.021752
18.304,56.1501,-0.019335
18.335,56.1501,-0.015710
18.365,56.1501,-0.021752
18.398,56.1501,-0.022961
18.427,56.1501,-0.021752
18.458,56.1501,-0.021752
18.489,56.1501,-0.014501
18.521,56.1501,-0.018127
18.551,56.1501,-0.019335
18.582,56.1501,-0.018127
18.612,56.1501,-0.016918
18.643,56.1501,-0.015710
18.675,56.1501,-0.019335
18.706,56.1501,-0.018127
18.737,56.1501,-0.020544
18.767,56.1501,-0.021752
18.798,56.1501,-0.020544
18.829,56.1501,-0.022961
18.860,56.1501,-0.022961
18.891,56.1501,-0.020544
18.912,56.1501,-0.020544
18.937,56.1501,-0.020544
18.969,56.1501,-0.020544
19.000,56.1501,-0.022961
19.032,56.1501,-0.014501
19.062,56.1501,-0.016918
19.094,56.1501,-0.024169
19.126,56.1501,-0.021752
19.156,56.1501,-0.018127
19.188,56.1501,-0.018127
19.218,56.1501,-0.020544
19.249,56.1501,-0.016918
19.281,56.1501,-0.016918
19.311,56.1501,-0.016918
19.343,56.1501,-0.018127
19.373,56.1501,-0.016918
19.405,56.1501,-0.019335
19.436,56.1501,-0.021752
19.468,56.1501,-0.020544
19.488,56.1501,-0.019335
19.514,56.1501,-0.018127
19.545,56.1501,-0.020544
19.575,56.1501,-0.021752
19.606,56.1501,-0.016918
19.637,56.1501,-0.020544
19.668,56.1501,-0.022961
19.699,56.1501,-0.021752
19.731,56.1501,-0.019335
19.754,56.1501,-0.019335
19.776,56.1501,-0.018127
19.809,56.1501,-0.018127
19.840,56.1501,-0.019335
19.870,56.1501,-0.018127
19.902,56.1501,-0.019335
19.933,56.1501,-0.018127
19.963,56.1501,-0.012084
19.984,56.1501,-0.016918
20.010,56.1501,-0.016918
20.041,56.1501,-0.016918
20.073,56.1501,-0.019335
20.105,56.1501,-0.014501
20.135,56.1501,-0.019335
20.167,56.1501,-0.020544
20.198,56.1501,-0.022961
20.229,56.1501,-0.020544
20.260,56.1501,-0.018127
20.292,56.1501,-0.020544
20.324,56.1501,-0.019335
20.354,56.1501,-0.018127
20.386,56.1501,-0.019335
20.418,56.1501,-0.016918
20.449,56.1501,-0.016918
20.479,56.1501,-0.019335
20.510,56.1501,-0.020544
20.541,56.1501,-0.014501
20.572,56.1501,-0.016918
20.603,56.1501,-0.021752
20.634,56.1501,-0.014501
20.655,56.1501,-0.013293
20.682,56.1501,-0.015710
20.703,56.1501,-0.014501
20.728,56.1501,-0.016918
20.759,56.1501,-0.019335
20.789,56.1501,-0.016918
20.819,56.1501,-0.015710
20.850,56.1501,-0.016918
20.881,56.1501,-0.014501
20.912,56.1501,-0.019335
20.942,56.1501,-0.019335
20.973,56.1501,-0.018127
21.004,56.1501,-0.018127
21.034,56.1501,-0.015710
21.055,56.1501,-0.014501
21.082,56.1501,-0.018127
21.112,56.1501,-0.016918
21.145,56.1501,-0.015710
21.175,56.1501,-0.015710
21.205,56.1501,-0.018127
21.237,56.1501,-0.015710
21.268,56.1501,-0.015710
21.300,56.1501,-0.015710
21.331,56.1501,-0.018127
21.362,56.1501,-0.019335
21.393,56.1501,-0.020544
21.424,56.1501,-0.020544
21.457,56.1501,-0.013293
21.488,56.1501,-0.013293
21.519,56.1501,-0.016918
21.551,56.1501,-0.014501
21.582,56.1501,-0.014501
21.613,56.1501,-0.019335
21.644,56.1501,-0.015710
21.676,56.1501,-0.013293
21.706,56.1501,-0.013293
21.727,56.1501,-0.013293
21.752,56.1501,-0.016918
21.783,56.1501,-0.015710
21.815,56.1501,-0.013293
21.846,56.1501,-0.013293
21.876,56.1501,-0.014501
21.907,56.1501,-0.018127
21.938,56.1501,-0.019335
21.969,56.1501,-0.019335
22.000,56.1501,-0.016918
22.030,56.1501,-0.016918
22.061,56.1501,-0.018127
22.092,56.1501,-0.024169
22.124,56.1501,-0.021752
22.155,56.1501,-0.015710
22.175,56.1501,-0.019335
22.201,56.1501,-0.022961
22.222,56.1501,-0.022961
22.247,56.1501,-0.020544
22.278,56.1501,-0.020544
22.309,56.1501,-0.019335
22.339,56.1501,-0.018127
22.370,56.1501,-0.016918
22.403,56.1501,-0.013293
22.433,56.1501,-0.020544
22.465,56.1501,-0.020544
22.496,56.1501,-0.015710
22.526,56.1501,-0.015710
22.557,56.1501,-0.015710
22.589,56.1501,-0.018127
22.621,56.1501,-0.015710
22.653,56.1501,-0.018127
22.684,56.1501,-0.019335
22.715,56.1501,-0.014501
22.745,56.1501,-0.018127
22.767,56.1501,-0.018127
22.792,56.1501,-0.019335
22.823,56.1501,-0.015710
22.854,56.1501,-0.018127
22.886,56.1501,-0.018127
22.916,56.1501,-0.016918
22.948,56.1501,-0.015710
22.979,56.1501,-0.015710
23.010,56.1501,-0.019335
23.042,56.1501,-0.016918
23.073,56.1501,-0.016918
23.104,56.1501,-0.016918
23.136,56.1501,-0.018127
23.166,56.1501,-0.019335
23.203,56.1501,-0.018127
23.229,56.1501,-0.019335
23.260,56.1501,-0.019335
23.292,56.1501,-0.015710
23.315,56.1501,-0.015710
23.339,56.1501,-0.013293
23.370,56.1501,-0.019335
23.401,56.1501,-0.014501
23.432,56.1501,-0.018127
23.462,56.1501,-0.013293
23.493,56.1501,-0.015710
23.524,56.1501,-0.016918
23.555,56.1501,-0.015710
23.587,56.1501,-0.013293
23.618,56.1501,-0.015710
23.651,56.1501,-0.015710
23.681,56.1501,-0.016918
23.701,56.1501,-0.018127
23.728,56.1501,-0.016918
23.759,56.1501,-0.018127
23.790,56.1501,-0.021752
23.811,56.1501,-0.021752
23.837,56.1501,-0.020544
23.867,56.1501,-0.014501
23.898,56.1501,-0.016918
23.930,56.1501,-0.018127
23.960,56.1501,-0.018127
23.992,56.1501,-0.018127
24.022,56.1501,-0.018127
24.054,56.1501,-0.015710
24.085,56.1501,-0.015710
24.117,56.1501,-0.015710
24.148,56.1501,-0.015710
24.178,56.1501,-0.019335
24.210,56.1501,-0.015710
24.230,56.1501,-0.015710
24.255,56.1501,-0.016918
24.286,56.1501,-0.018127
24.307,56.1501,-0.015710
24.332,56.1501,-0.015710
24.363,56.1501,-0.014501
24.394,56.1501,-0.019335
24.414,56.1501,-0.019335
24.439,56.1501,-0.015710
24.470,56.1501,-0.015710
24.502,56.1501,-0.015710
24.533,56.1501,-0.015710
24.565,56.1501,-0.014501
24.596,56.1501,-0.014501
24.628,56.1501,-0.020544
24.658,56.1501,-0.015710
24.689,56.1501,-0.016918
24.719,56.1501,-0.018127
24.750,56.1501,-0.014501
24.781,56.1501,-0.018127
24.801,56.1501,-0.018127
24.828,56.1501,-0.015710
24.860,56.1501,-0.018127
24.890,56.1501,-0.015710
24.911,56.1501,-0.014501
24.936,56.1501,-0.016918
24.968,56.1501,-0.018127
25.002,56.1501,-0.018127
25.023,56.1501,-0.018127
25.047,56.1501,-0.015710
25.077,56.1501,-0.018127
25.109,56.1501,-0.014501
25.140,56.1501,-0.015710
25.171,56.1501,-0.013293
25.203,56.1501,-0.016918
25.233,56.1501,-0.013293
25.266,56.1501,-0.013293
25.296,56.1501,-0.018127
25.328,56.1501,-0.019335
25.358,56.1501,-0.016918
25.389,56.1501,-0.009668
25.422,56.1501,-0.018127
25.453,56.1501,-0.015710
25.482,56.1501,-0.016918
25.513,56.1501,-0.019335
25.535,56.1501,-0.019335
25.559,56.1501,-0.019335
25.589,56.1501,-0.013293
25.620,56.1501,-0.015710
25.651,56.1501,-0.021752
25.682,56.1501,-0.019335
25.713,56.1501,-0.014501
25.744,56.1501,-0.014501
25.775,56.1501,-0.016918
25.806,56.1501,-0.019335
25.838,56.1501,-0.016918
25.869,56.1501,-0.015710
25.901,56.1501,-0.012084
25.932,56.1501,-0.015710
25.963,56.1501,-0.018127
25.996,56.1501,-0.018127
26.026,56.1501,-0.013293
26.046,56.1501,-0.015710
26.072,56.1501,-0.014501
26.103,56.1501,-0.014501
26.136,56.1501,-0.019335
26.166,56.1501,-0.014501
26.197,56.1501,-0.018127
26.228,56.1501,-0.020544
26.259,56.1501,-0.019335
26.290,56.1501,-0.015710
26.320,56.1501,-0.016918
26.351,56.1501,-0.016918
26.383,56.1501,-0.016918
26.413,56.1501,-0.018127
26.443,56.1501,-0.020544
26.475,56.1501,-0.014501
26.506,56.1501,-0.013293
26.526,56.1501,-0.013293
26.554,56.1501,-0.019335
26.585,56.1501,-0.015710
26.606,56.1501,-0.016918
26.632,56.1501,-0.012084
26.653,56.1501,-0.012084
26.679,56.1501,-0.016918
26.709,56.1501,-0.014501
26.741,56.1501,-0.012084
26.772,56.1501,-0.015710
26.803,56.1501,-0.020544
26.835,56.1501,-0.015710
26.866,56.1501,-0.014501
26.897,56.1501,-0.018127
26.928,56.1501,-0.009668
26.959,56.1501,-0.013293
26.991,56.1501,-0.015710
27.021,56.1501,-0.020544
27.052,56.1501,-0.019335
27.083,56.1501,-0.019335
27.114,56.1501,-0.018127
27.145,56.1501,-0.018127
27.165,56.1501,-0.015710
27.192,56.1501,-0.010876
27.213,56.1501,-0.010876
27.239,56.1501,-0.010876
27.269,56.1501,-0.015710
27.300,56.1501,-0.016918
27.332,56.1501,-0.013293
27.362,56.1501,-0.014501
27.393,56.1501,-0.015710
27.425,56.1501,-0.015710
27.456,56.1501,-0.018127
27.486,56.1494,-0.014501
27.516,56.0705,-0.015710
27.547,55.9777,0.000000
27.579,55.8817,0.000000
27.609,55.7914,0.007251
27.641,55.6963,0.018127
27.672,55.6039,0.037462
27.693,55.5407,0.037462
27.717,55.4650,0.045921
27.749,55.3715,0.061631
27.780,55.2776,0.067673
27.811,55.1857,0.080966
27.842,55.0922,0.091842
27.873,55.0007,0.106343
27.904,54.9041,0.116011
27.937,54.8089,0.131721
27.968,54.7133,0.152264
28.000,54.6184,0.160724
28.032,54.5228,0.183684
28.063,54.4298,0.189726
28.094,54.3365,0.218729
28.125,54.2438,0.218729
28.156,54.1499,0.232022
28.187,54.0545,0.236856
28.219,53.9633,0.234439
28.250,53.8709,0.222354
28.280,53.7794,0.210270
28.302,53.7116,0.198185
28.327,53.6375,0.177642
28.349,53.5727,0.130512
28.372,53.5028,0.130512
28.404,53.4080,0.003625
28.435,53.3149,0.002417
28.465,53.2240,0.003625
28.496,53.1326,0.002417
28.527,53.0396,0.003625
28.559,52.9424,0.003625
28.589,52.8512,0.001208
28.620,52.7588,0.004834
28.651,52.6682,0.002417
28.682,52.5725,0.003625
28.713,52.4806,0.004834
28.745,52.3835,0.002417
28.775,52.2932,0.003625
28.796,52.2296,0.006042
28.823,52.1476,0.002417
28.845,52.0831,0.000000
28.868,52.0136,0.003625
28.899,51.9227,0.006042
28.930,51.8288,0.004834
28.961,51.7346,0.001208
28.992,51.6401,0.002417
29.024,51.5467,0.003625
29.055,51.4541,0.002417
29.086,51.3602,-0.001208
29.118,51.2663,-0.002417
29.151,51.1661,0.003625
29.179,51.0805,0.004834
29.211,50.9843,0.002417
29.242,50.8934,0.001208
29.273,50.8007,0.001208
29.304,50.7086,0.001208
29.325,50.6450,0.000000
29.351,50.5655,0.001208
29.372,50.5031,0.001208
29.397,50.4284,-0.002417
29.427,50.3381,0.001208
29.458,50.2443,0.004834
29.489,50.1536,0.000000
29.520,50.1000,0.000000
29.551,50.1000,-0.014501
29.582,50.1000,-0.003625
29.612,50.1000,0.002417
29.643,50.1000,0.002417
29.674,50.1000,-0.001208
29.706,50.1000,-0.002417
29.737,50.1000,0.001208
29.768,50.1000,0.002417
29.789,50.1000,0.001208
29.814,50.1000,0.001208
29.846,50.1000,0.000000
29.877,50.1000,0.000000
29.908,50.1000,0.002417
29.942,50.1000,0.002417
29.969,50.1000,0.001208
30.001,50.1000,0.004834
30.032,50.1000,0.002417
30.064,50.1000,-0.001208
30.094,50.1000,-0.004834
30.124,50.1335,0.003625
30.156,50.2259,-0.013293
30.186,50.3177,0.000000
30.218,50.4116,0.002417
30.249,50.5046,0.000000
30.281,50.6023,0.000000
30.312,50.6936,0.004834
30.332,50.7560,0.004834
30.358,50.8346,0.003625
30.380,50.8987,-0.004834
30.407,50.9803,0.000000
30.428,51.0422,0.002417
30.452,51.1165,0.002417
30.483,51.2110,0.001208
30.515,51.3047,0.000000
30.546,51.3983,0.001208
30.577,51.4901,0.001208
30.608,51.5854,0.000000
30.640,51.6812,-0.001208
30.671,51.7747,0.001208
30.702,51.8651,0.001208
30.732,51.9559,0.003625
30.763,52.0466,0.002417
30.794,52.1413,0.001208
30.824,52.2341,0.004834
30.854,52.3214,0.008459
30.885,52.4149,0.001208
30.907,52.4809,0.000000
30.930,52.5502,0.000000
30.962,52.6451,0.000000
30.993,52.7369,0.003625
31.024,52.8320,0.000000
31.055,52.9228,0.002417
31.085,53.0147,0.002417
31.115,53.1044,-0.002417
31.147,53.2006,-0.001208
31.178,53.2936,0.003625
31.210,53.3885,0.002417
31.241,53.4824,-0.004834
31.272,53.5748,-0.001208
31.303,53.6714,0.003625
31.335,53.7640,0.000000
31.356,53.8258,0.001208
31.381,53.9032,0.001208
31.413,53.9968,0.002417
31.446,54.0968,0.000000
31.475,54.1844,-0.004834
31.505,54.2744,-0.006042
31.537,54.3706,-0.004834
31.567,54.4609,-0.003625
31.598,54.5531,-0.006042
31.632,54.6584,-0.003625
31.660,54.7415,-0.001208
31.691,54.8332,-0.001208
31.722,54.9250,-0.001208
31.754,55.0204,-0.003625
31.784,55.1104,-0.006042
31.808,55.1840,-0.006042
31.830,55.2500,-0.008459
31.851,55.3115,-0.008459
31.877,55.3921,-0.014501
31.900,55.4572,-0.013293
31.927,55.5403,-0.016918
31.955,55.6253,-0.015710
31.986,55.7164,-0.018127
32.007,55.7803,-0.020544
32.033,55.8593,-0.020544
32.062,55.9454,-0.025377
32.094,56.0414,-0.027794
32.126,56.1000,-0.041087
32.157,56.1000,-0.029003
32.188,56.1000,-0.041087
32.219,56.1000,-0.036253
32.251,56.1000,-0.037462
32.282,56.1000,-0.035045
32.314,56.1000,-0.032628
32.344,56.1000,-0.032628
32.376,56.1000,-0.031420
32.406,56.1000,-0.032628
32.437,56.1000,-0.035045
32.468,56.1000,-0.030211
32.500,56.1000,-0.030211
32.530,56.1000,-0.026586
32.551,56.1000,-0.026586
32.577,56.1000,-0.025377
32.609,56.1000,-0.024169
32.640,56.1000,-0.029003
32.672,56.1000,-0.025377
32.702,56.1000,-0.025377
32.733,56.1000,-0.026586
32.767,56.1000,-0.027794
32.794,56.1000,-0.024169
32.826,56.1000,-0.022961
32.859,56.1000,-0.025377
32.889,56.1000,-0.026586
32.920,56.1000,-0.025377
32.951,56.1000,-0.021752
32.974,56.1000,-0.021752
32.997,56.1000,-0.027794
33.028,56.1000,-0.025377
33.059,56.1000,-0.026586
33.090,56.1000,-0.024169
33.110,56.1000,-0.026586
33.135,56.1000,-0.025377
33.166,56.1000,-0.020544
33.198,56.1000,-0.022961
33.229,56.1000,-0.024169
33.260,56.1000,-0.022961
33.292,56.1000,-0.021752
33.324,56.1000,-0.020544
33.355,56.1000,-0.026586
33.387,56.1000,-0.022961
33.418,56.1000,-0.021752
33.449,56.1000,-0.026586
33.480,56.1000,-0.024169
33.513,56.1000,-0.018127
33.544,56.1000,-0.018127
33.574,56.1000,-0.021752
33.597,56.1000,-0.025377
33.620,56.1000,-0.025377
33.652,56.1000,-0.021752
33.684,56.1000,-0.020544
33.715,56.1000,-0.022961
33.745,56.1000,-0.025377
33.777,56.1000,-0.020544
33.808,56.1000,-0.020544
33.840,56.1000,-0.016918
33.870,56.1000,-0.016918
33.900,56.1000,-0.025377
33.932,56.1000,-0.021752
33.962,56.1000,-0.022961
33.992,56.1000,-0.021752
34.012,56.1000,-0.021752
34.039,56.1000,-0.020544
34.060,56.1000,-0.019335
34.085,56.1000,-0.019335
34.117,56.1000,-0.018127
34.148,56.1000,-0.021752
34.180,56.1000,-0.022961
34.211,56.1000,-0.020544
34.243,56.1000,-0.020544
34.273,56.1000,-0.024169
34.304,56.1000,-0.021752
34.335,56.1000,-0.018127
34.365,56.1000,-0.022961
34.396,56.1000,-0.022961
34.427,56.1000,-0.020544
34.458,56.1000,-0.019335
34.489,56.1000,-0.020544
34.520,56.1000,-0.021752
34.552,56.1000,-0.018127
34.572,56.1000,-0.016918
34.598,56.1000,-0.016918
34.628,56.1000,-0.020544
34.660,56.1000,-0.020544
34.690,56.1000,-0.022961
34.711,56.1000,-0.022961
34.738,56.1000,-0.019335
34.759,56.1000,-0.020544
34.784,56.1000,-0.020544
34.814,56.1000,-0.016918
34.845,56.1000,-0.020544
34.876,56.1000,-0.020544
34.907,56.1000,-0.019335
34.938,56.1000,-0.019335
34.969,56.1000,-0.020544
35.001,56.1000,-0.020544
35.031,56.1000,-0.016918
35.062,56.1000,-0.019335
35.093,56.1000,-0.019335
35.125,56.1000,-0.019335
35.156,56.1000,-0.022961
35.188,56.1000,-0.024169
35.218,56.1000,-0.020544
35.239,56.1000,-0.020544
35.261,56.1000,-0.020544
35.295,56.1000,-0.016918
35.327,56.1000,-0.018127
35.358,56.1000,-0.020544
35.389,56.1000,-0.020544
35.421,56.1000,-0.019335
35.451,56.1000,-0.019335
35.481,56.1000,-0.018127
35.513,56.1000,-0.019335
35.544,56.1000,-0.015710
35.575,56.1000,-0.014501
35.595,56.1000,-0.019335
35.621,56.1000,-0.019335
35.653,56.1000,-0.016918
35.684,56.1000,-0.019335
35.715,56.1000,-0.015710
35.746,56.1000,-0.015710
35.777,56.1000,-0.018127
35.807,56.1000,-0.019335
35.838,56.1000,-0.016918
35.869,56.1000,-0.020544
35.901,56.1000,-0.021752
35.932,56.1000,-0.019335
35.964,56.1000,-0.019335
35.995,56.1000,-0.020544
36.026,56.1000,-0.018127
36.057,56.1000,-0.019335
36.089,56.1000,-0.020544
36.120,56.1000,-0.019335
36.151,56.1000,-0.018127
36.172,56.1000,-0.018127
36.198,56.1000,-0.020544
36.228,56.1000,-0.019335
36.259,56.1000,-0.018127
36.289,56.1000,-0.019335
36.320,56.1000,-0.020544
36.341,56.1000,-0.019335
36.366,56.1000,-0.016918
36.398,56.1000,-0.018127
36.430,56.1000,-0.018127
36.461,56.1000,-0.015710
36.493,56.1000,-0.020544
36.523,56.1000,-0.019335
36.554,56.1000,-0.018127
36.586,56.1000,-0.020544
36.616,56.1000,-0.016918
36.647,56.1000,-0.016918
36.679,56.1000,-0.016918
36.710,56.1000,-0.013293
36.742,56.1000,-0.020544
36.772,56.1000,-0.016918
36.804,56.1000,-0.018127
36.835,56.1000,-0.020544
36.866,56.1000,-0.018127
36.897,56.1000,-0.015710
36.928,56.1000,-0.018127
36.950,56.1000,-0.019335
36.974,56.1000,-0.019335
37.005,56.1000,-0.018127
37.037,56.1000,-0.019335
37.069,56.1000,-0.020544
37.100,56.1000,-0.018127
37.132,56.1000,-0.019335
37.163,56.1000,-0.015710
37.200,56.1000,-0.016918
37.221,56.1000,-0.020544
37.256,56.1000,-0.020544
37.287,56.1000,-0.015710
37.319,56.1000,-0.012084
37.350,56.1000,-0.018127
37.382,56.1000,-0.014501
37.413,56.1000,-0.019335
37.445,56.1000,-0.019335
37.475,56.1000,-0.019335
37.506,56.1000,-0.020544
37.538,56.1000,-0.018127
37.570,56.1000,-0.015710
37.600,56.1000,-0.015710
37.622,56.1000,-0.020544
37.647,56.1000,-0.020544
37.680,56.1000,-0.018127
37.702,56.1000,-0.018127
37.739,56.1000,-0.015710
37.770,56.1000,-0.020544
37.800,56.1000,-0.016918
37.831,56.1000,-0.019335
37.862,56.1000,-0.020544
37.893,56.1000,-0.014501
37.925,56.1000,-0.020544
37.955,56.1000,-0.021752
37.986,56.1000,-0.018127
38.017,56.1000,-0.020544
38.048,56.1000,-0.022961
38.080,56.1000,-0.019335
38.101,56.1000,-0.015710
38.126,56.1000,-0.015710
38.157,56.1000,-0.015710
38.189,56.1000,-0.016918
38.220,56.1000,-0.020544
38.251,56.1000,-0.018127
38.282,56.1000,-0.015710
38.313,56.1000,-0.020544
38.346,56.1000,-0.016918
38.375,56.1000,-0.019335
38.405,56.1000,-0.019335
38.436,56.1000,-0.014501
38.468,56.1000,-0.019335
38.499,56.1000,-0.015710
38.530,56.1000,-0.019335
38.561,56.1000,-0.015710
38.592,56.1000,-0.018127
38.612,56.1000,-0.018127
38.638,56.1000,-0.019335
38.669,56.1000,-0.016918
38.700,56.1000,-0.016918
38.731,56.1000,-0.016918
38.762,56.1000,-0.019335
38.792,56.1000,-0.019335
38.823,56.1000,-0.016918
38.854,56.1000,-0.015710
38.885,56.1000,-0.015710
38.917,56.1000,-0.016918
38.948,56.1000,-0.014501
38.980,56.1000,-0.020544
39.010,56.1000,-0.018127
39.041,56.1000,-0.019335
39.072,56.1000,-0.014501
39.103,56.1000,-0.018127
39.124,56.1000,-0.019335
39.149,56.1000,-0.014501
39.181,56.1000,-0.009668
39.213,56.1000,-0.014501
39.243,56.1000,-0.015710
39.274,56.1000,-0.016918
39.305,56.1000,-0.013293
39.336,56.1000,-0.015710
39.367,56.1000,-0.019335
39.400,56.1000,-0.014501
39.430,56.1000,-0.019335
39.461,56.1000,-0.018127
39.492,56.1000,-0.015710
39.524,56.1000,-0.016918
39.555,56.1000,-0.015710
39.586,56.1000,-0.014501
39.618,56.1000,-0.015710
39.649,56.1000,-0.020544
39.680,56.1000,-0.019335
39.712,56.1000,-0.019335
39.743,56.1000,-0.014501
39.765,56.1000,-0.013293
39.789,56.1000,-0.016918
39.820,56.1000,-0.018127
39.851,56.1000,-0.013293
39.882,56.1000,-0.016918
39.913,56.1000,-0.015710
39.944,56.1000,-0.020544
39.975,56.1000,-0.016918
40.006,56.1000,-0.015710
40.037,56.1000,-0.012084
40.069,56.1000,-0.015710
40.099,56.1000,-0.018127
40.130,56.1000,-0.015710
40.163,56.1000,-0.015710
40.193,56.1000,-0.015710
40.224,56.1000,-0.020544
40.256,56.1000,-0.019335
40.276,56.1000,-0.015710
40.303,56.1000,-0.014501
40.323,56.1000,-0.015710
40.349,56.1000,-0.014501
40.381,56.1000,-0.013293
40.412,56.1000,-0.016918
40.443,56.1000,-0.015710
40.474,56.1000,-0.018127
40.505,56.1000,-0.018127
40.537,56.1000,-0.015710
40.567,56.1000,-0.019335
40.599,56.1000,-0.015710
40.630,56.1000,-0.016918
40.661,56.1000,-0.016918
40.693,56.1000,-0.013293
40.722,56.1000,-0.014501
40.753,56.1000,-0.012084
40.783,56.1000,-0.010876
40.803,56.1000,-0.010876
40.829,56.1000,-0.018127
40.860,56.1000,-0.014501
40.892,56.1000,-0.016918
40.923,56.1000,-0.016918
40.954,56.1000,-0.019335
40.986,56.1000,-0.012084
41.017,56.1000,-0.015710
41.048,56.1000,-0.013293
41.084,56.1000,-0.015710
41.110,56.1000,-0.013293
41.141,56.1000,-0.015710
41.172,56.1000,-0.015710
41.202,56.1000,-0.010876
41.233,56.1000,-0.018127
41.265,56.1000,-0.018127
41.296,56.1000,-0.014501
41.327,56.1000,-0.015710
41.358,56.1000,-0.013293
41.379,56.1000,-0.015710
41.405,56.1000,-0.015710
41.436,56.1000,-0.016918
41.467,56.1000,-0.015710
41.498,56.1000,-0.021752
41.530,56.1000,-0.021752
41.562,56.1000,-0.020544
41.592,56.1000,-0.018127
41.623,56.1000,-0.015710
41.654,56.1000,-0.013293
41.685,56.1000,-0.016918
41.717,56.1000,-0.016918
41.748,56.1000,-0.015710
41.780,56.1000,-0.013293
41.811,56.1000,-0.016918
41.841,56.1000,-0.021752
41.872,56.1000,-0.013293
41.904,56.1000,-0.008459
41.934,56.1000,-0.020544
41.954,56.1000,-0.021752
41.982,56.1000,-0.015710
42.003,56.1000,-0.013293
42.029,56.1000,-0.015710
42.060,56.1000,-0.014501
42.091,56.1000,-0.014501
42.122,56.1000,-0.016918
42.152,56.1000,-0.019335
42.184,56.1000,-0.016918
42.215,56.1000,-0.015710
42.246,56.1000,-0.018127
42.278,56.1000,-0.015710
42.309,56.1000,-0.015710
42.341,56.1000,-0.014501
42.372,56.1000,-0.015710
42.403,56.1000,-0.015710
42.426,56.1000,-0.018127
42.448,56.1000,-0.014501
42.480,56.1000,-0.012084
42.510,56.1000,-0.018127
42.542,56.1000,-0.019335
42.572,56.1000,-0.018127
42.603,56.1000,-0.014501
42.633,56.1000,-0.015710
42.665,56.1000,-0.016918
42.696,56.1000,-0.013293
42.728,56.1000,-0.014501
42.759,56.1000,-0.018127
42.791,56.1000,-0.015710
42.821,56.1000,-0.015710
42.842,56.1000,-0.015710
42.868,56.1000,-0.015710
42.899,56.1000,-0.016918
42.929,56.1000,-0.016918
42.961,56.1000,-0.016918
42.982,56.1000,-0.015710
43.008,56.1000,-0.018127
43.039,56.1000,-0.014501
43.069,56.1000,-0.016918
43.100,56.1000,-0.015710
43.132,56.1000,-0.016918
43.162,56.1000,-0.013293
43.194,56.1000,-0.015710
43.225,56.1000,-0.018127
43.256,56.1000,-0.020544
43.286,56.1000,-0.013293
43.318,56.1000,-0.016918
43.349,56.1000,-0.018127
43.379,56.1000,-0.010876
43.410,56.1000,-0.013293
43.441,56.1000,-0.013293
43.462,56.1000,-0.018127
43.487,56.1000,-0.019335
43.519,56.1000,-0.016918
43.540,56.1000,-0.014501
43.565,56.1000,-0.014501
43.604,56.1000,-0.015710
43.627,56.1000,-0.015710
43.658,56.1000,-0.015710
43.690,56.1000,-0.016918
43.720,56.1000,-0.013293
43.752,56.1000,-0.013293
43.783,56.1000,-0.014501
43.815,56.1000,-0.012084
43.845,56.1000,-0.015710
43.877,56.1000,-0.020544
43.909,56.0650,-0.020544
43.940,55.9741,-0.009668
43.971,55.8796,0.002417
44.002,55.7870,0.002417
44.032,55.6952,0.018127
44.066,55.5944,0.031420
44.090,55.5236,0.041087
44.126,55.4147,0.050755
44.157,55.3214,0.065256
44.189,55.2239,0.072507
44.220,55.1330,0.083383
44.251,55.0402,0.102718
44.282,54.9476,0.108760
44.312,54.8567,0.132929
44.344,54.7616,0.142597
44.374,54.6719,0.157098
44.406,54.5761,0.167974
44.426,54.5162,0.178850
44.453,54.4355,0.194560
44.473,54.3727,0.194560
44.499,54.2972,0.209061
44.529,54.2051,0.229605
44.560,54.1142,0.241690
44.591,54.0200,0.252566
44.621,53.9300,0.273109
44.642,53.8661,0.276735
44.668,53.7890,0.267067
44.699,53.6963,0.262233
44.729,53.6035,0.239273
44.761,53.5100,0.218729
44.792,53.4176,0.138971
44.824,53.3213,0.045921
44.854,53.2304,0.004834
44.885,53.1392,0.004834
44.916,53.0417,0.003625
44.948,52.9502,0.003625
44.981,52.8482,0.002417
45.012,52.7555,0.004834
45.043,52.6658,0.006042
45.073,52.5743,0.004834
45.104,52.4806,0.000000
45.136,52.3840,0.007251
45.162,52.3058,0.008459
45.197,52.2023,0.006042
45.228,52.1068,-0.001208
45.259,52.0160,0.006042
45.289,51.9241,0.001208
45.323,51.8237,0.003625
45.353,51.7334,0.000000
45.385,51.6355,0.001208
45.416,51.5453,0.006042
45.447,51.4496,0.002417
45.480,51.3524,0.007251
45.510,51.2627,0.004834
45.541,51.1685,0.002417
45.562,51.1076,0.001208
45.587,51.0314,0.001208
45.619,50.9372,0.003625
45.650,50.8424,0.004834
45.680,50.7524,0.001208
45.703,50.6828,0.001208
45.724,50.6189,0.002417
45.758,50.5169,0.003625
45.789,50.4240,0.002417
45.820,50.3321,0.002417
45.851,50.2407,0.007251
45.881,50.1479,0.003625
45.912,50.0535,0.002417
45.945,50.0500,0.002417
45.974,50.0500,-0.003625
46.005,50.0500,-0.003625
46.036,50.0500,0.001208
46.067,50.0500,0.004834
46.089,50.0500,0.000000
46.115,50.0500,0.001208
46.147,50.0500,-0.002417
46.178,50.0500,0.002417
46.198,50.0500,0.002417
46.224,50.0500,-0.002417
46.246,50.0500,-0.001208
46.271,50.0500,0.001208
46.302,50.0500,0.002417
46.333,50.0500,0.000000
46.364,50.0500,0.000000
46.396,50.0500,0.000000
46.429,50.0500,0.002417
46.457,50.0500,0.002417
46.489,50.0500,0.004834
46.520,50.0500,0.004834
46.550,50.1053,-0.010876
46.581,50.1971,-0.010876
46.612,50.2901,0.000000
46.644,50.3846,0.001208
46.675,50.4777,-0.001208
46.705,50.5719,0.002417
46.726,50.6310,0.002417
46.753,50.7126,0.001208
46.787,50.8143,-0.001208
46.813,50.8946,0.004834
46.833,50.9534,0.004834
46.859,51.0309,0.000000
46.890,51.1244,0.003625
46.921,51.2183,-0.001208
46.951,51.3075,0.002417
46.983,51.4023,0.001208
47.014,51.4955,0.003625
47.044,51.5849,0.003625
47.075,51.6777,-0.002417
47.107,51.7748,-0.003625
47.138,51.8685,0.000000
47.169,51.9612,-0.001208
47.204,52.0647,-0.002417
47.231,52.1457,0.002417
47.261,52.2393,0.000000
47.282,52.2989,-0.001208
47.307,52.3776,-0.002417
47.329,52.4415,0.000000
47.355,52.5203,0.001208
47.385,52.6089,0.002417
47.414,52.6968,-0.004834
47.445,52.7916,-0.001208
47.477,52.8831,-0.002417
47.508,52.9791,-0.004834
47.539,53.0715,-0.002417
47.570,53.1654,-0.002417
47.600,53.2533,0.000000
47.633,53.3510,-0.004834
47.663,53.4417,-0.003625
47.695,53.5394,-0.001208
47.725,53.6312,0.001208
47.747,53.6952,-0.002417
47.772,53.7705,-0.002417
47.793,53.8320,-0.002417
47.820,53.9141,0.001208
47.841,53.9775,-0.001208
47.869,54.0618,-0.001208
47.897,54.1464,0.000000
47.928,54.2399,-0.001208
47.959,54.3329,-0.004834
47.980,54.3930,-0.003625
48.005,54.4697,-0.003625
48.037,54.5646,-0.003625
48.069,54.6611,-0.001208
48.100,54.7530,-0.002417
48.130,54.8469,-0.008459
48.162,54.9384,-0.004834
48.193,55.0319,-0.007251
48.224,55.1243,-0.008459
48.255,55.2180,-0.002417
48.286,55.3110,-0.006042
48.319,55.4121,-0.009668
48.348,55.4981,-0.009668
48.379,55.5918,-0.014501
48.411,55.6854,-0.022961
48.442,55.7802,-0.022961
48.475,55.8774,-0.026586
48.504,55.9662,-0.026586
48.524,56.0267,-0.035045
48.551,56.0500,-0.030211
48.572,56.0500,-0.030211
48.598,56.0500,-0.041087
48.621,56.0500,-0.039879
48.645,56.0500,-0.039879
48.675,56.0500,-0.036253
48.707,56.0500,-0.037462
48.737,56.0500,-0.031420
48.768,56.0500,-0.031420
48.800,56.0500,-0.033837
48.831,56.0500,-0.035045
48.863,56.0500,-0.029003
48.895,56.0500,-0.029003
48.925,56.0500,-0.029003
48.954,56.0500,-0.024169
48.985,56.0500,-0.027794
49.016,56.0500,-0.029003
49.036,56.0500,-0.027794
49.062,56.0500,-0.027794
49.093,56.0500,-0.031420
49.125,56.0500,-0.026586
49.156,56.0500,-0.027794
