Elapsed Time (s),Position (mm),Force (N)
-0.020,70.6514,-0.126187
0.089,70.6514,-0.130551
0.198,70.6514,-0.130551
0.308,70.6514,-0.130551
0.416,70.6514,-0.126112
0.525,70.6514,-0.126112
0.635,70.6514,-0.126112
0.746,70.6514,-0.122408
0.856,70.6514,-0.119665
0.966,70.6514,-0.119665
1.076,70.6514,-0.119665
1.186,70.6514,-0.117497
1.295,70.6514,-0.117497
1.404,70.6514,-0.115650
1.514,70.6514,-0.115650
1.623,70.6514,-0.114029
1.732,70.6514,-0.114029
1.841,70.6514,-0.112709
1.951,70.6514,-0.112709
2.060,70.6514,-0.112709
2.168,70.6514,-0.111531
2.278,70.6514,-0.111531
2.389,70.6514,-0.111531
2.498,70.6514,-0.110437
2.607,70.6514,-0.109438
2.715,70.6514,-0.109438
2.825,70.6514,-0.109438
2.934,70.6514,-0.108581
3.043,70.6514,-0.108581
3.154,70.6514,-0.107732
3.264,70.6514,-0.107732
3.371,70.6514,-0.106922
3.480,70.6514,-0.106922
3.591,70.6514,-0.105772
3.699,70.6514,-0.105772
3.807,70.6514,-0.105772
3.916,70.6514,-0.103859
4.026,70.6514,-0.103859
4.134,70.6469,-0.102369
4.243,70.6333,-0.102369
4.353,70.6120,-0.098128
4.461,70.5903,-0.098128
4.572,70.5682,-0.098128
4.680,70.5465,-0.077684
4.788,70.5249,-0.077684
4.898,70.5030,-0.043677
5.007,70.4812,-0.043677
5.116,70.4595,-0.006909
5.226,70.4373,-0.006909
5.335,70.4155,0.034544
5.445,70.3936,0.034544
5.554,70.3719,0.034544
5.662,70.3501,0.081812
5.772,70.3282,0.081812
5.880,70.3067,0.135141
5.987,70.2851,0.135141
6.099,70.2629,0.194625
6.207,70.2413,0.194625
6.315,70.2195,0.194625
6.424,70.1978,0.260254
6.533,70.1759,0.260254
6.641,70.1545,0.332424
6.751,70.1325,0.332424
6.858,70.1109,0.410570
6.968,70.0890,0.410570
7.078,70.0669,0.410570
7.185,70.0456,0.494051
7.295,70.0236,0.494051
7.404,70.0018,0.583348
7.514,69.9796,0.583348
7.624,69.9579,0.678685
7.733,69.9359,0.678685
7.841,69.9142,0.779914
7.953,69.8922,0.779914
8.060,69.8707,0.779914
8.168,69.8490,0.886591
8.278,69.8271,0.886591
8.386,69.8055,0.999055
8.493,69.7840,0.999055
8.604,69.7618,1.117428
8.714,69.7397,1.117428
8.824,69.7178,1.117428
8.934,69.6958,1.241646
9.044,69.6739,1.241646
9.153,69.6521,1.371245
9.264,69.6300,1.371245
9.372,69.6080,1.505161
9.482,69.5862,1.505161
9.592,69.5642,1.644610
9.701,69.5425,1.644610
9.809,69.5208,1.644610
9.919,69.4989,1.789771
10.029,69.4768,1.789771
10.139,69.4547,1.940200
10.248,69.4332,1.940200
10.356,69.4113,2.096077
10.464,69.3896,2.096077
10.575,69.3677,2.096077
10.684,69.3457,2.248807
10.792,69.3243,2.248807
10.900,69.3026,2.212717
11.009,69.2809,2.212717
11.118,69.2590,1.310857
11.228,69.2371,1.310857
11.337,69.2152,1.310857
11.447,69.1930,0.263968
11.556,69.1715,0.263968
11.666,69.1495,0.008539
11.774,69.1278,0.008539
11.885,69.1057,0.007587
11.994,69.0839,0.007587
12.104,69.0620,0.007286
12.213,69.0401,0.007286
12.322,69.0181,0.007286
12.431,68.9965,0.007163
12.540,68.9746,0.007163
12.650,68.9527,0.007107
12.760,68.9305,0.007107
12.871,68.9085,0.007060
12.980,68.8867,0.007060
13.090,68.8646,0.007003
13.200,68.8427,0.007003
13.308,68.8210,0.007003
13.415,68.7996,0.006947
13.524,68.7778,0.006947
13.634,68.7559,0.006909
13.743,68.7340,0.006909
13.852,68.7121,0.006833
13.962,68.6903,0.006833
14.072,68.6682,0.006833
14.181,68.6465,0.006786
14.289,68.6250,0.006786
14.398,68.6031,0.006786
14.507,68.5812,0.006786
14.615,68.5595,0.006786
14.724,68.5378,0.006786
14.834,68.5159,0.006739
14.943,68.4939,0.006739
15.052,68.4722,0.006739
15.164,68.4500,0.006701
15.272,68.4283,0.006701
15.381,68.4065,0.006654
15.489,68.3848,0.006654
15.597,68.3633,0.006645
15.707,68.3414,0.006645
15.817,68.3192,0.006645
15.927,68.2971,0.006711
16.036,68.2755,0.006711
16.144,68.2538,0.006701
16.253,68.2321,0.006701
16.362,68.2103,0.006701
16.471,68.1885,0.006701
16.580,68.1668,0.006701
16.689,68.1449,0.006692
16.798,68.1231,0.006692
16.907,68.1013,0.006711
17.017,68.0793,0.006711
17.124,68.0579,0.006758
17.234,68.0359,0.006758
17.341,68.0145,0.006777
17.451,67.9924,0.006777
17.560,67.9707,0.006777
17.668,67.9490,0.006767
17.777,67.9274,0.006767
17.886,67.9054,0.006730
17.995,67.8836,0.006730
18.105,67.8617,0.006758
18.215,67.8397,0.006758
18.323,67.8181,0.006758
18.431,67.7964,0.006777
18.541,67.7745,0.006777
18.651,67.7524,0.006739
18.761,67.7306,0.006739
18.870,67.7086,0.006720
18.981,67.6865,0.006720
19.090,67.6648,0.006739
19.198,67.6431,0.006739
19.306,67.6218,0.006739
19.417,67.6070,0.006786
19.525,67.6015,0.006786
19.635,67.6015,0.006664
19.745,67.6015,0.006664
19.854,67.6015,0.006447
19.962,67.6015,0.006447
20.071,67.6017,0.006447
20.181,67.6084,0.006409
20.291,67.6242,0.006409
20.399,67.6456,0.006296
20.506,67.6671,0.006296
20.616,67.6891,0.006089
20.724,67.7107,0.006089
20.833,67.7324,0.006089
20.943,67.7546,0.006013
21.052,67.7762,0.006013
21.160,67.7978,0.005929
21.270,67.8199,0.005929
21.379,67.8417,0.005881
21.490,67.8639,0.005881
21.598,67.8856,0.005806
21.707,67.9072,0.005806
21.815,67.9289,0.005806
21.924,67.9508,0.005731
22.033,67.9725,0.005731
22.142,67.9942,0.005702
22.253,68.0166,0.005702
22.361,68.0380,0.005646
22.469,68.0597,0.005646
22.580,68.0818,0.005542
22.690,68.1040,0.005542
22.800,68.1257,0.005542
22.908,68.1474,0.005476
23.015,68.1689,0.005476
23.125,68.1909,0.005420
23.234,68.2128,0.005420
23.345,68.2350,0.005344
23.454,68.2567,0.005344
23.562,68.2781,0.005344
23.672,68.3002,0.005344
23.781,68.3222,0.005344
23.891,68.3440,0.005241
23.998,68.3654,0.005241
24.107,68.3874,0.005127
24.216,68.4091,0.005127
24.326,68.4309,0.005127
24.435,68.4528,0.005118
24.545,68.4748,0.005118
24.653,68.4964,0.005099
24.762,68.5182,0.005099
24.872,68.5403,0.005033
24.982,68.5624,0.005033
25.091,68.5840,0.005033
25.200,68.6057,0.004948
25.310,68.6279,0.004948
25.417,68.6492,0.004845
25.527,68.6712,0.004845
25.635,68.6929,0.004845
25.746,68.7152,0.004741
25.856,68.7369,0.004703
25.966,68.7590,0.004703
26.073,68.7804,0.004703
26.182,68.8022,0.004666
26.290,68.8240,0.004666
26.399,68.8455,0.004571
26.508,68.8675,0.004571
26.617,68.8892,0.004458
26.726,68.9110,0.004458
26.836,68.9332,0.004355
26.947,68.9550,0.004355
27.056,68.9772,0.004355
27.166,68.9991,0.004251
27.274,69.0207,0.004251
27.382,69.0422,0.004119
27.491,69.0641,0.004119
27.601,69.0859,0.004043
27.708,69.1076,0.004043
27.818,69.1294,0.004043
27.928,69.1514,0.003921
28.038,69.1735,0.003921
28.145,69.1948,0.003808
28.255,69.2167,0.003808
28.364,69.2384,0.003666
28.472,69.2603,0.003666
28.581,69.2821,0.003431
28.690,69.3038,0.003431
28.799,69.3255,0.003431
28.908,69.3475,0.003214
29.018,69.3694,0.003214
29.128,69.3915,0.002997
29.238,69.4134,0.002997
29.346,69.4350,0.002743
29.456,69.4570,0.002743
29.565,69.4788,0.002743
29.676,69.5010,0.002422
29.785,69.5228,0.002422
29.895,69.5447,0.002055
30.005,69.5667,0.002055
30.114,69.5887,0.001659
30.224,69.6106,0.001659
30.334,69.6326,0.001122
30.441,69.6542,0.001122
30.551,69.6759,0.001122
30.660,69.6977,0.000434
30.769,69.7195,0.000434
30.879,69.7415,-0.000443
30.987,69.7632,-0.000443
31.096,69.7850,-0.001583
31.206,69.8070,-0.001583
31.314,69.8287,-0.001583
31.425,69.8507,-0.003035
31.535,69.8728,-0.003035
31.646,69.8950,-0.004798
31.757,69.9171,-0.004798
31.864,69.9387,-0.007154
31.975,69.9609,-0.007154
32.083,69.9823,-0.007154
32.191,70.0039,-0.010283
32.299,70.0256,-0.010283
32.408,70.0473,-0.014336
32.518,70.0693,-0.014336
32.627,70.0912,-0.019379
32.738,70.1135,-0.019379
32.846,70.1349,-0.025345
32.954,70.1566,-0.025345
33.064,70.1785,-0.025345
33.174,70.2005,-0.032225
33.283,70.2224,-0.032225
33.392,70.2443,-0.039756
33.500,70.2657,-0.039756
33.609,70.2874,-0.047683
33.716,70.3089,-0.047683
33.826,70.3310,-0.047683
33.935,70.3528,-0.055921
34.045,70.3747,-0.055921
34.154,70.3967,-0.064800
34.264,70.4184,-0.064800
34.372,70.4401,-0.074659
34.481,70.4619,-0.074659
34.589,70.4836,-0.085865
34.698,70.5056,-0.085865
34.806,70.5270,-0.085865
34.918,70.5492,-0.099108
35.027,70.5713,-0.099108
35.137,70.5900,-0.114924
35.246,70.5998,-0.114924
35.355,70.6015,-0.129929
35.461,70.6015,-0.129929
35.570,70.6015,-0.129929
35.679,70.6015,-0.133860
35.788,70.6015,-0.133860
35.898,70.6015,-0.129071
36.008,70.6015,-0.129071
36.116,70.6015,-0.125235
36.228,70.6015,-0.125235
36.337,70.6015,-0.122511
36.446,70.6015,-0.122511
36.557,70.6015,-0.122511
36.667,70.6015,-0.120334
36.778,70.6015,-0.120334
36.890,70.6015,-0.118515
36.999,70.6015,-0.118515
37.109,70.6015,-0.116913
37.218,70.6015,-0.116913
37.327,70.6015,-0.115489
37.436,70.6015,-0.115489
37.547,70.6015,-0.115489
37.658,70.6015,-0.114302
37.767,70.6015,-0.114302
37.877,70.6015,-0.113199
37.987,70.6015,-0.113199
38.096,70.6015,-0.112172
38.205,70.6015,-0.112172
38.314,70.6015,-0.112172
38.423,70.6015,-0.111257
38.532,70.6015,-0.111257
38.642,70.6015,-0.110390
38.752,70.6015,-0.110390
38.860,70.6015,-0.109627
38.971,70.6015,-0.109627
39.079,70.6015,-0.109627
39.189,70.6015,-0.108326
39.297,70.6015,-0.108326
39.408,70.6015,-0.106187
39.516,70.6015,-0.106187
39.625,70.5967,-0.104839
39.734,70.5830,-0.104839
39.845,70.5615,-0.100098
39.954,70.5398,-0.100098
40.062,70.5181,-0.100098
40.173,70.4960,-0.078608
40.282,70.4741,-0.078608
40.392,70.4523,-0.044252
40.500,70.4306,-0.044252
40.609,70.4088,-0.007559
40.718,70.3869,-0.007559
40.828,70.3649,-0.007559
40.937,70.3432,0.033705
41.045,70.3215,0.033705
41.152,70.3003,0.080729
41.261,70.2783,0.080729
41.371,70.2565,0.080729
41.480,70.2345,0.133841
41.588,70.2129,0.192806
41.697,70.1912,0.192806
41.806,70.1694,0.192806
41.915,70.1475,0.257106
42.023,70.1258,0.257106
42.133,70.1040,0.327580
42.242,70.0822,0.327580
42.351,70.0605,0.404840
42.461,70.0384,0.404840
42.570,70.0167,0.404840
42.680,69.9946,0.487953
42.788,69.9730,0.487953
42.898,69.9510,0.574054
43.007,69.9291,0.574054
43.116,69.9075,0.636365
43.224,69.8856,0.636365
43.334,69.8639,0.634490
43.444,69.8418,0.634490
43.551,69.8204,0.634490
43.661,69.7983,0.598117
43.771,69.7765,0.598117
43.880,69.7545,0.574384
43.990,69.7327,0.574384
44.099,69.7110,0.563243
44.210,69.6885,0.563243
44.320,69.6667,0.563243
44.431,69.6446,0.559624
44.541,69.6224,0.559624
44.649,69.6007,0.547437
44.758,69.5791,0.547437
44.866,69.5574,0.503825
44.977,69.5352,0.503825
45.087,69.5133,0.503825
45.196,69.4913,0.423747
45.307,69.4694,0.423747
45.415,69.4478,0.202288
45.522,69.4262,0.202288
45.631,69.4044,0.020293
45.742,69.3823,0.020293
45.850,69.3606,0.010867
45.961,69.3385,0.010867
46.071,69.3165,0.010867
46.179,69.2949,0.009331
46.288,69.2730,0.009331
46.396,69.2513,0.008605
46.505,69.2296,0.008605
46.615,69.2077,0.008106
46.722,69.1861,0.008106
46.832,69.1643,0.007785
46.941,69.1424,0.007785
47.050,69.1206,0.007785
47.160,69.0987,0.007578
47.270,69.0765,0.007578
47.379,69.0549,0.007437
47.489,69.0329,0.007437
47.598,69.0111,0.007305
47.706,68.9893,0.007305
47.814,68.9678,0.007305
47.922,68.9461,0.007107
48.031,68.9244,0.007107
48.142,68.9021,0.007022
48.251,68.8804,0.007022
48.361,68.8584,0.006984
48.467,68.8371,0.006984
48.576,68.8154,0.006947
48.686,68.7933,0.006947
48.795,68.7715,0.006947
48.905,68.7498,0.006890
49.013,68.7281,0.006890
49.120,68.7066,0.006815
49.230,68.6846,0.006815
49.340,68.6627,0.006786
49.449,68.6409,0.006786
49.557,68.6193,0.006786
49.667,68.5971,0.006758
49.777,68.5754,0.006758
49.887,68.5532,0.006796
49.995,68.5315,0.006796
50.104,68.5097,0.006730
50.212,68.4882,0.006730
50.321,68.4660,0.006730
50.431,68.4446,0.006664
50.540,68.4226,0.006664
50.650,68.4005,0.006654
50.760,68.3787,0.006654
50.869,68.3568,0.006635
50.978,68.3351,0.006635
51.086,68.3132,0.006645
51.195,68.2916,0.006645
51.303,68.2702,0.006645
51.413,68.2481,0.006692
51.523,68.2259,0.006692
51.632,68.2042,0.006711
51.741,68.1825,0.006711
51.849,68.1608,0.006692
51.957,68.1392,0.006692
52.067,68.1173,0.006692
52.175,68.0957,0.006645
52.284,68.0739,0.006645
52.394,68.0519,0.006692
52.504,68.0300,0.006692
52.613,68.0080,0.006767
52.723,67.9861,0.006767
52.832,67.9642,0.006767
52.944,67.9420,0.006749
53.053,67.9202,0.006749
53.163,67.8980,0.006692
53.274,67.8758,0.006692
53.385,67.8537,0.006711
53.495,67.8318,0.006711
53.604,67.8099,0.006701
53.714,67.7880,0.006701
53.824,67.7658,0.006701
53.931,67.7445,0.006683
54.041,67.7225,0.006683
54.149,67.7008,0.006777
54.257,67.6793,0.006777
54.365,67.6578,0.006711
54.474,67.6359,0.006711
54.583,67.6142,0.006645
54.691,67.5925,0.006645
54.800,67.5712,0.006645
54.910,67.5567,0.006777
55.019,67.5515,0.006777
55.128,67.5515,0.006692
55.237,67.5515,0.006692
55.347,67.5515,0.006485
55.457,67.5521,0.006485
55.566,67.5600,0.006485
55.675,67.5770,0.006353
55.785,67.5989,0.006353
55.892,67.6204,0.006174
56.002,67.6423,0.006174
56.110,67.6640,0.006070
56.220,67.6862,0.006070
56.328,67.7076,0.006070
56.437,67.7293,0.006023
56.547,67.7514,0.006023
56.656,67.7730,0.005966
56.763,67.7946,0.005966
56.872,67.8165,0.005815
56.982,67.8383,0.005815
57.092,67.8603,0.005749
57.201,67.8822,0.005749
57.310,67.9039,0.005749
57.420,67.9260,0.005740
57.530,67.9480,0.005740
57.640,67.9699,0.005627
57.750,67.9921,0.005627
57.860,68.0140,0.005570
57.968,68.0355,0.005570
58.079,68.0577,0.005523
58.189,68.0797,0.005523
58.297,68.1013,0.005523
58.406,68.1231,0.005429
58.516,68.1452,0.005429
58.626,68.1670,0.005410
58.734,68.1887,0.005410
58.843,68.2105,0.005363
58.952,68.2322,0.005363
59.061,68.2541,0.005363
59.172,68.2763,0.005288
59.280,68.2978,0.005288
59.388,68.3194,0.005212
59.498,68.3415,0.005212
59.606,68.3632,0.005109
59.714,68.3848,0.005109
59.823,68.4065,0.005109
59.933,68.4286,0.005080
60.042,68.4503,0.005080
60.152,68.4725,0.005033
60.261,68.4942,0.005033
60.372,68.5163,0.004920
60.480,68.5378,0.004920
60.589,68.5598,0.004816
60.698,68.5815,0.004816
60.807,68.6033,0.004816
60.916,68.6250,0.004816
61.022,68.6464,0.004816
61.131,68.6682,0.004741
61.241,68.6900,0.004741
61.352,68.7122,0.004562
61.462,68.7344,0.004562
61.572,68.7564,0.004562
61.680,68.7779,0.004543
61.788,68.7995,0.004543
61.898,68.8215,0.004468
62.008,68.8437,0.004468
62.116,68.8651,0.004383
62.223,68.8866,0.004383
62.333,68.9084,0.004383
62.443,68.9305,0.004326
62.552,68.9524,0.004326
62.661,68.9740,0.004223
62.770,68.9959,0.004223
62.879,69.0177,0.004043
62.988,69.0396,0.004043
63.098,69.0613,0.003893
63.206,69.0830,0.003893
63.316,69.1050,0.003893
63.425,69.1268,0.003808
63.535,69.1488,0.003808
63.643,69.1705,0.003666
63.752,69.1923,0.003666
63.861,69.2143,0.003478
63.971,69.2360,0.003478
64.080,69.2578,0.003252
64.189,69.2795,0.003252
64.299,69.3016,0.003252
64.408,69.3236,0.003007
64.516,69.3451,0.003007
64.626,69.3671,0.002799
64.735,69.3889,0.002799
64.845,69.4111,0.002526
64.954,69.4328,0.002526
65.062,69.4542,0.002526
65.171,69.4761,0.002149
65.280,69.4979,0.002149
65.391,69.5200,0.002149
65.498,69.5414,0.001715
65.606,69.5629,0.001282
65.715,69.5850,0.001282
65.825,69.6069,0.001282
65.935,69.6289,0.000688
66.044,69.6506,0.000688
66.152,69.6723,-0.000066
66.260,69.6939,-0.000066
66.368,69.7157,-0.001046
66.478,69.7374,-0.001046
66.585,69.7590,-0.001046
66.694,69.7808,-0.002328
66.803,69.8025,-0.002328
66.913,69.8245,-0.004015
67.022,69.8463,-0.004015
67.133,69.8685,-0.006183
67.241,69.8902,-0.006183
67.350,69.9118,-0.008935
67.459,69.9336,-0.008935
67.567,69.9553,-0.008935
67.676,69.9771,-0.012517
67.785,69.9988,-0.012517
67.894,70.0209,-0.017041
68.004,70.0426,-0.017041
68.113,70.0644,-0.022555
68.221,70.0860,-0.022555
68.329,70.1076,-0.022555
68.438,70.1295,-0.028898
68.547,70.1513,-0.028898
68.657,70.1735,-0.036071
68.767,70.1953,-0.036071
68.877,70.2174,-0.043819
68.987,70.2393,-0.043819
69.096,70.2610,-0.051840
69.205,70.2830,-0.051840
69.312,70.3043,-0.051840
69.422,70.3262,-0.060370
69.531,70.3480,-0.060370
69.640,70.3700,-0.069663
69.749,70.3916,-0.069663
69.857,70.4131,-0.080106
69.967,70.4353,-0.080106
70.076,70.4571,-0.092265
70.185,70.4788,-0.092265
70.295,70.5009,-0.092265
70.404,70.5226,-0.106696
70.512,70.5407,-0.106696
70.623,70.5502,-0.106696
70.731,70.5515,-0.123435
70.840,70.5515,-0.132992
70.950,70.5515,-0.132992
71.060,70.5515,-0.132992
71.170,70.5515,-0.130975
71.280,70.5515,-0.130975
71.388,70.5515,-0.126432
71.499,70.5515,-0.126432
71.608,70.5515,-0.123284
71.719,70.5515,-0.123284
71.828,70.5515,-0.123284
71.936,70.5515,-0.120777
72.045,70.5515,-0.120777
72.157,70.5515,-0.118760
72.267,70.5515,-0.118760
72.375,70.5515,-0.117082
72.483,70.5515,-0.117082
72.591,70.5515,-0.115546
72.703,70.5515,-0.115546
72.811,70.5515,-0.115546
72.920,70.5515,-0.114226
73.029,70.5515,-0.114226
73.140,70.5515,-0.113124
73.250,70.5515,-0.113124
73.359,70.5515,-0.112125
73.469,70.5515,-0.112125
73.580,70.5515,-0.111173
73.691,70.5515,-0.111173
73.800,70.5515,-0.111173
73.910,70.5515,-0.110258
74.018,70.5515,-0.110258
74.127,70.5515,-0.109419
74.237,70.5515,-0.109419
74.346,70.5515,-0.108590
74.456,70.5515,-0.108590
74.566,70.5515,-0.108590
74.676,70.5515,-0.106828
74.784,70.5515,-0.106828
74.893,70.5515,-0.104792
75.002,70.5480,-0.104792
75.111,70.5358,-0.103830
75.220,70.5155,-0.103830
75.329,70.4936,-0.103830
75.439,70.4717,-0.092199
75.548,70.4499,-0.092199
75.658,70.4278,-0.063763
75.770,70.4055,-0.063763
75.880,70.3835,-0.028644
75.990,70.3615,-0.028644
76.098,70.3398,0.009670
76.208,70.3178,0.009670
76.315,70.2962,0.009670
76.425,70.2744,0.053159
76.535,70.2525,0.053159
76.645,70.2305,0.102539
76.754,70.2087,0.102539
76.863,70.1866,0.157932
76.973,70.1649,0.157932
77.082,70.1431,0.219640
77.191,70.1212,0.219640
77.299,70.0997,0.219640
77.408,70.0777,0.287324
77.517,70.0560,0.287324
77.626,70.0342,0.287324
77.735,70.0125,0.360927
77.845,69.9904,0.440298
77.953,69.9688,0.440298
78.061,69.9472,0.440298
78.170,69.9255,0.525683
78.279,69.9037,0.525683
78.388,69.8819,0.617156
78.498,69.8598,0.617156
78.607,69.8381,0.714511
78.715,69.8164,0.714511
78.824,69.7947,0.714511
78.933,69.7727,0.818002
79.041,69.7513,0.818002
79.151,69.7293,0.927507
79.259,69.7076,0.927507
79.368,69.6858,1.042911
79.476,69.6642,1.042911
79.585,69.6423,1.163142
79.695,69.6206,1.163142
79.805,69.5985,1.163142
79.913,69.5770,1.288471
80.022,69.5552,1.288471
80.130,69.5335,1.419635
80.239,69.5118,1.419635
80.348,69.4900,1.556238
80.456,69.4681,1.556238
80.567,69.4461,1.556238
80.676,69.4242,1.697901
80.784,69.4026,1.697901
80.894,69.3806,1.844353
81.002,69.3590,1.844353
81.111,69.3370,1.996790
81.220,69.3156,1.996790
81.327,69.2941,2.154515
81.436,69.2723,2.154515
81.544,69.2506,2.154515
81.653,69.2288,2.164468
81.763,69.2069,2.164468
81.873,69.1849,1.729599
81.982,69.1630,1.729599
82.090,69.1415,1.729599
82.200,69.1195,0.688215
82.310,69.0974,0.688215
82.419,69.0757,0.010047
82.526,69.0544,0.010047
82.634,69.0326,0.007833
82.744,69.0105,0.007833
82.853,68.9889,0.007833
82.961,68.9673,0.007390
83.070,68.9455,0.007390
83.180,68.9233,0.007239
83.290,68.9015,0.007239
83.399,68.8796,0.007182
83.507,68.8582,0.007182
83.615,68.8365,0.007182
83.726,68.8143,0.007088
83.835,68.7926,0.007003
83.944,68.7707,0.007003
84.053,68.7488,0.007003
84.162,68.7271,0.006965
84.272,68.7049,0.006965
84.381,68.6833,0.006947
84.489,68.6617,0.006947
84.599,68.6398,0.006890
84.708,68.6180,0.006890
84.816,68.5962,0.006890
84.924,68.5747,0.006805
85.034,68.5526,0.006805
85.143,68.5309,0.006805
85.253,68.5091,0.006805
85.361,68.4871,0.006786
85.470,68.4655,0.006786
85.580,68.4435,0.006730
85.688,68.4220,0.006730
85.797,68.4000,0.006730
85.906,68.3783,0.006730
86.016,68.3563,0.006730
86.123,68.3349,0.006711
86.232,68.3132,0.006711
86.341,68.2911,0.006626
86.451,68.2693,0.006626
86.562,68.2472,0.006626
86.673,68.2249,0.006664
86.781,68.2035,0.006664
86.890,68.1815,0.006730
86.999,68.1598,0.006730
87.107,68.1380,0.006730
87.215,68.1165,0.006730
87.324,68.0948,0.006730
87.434,68.0727,0.006786
87.544,68.0507,0.006786
87.653,68.0288,0.006720
87.762,68.0071,0.006720
87.869,67.9857,0.006654
87.977,67.9641,0.006654
88.084,67.9428,0.006654
88.195,67.9206,0.006720
88.303,67.8990,0.006720
88.414,67.8767,0.006749
88.523,67.8550,0.006749
88.631,67.8333,0.006758
88.740,67.8114,0.006758
88.850,67.7896,0.006777
88.960,67.7675,0.006777
89.070,67.7454,0.006777
89.179,67.7239,0.006767
89.286,67.7022,0.006767
89.395,67.6805,0.006749
89.504,67.6588,0.006749
89.614,67.6366,0.006758
89.723,67.6150,0.006758
89.832,67.5930,0.006739
89.942,67.5711,0.006739
90.051,67.5492,0.006739
90.163,67.5270,0.006767
90.271,67.5102,0.006767
90.380,67.5021,0.006730
90.487,67.5015,0.006730
90.597,67.5015,0.006617
90.707,67.5015,0.006617
90.816,67.5015,0.006617
90.925,67.5015,0.006532
91.035,67.5062,0.006532
91.144,67.5200,0.006428
91.252,67.5409,0.006428
91.363,67.5630,0.006287
91.471,67.5846,0.006287
91.580,67.6065,0.006287
91.689,67.6282,0.006117
91.798,67.6502,0.006117
91.909,67.6723,0.006032
92.015,67.6936,0.006032
92.125,67.7156,0.005957
92.235,67.7375,0.005957
92.346,67.7596,0.005872
92.454,67.7814,0.005872
92.562,67.8030,0.005872
92.671,67.8248,0.005834
92.781,67.8466,0.005834
92.890,67.8684,0.005749
92.999,67.8903,0.005749
93.109,67.9123,0.005618
93.220,67.9346,0.005618
93.330,67.9565,0.005561
93.441,67.9787,0.005561
93.549,68.0002,0.005561
93.659,68.0223,0.005523
93.767,68.0440,0.005523
93.876,68.0657,0.005514
93.986,68.0878,0.005514
94.095,68.1096,0.005429
94.206,68.1317,0.005429
94.314,68.1534,0.005429
94.423,68.1751,0.005325
94.531,68.1966,0.005325
94.640,68.2185,0.005288
94.749,68.2403,0.005288
94.859,68.2624,0.005231
94.969,68.2845,0.005231
95.080,68.3064,0.005184
95.189,68.3282,0.005184
95.297,68.3501,0.005184
95.409,68.3721,0.005127
95.517,68.3940,0.005127
95.628,68.4160,0.005014
95.736,68.4376,0.005014
95.844,68.4593,0.004882
95.952,68.4808,0.004882
96.062,68.5030,0.004882
96.172,68.5249,0.004854
96.280,68.5464,0.004854
96.390,68.5685,0.004826
96.500,68.5904,0.004826
96.608,68.6120,0.004741
96.717,68.6341,0.004741
96.827,68.6558,0.004741
96.936,68.6776,0.004637
97.045,68.6994,0.004637
97.155,68.7214,0.004562
97.266,68.7437,0.004562
97.373,68.7650,0.004534
97.481,68.7867,0.004534
97.591,68.8086,0.004477
97.699,68.8304,0.004477
97.809,68.8524,0.004477
97.918,68.8743,0.004364
98.029,68.8963,0.004364
98.139,68.9182,0.004232
98.249,68.9402,0.004232
98.358,68.9620,0.004109
98.467,68.9839,0.004109
98.577,69.0060,0.003921
98.687,69.0278,0.003921
98.796,69.0498,0.003921
98.907,69.0719,0.003789
99.017,69.0938,0.003789
99.125,69.1154,0.003676
99.234,69.1371,0.003676
99.342,69.1589,0.003469
99.451,69.1805,0.003469
99.559,69.2022,0.003469
99.668,69.2239,0.003280
99.778,69.2463,0.003280
99.889,69.2682,0.003054
99.998,69.2903,0.003054
100.107,69.3119,0.002809
100.217,69.3337,0.002809
100.327,69.3559,0.002809
100.436,69.3776,0.002526
100.546,69.3995,0.002526
100.656,69.4217,0.002243
100.764,69.4433,0.002243
100.873,69.4650,0.001857
100.982,69.4869,0.001857
101.092,69.5088,0.001301
101.199,69.5303,0.001301
101.308,69.5520,0.001301
101.414,69.5733,0.000716
101.525,69.5955,0.000716
101.633,69.6170,-0.000066
101.742,69.6389,-0.000066
101.851,69.6606,-0.001056
101.962,69.6828,-0.001056
102.071,69.7046,-0.001056
102.179,69.7261,-0.002356
102.287,69.7481,-0.002356
102.395,69.7695,-0.004053
102.505,69.7915,-0.004053
102.614,69.8132,-0.006268
102.725,69.8355,-0.006268
102.835,69.8574,-0.006268
102.943,69.8790,-0.009190
103.052,69.9007,-0.009190
103.160,69.9226,-0.012875
103.268,69.9441,-0.012875
103.378,69.9660,-0.017494
103.486,69.9877,-0.017494
103.596,70.0095,-0.023073
103.703,70.0311,-0.023073
103.812,70.0530,-0.023073
103.921,70.0749,-0.029633
104.029,70.0961,-0.029633
104.138,70.1181,-0.029633
104.246,70.1396,-0.036863
104.356,70.1615,-0.044526
104.467,70.1839,-0.044526
104.575,70.2055,-0.044526
104.684,70.2273,-0.052650
104.792,70.2489,-0.052650
104.902,70.2707,-0.061218
105.010,70.2924,-0.061218
105.121,70.3145,-0.070643
105.229,70.3362,-0.070643
105.339,70.3581,-0.081209
105.448,70.3800,-0.081209
105.558,70.4019,-0.081209
105.667,70.4239,-0.093434
105.776,70.4458,-0.093434
105.885,70.4674,-0.108081
105.995,70.4875,-0.108081
106.104,70.4989,-0.125301
106.215,70.5015,-0.125301
106.324,70.5015,-0.135669
106.432,70.5015,-0.135669
106.539,70.5015,-0.135669
106.649,70.5015,-0.133982
106.757,70.5015,-0.133982
106.865,70.5015,-0.129335
106.974,70.5015,-0.129335
107.084,70.5015,-0.126046
107.192,70.5015,-0.126046
107.301,70.5015,-0.126046
107.411,70.5015,-0.123416
107.521,70.5015,-0.123416
107.630,70.5015,-0.121295
107.738,70.5015,-0.121295
107.846,70.5015,-0.119533
107.956,70.5015,-0.119533
108.064,70.5015,-0.119533
108.173,70.5015,-0.118006
108.282,70.5015,-0.118006
108.391,70.5015,-0.116649
108.500,70.5015,-0.116649
108.609,70.5015,-0.116649
108.719,70.5015,-0.115433
108.828,70.5015,-0.114340
108.936,70.5015,-0.114340
109.046,70.5015,-0.114340
109.155,70.5015,-0.113397
109.264,70.5015,-0.113397
109.374,70.5015,-0.112483
109.483,70.5015,-0.112483
109.594,70.5015,-0.111616
109.705,70.5015,-0.111616
109.814,70.5015,-0.111616
109.924,70.5015,-0.110720
110.035,70.5015,-0.110720
110.145,70.5015,-0.108769
110.256,70.5015,-0.108769
110.365,70.5015,-0.106714
110.476,70.4972,-0.106714
110.585,70.4838,-0.105451
110.695,70.4626,-0.105451
110.804,70.4406,-0.105451
110.912,70.4193,-0.091125
111.021,70.3976,-0.091125
111.130,70.3756,-0.060228
111.240,70.3537,-0.060228
111.348,70.3320,-0.024827
111.456,70.3105,-0.024827
111.565,70.2885,-0.024827
111.675,70.2667,0.013884
111.784,70.2449,0.013884
111.892,70.2232,0.057683
112.002,70.2014,0.057683
112.112,70.1794,0.107025
112.221,70.1575,0.107025
112.331,70.1354,0.107025
112.440,70.1135,0.162305
112.548,70.0920,0.162305
112.657,70.0703,0.223646
112.767,70.0483,0.223646
112.877,70.0262,0.291094
112.986,70.0044,0.291094
113.096,69.9825,0.364914
113.206,69.9605,0.364914
113.314,69.9390,0.364914
113.423,69.9170,0.445011
113.532,69.8953,0.445011
113.641,69.8734,0.531131
113.749,69.8519,0.531131
113.858,69.8302,0.623028
113.968,69.8081,0.623028
114.077,69.7863,0.623028
114.186,69.7644,0.721175
114.295,69.7426,0.721175
114.403,69.7211,0.825580
114.512,69.6993,0.825580
114.621,69.6775,0.825580
114.730,69.6557,0.936027
114.840,69.6338,0.936027
114.947,69.6122,1.051752
115.056,69.5905,1.051752
115.165,69.5685,1.172360
115.276,69.5466,1.172360
115.385,69.5246,1.298849
115.495,69.5029,1.298849
115.604,69.4810,1.430691
115.714,69.4590,1.430691
115.822,69.4372,1.430691
115.931,69.4154,1.567699
116.041,69.3935,1.567699
116.150,69.3716,1.709683
116.260,69.3496,1.709683
116.372,69.3272,1.857219
116.482,69.3053,1.857219
116.591,69.2836,2.011484
116.701,69.2615,2.011484
116.811,69.2394,2.011484
116.922,69.2174,2.172084
117.030,69.1957,2.172084
117.139,69.1741,2.339536
117.247,69.1522,2.339536
117.359,69.1300,2.339536
117.466,69.1085,2.511408
117.575,69.0868,2.511408
117.684,69.0649,2.302550
117.794,69.0430,2.302550
117.902,69.0210,1.011949
118.012,68.9993,1.011949
118.120,68.9777,0.012394
118.229,68.9560,0.012394
118.337,68.9343,0.007983
118.447,68.9125,0.007983
118.556,68.8906,0.007983
118.666,68.8685,0.007578
118.773,68.8471,0.007578
118.882,68.8253,0.007390
118.991,68.8036,0.007390
119.101,68.7815,0.007390
119.208,68.7601,0.007295
119.317,68.7383,0.007295
119.427,68.7163,0.007210
119.536,68.6945,0.007210
119.645,68.6726,0.007107
119.754,68.6509,0.007107
119.863,68.6291,0.007031
119.972,68.6073,0.007031
120.081,68.5853,0.006956
120.191,68.5635,0.006956
120.300,68.5417,0.006956
120.408,68.5200,0.006899
120.518,68.4980,0.006899
120.628,68.4761,0.006833
120.736,68.4545,0.006833
120.845,68.4325,0.006815
120.954,68.4110,0.006815
121.063,68.3890,0.006815
121.174,68.3669,0.006815
121.282,68.3453,0.006815
121.392,68.3233,0.006796
121.503,68.3012,0.006796
121.611,68.2795,0.006796
121.721,68.2574,0.006796
121.830,68.2358,0.006815
121.938,68.2141,0.006815
122.047,68.1924,0.006815
122.155,68.1708,0.006805
122.264,68.1488,0.006805
122.375,68.1268,0.006777
122.484,68.1050,0.006777
122.593,68.0830,0.006805
122.700,68.0617,0.006805
122.810,68.0396,0.006805
122.919,68.0180,0.006805
123.028,67.9961,0.006805
123.138,67.9740,0.006824
123.248,67.9521,0.006824
123.355,67.9305,0.006843
123.465,67.9089,0.006843
123.574,67.8870,0.006843
123.684,67.8650,0.006786
123.793,67.8432,0.006786
123.903,67.8212,0.006777
124.014,67.7989,0.006777
124.121,67.7777,0.006749
124.230,67.7556,0.006749
124.340,67.7339,0.006730
124.449,67.7118,0.006730
124.559,67.6899,0.006730
124.666,67.6686,0.006758
124.776,67.6464,0.006758
124.886,67.6246,0.006767
124.994,67.6028,0.006767
125.102,67.5814,0.006805
125.212,67.5593,0.006805
125.320,67.5377,0.006805
125.430,67.5156,0.006796
125.538,67.4941,0.006796
125.648,67.4723,0.006805
125.757,67.4575,0.006805
125.868,67.4516,0.006749
125.975,67.4515,0.006749
126.084,67.4521,0.006598
126.195,67.4599,0.006598
126.302,67.4766,0.006598
126.412,67.4985,0.006343
126.522,67.5203,0.006343
126.631,67.5423,0.006117
126.740,67.5642,0.006117
126.847,67.5855,0.006070
126.956,67.6072,0.006070
127.067,67.6295,0.006070
127.178,67.6516,0.006032
127.286,67.6733,0.006032
127.396,67.6952,0.005947
127.505,67.7170,0.005947
127.614,67.7389,0.005844
127.724,67.7608,0.005844
127.832,67.7825,0.005759
127.942,67.8045,0.005759
128.051,67.8262,0.005759
128.162,67.8484,0.005721
128.270,67.8701,0.005721
128.380,67.8920,0.005665
128.489,67.9137,0.005665
128.598,67.9356,0.005627
128.708,67.9575,0.005627
128.816,67.9792,0.005627
128.926,68.0012,0.005561
129.035,68.0230,0.005561
129.146,68.0451,0.005486
129.256,68.0673,0.005486
129.366,68.0891,0.005382
129.474,68.1109,0.005382
129.584,68.1328,0.005382
129.693,68.1546,0.005325
129.802,68.1763,0.005325
129.911,68.1981,0.005307
130.021,68.2202,0.005307
130.129,68.2418,0.005250
130.239,68.2639,0.005250
130.348,68.2857,0.005127
130.458,68.3076,0.005127
130.567,68.3295,0.005127
130.677,68.3514,0.005043
130.784,68.3728,0.005043
130.893,68.3946,0.004977
131.002,68.4164,0.004977
131.110,68.4380,0.004845
131.218,68.4597,0.004845
131.328,68.4816,0.004826
131.435,68.5030,0.004826
131.545,68.5251,0.004826
131.656,68.5473,0.004807
131.765,68.5688,0.004807
131.874,68.5909,0.004760
131.983,68.6126,0.004760
132.093,68.6344,0.004656
132.201,68.6562,0.004656
132.310,68.6779,0.004656
132.418,68.6998,0.004581
132.528,68.7215,0.004581
132.637,68.7435,0.004515
132.746,68.7652,0.004515
132.856,68.7874,0.004364
132.965,68.8088,0.004364
133.073,68.8305,0.004364
133.183,68.8525,0.004279
133.292,68.8744,0.004279
133.403,68.8965,0.004213
133.514,68.9187,0.004213
133.624,68.9409,0.003996
133.733,68.9626,0.003996
133.842,68.9842,0.003827
133.950,69.0060,0.003827
134.059,69.0278,0.003827
134.169,69.0497,0.003723
134.280,69.0720,0.003723
134.387,69.0935,0.003572
134.496,69.1152,0.003572
134.605,69.1370,0.003412
134.716,69.1591,0.003412
134.825,69.1811,0.003205
134.934,69.2027,0.003205
135.041,69.2242,0.003205
135.149,69.2458,0.002960
135.258,69.2676,0.002960
135.368,69.2897,0.002960
135.477,69.3114,0.002686
135.586,69.3332,0.002347
135.694,69.3550,0.002347
135.805,69.3770,0.002347
135.913,69.3986,0.001923
136.023,69.4205,0.001923
136.132,69.4423,0.001480
136.238,69.4637,0.001480
136.348,69.4855,0.000933
136.459,69.5077,0.000933
136.570,69.5300,0.000933
136.680,69.5520,0.000198
136.788,69.5734,0.000198
136.898,69.5955,-0.000782
137.006,69.6171,-0.000782
137.115,69.6389,-0.001951
137.223,69.6606,-0.001951
137.332,69.6824,-0.001951
137.441,69.7043,-0.003487
137.549,69.7256,-0.003487
137.658,69.7474,-0.005542
137.766,69.7690,-0.005542
137.876,69.7911,-0.008228
137.985,69.8130,-0.008228
138.093,69.8345,-0.011763
138.204,69.8567,-0.011763
138.313,69.8785,-0.011763
138.424,69.9006,-0.016146
138.534,69.9227,-0.016146
138.644,69.9446,-0.021556
138.752,69.9665,-0.021556
138.861,69.9882,-0.027796
138.971,70.0101,-0.027796
139.080,70.0319,-0.027796
139.188,70.0538,-0.034761
139.297,70.0754,-0.034761
139.406,70.0972,-0.042254
139.517,70.1194,-0.042254
139.626,70.1412,-0.050096
139.735,70.1629,-0.050096
139.844,70.1847,-0.058447
139.954,70.2068,-0.058447
140.063,70.2288,-0.058447
140.173,70.2505,-0.067410
140.280,70.2721,-0.067410
140.391,70.2941,-0.077411
140.500,70.3158,-0.077411
140.608,70.3377,-0.088966
140.717,70.3594,-0.088966
140.827,70.3813,-0.088966
140.936,70.4033,-0.102567
141.044,70.4247,-0.102567
141.153,70.4422,-0.119062
141.263,70.4506,-0.119062
141.374,70.4515,-0.134868
141.482,70.4515,-0.134868
141.592,70.4515,-0.138949
141.702,70.4515,-0.138949
141.812,70.4515,-0.138949
141.921,70.4515,-0.134057
142.029,70.4515,-0.134057
142.139,70.4515,-0.130212
142.249,70.4515,-0.130212
142.357,70.4515,-0.127271
142.467,70.4515,-0.127271
142.577,70.4515,-0.124830
142.688,70.4515,-0.124830
142.799,70.4515,-0.124830
142.908,70.4515,-0.122813
143.017,70.4515,-0.122813
143.127,70.4515,-0.121088
143.237,70.4515,-0.121088
143.347,70.4515,-0.119524
143.456,70.4515,-0.119524
143.567,70.4515,-0.119524
143.677,70.4515,-0.118034
143.787,70.4515,-0.118034
143.897,70.4515,-0.116696
144.006,70.4515,-0.116696
144.114,70.4515,-0.115612
144.222,70.4515,-0.115612
144.332,70.4515,-0.114801
144.442,70.4515,-0.114801
144.551,70.4515,-0.114801
144.659,70.4515,-0.114038
144.768,70.4515,-0.114038
144.876,70.4515,-0.113152
144.983,70.4515,-0.113152
145.093,70.4515,-0.111540
145.202,70.4515,-0.111540
145.310,70.4515,-0.111540
145.420,70.4515,-0.109240
145.529,70.4506,-0.109240
145.639,70.4420,-0.107940
145.749,70.4241,-0.107940
145.858,70.4023,-0.100984
145.967,70.3804,-0.100984
146.076,70.3587,-0.076883
146.186,70.3367,-0.076883
146.296,70.3145,-0.076883
146.407,70.2925,-0.042226
146.515,70.2709,-0.042226
146.624,70.2490,-0.005749
146.732,70.2274,-0.005749
146.841,70.2056,0.035232
146.951,70.1837,0.035232
147.059,70.1622,0.035232
147.167,70.1403,0.082010
147.277,70.1185,0.082010
147.387,70.0964,0.134661
147.496,70.0747,0.134661
147.607,70.0527,0.192599
147.716,70.0306,0.192599
147.825,70.0089,0.192599
147.933,69.9872,0.256314
148.043,69.9655,0.256314
148.154,69.9430,0.326505
148.262,69.9214,0.326505
148.373,69.8994,0.403153
148.483,69.8774,0.403153
148.591,69.8558,0.486002
148.700,69.8340,0.486002
148.809,69.8122,0.486002
148.918,69.7903,0.575138
149.028,69.7681,0.575138
149.138,69.7463,0.670759
149.247,69.7245,0.670759
149.355,69.7029,0.772572
149.463,69.6812,0.772572
149.573,69.6593,0.772572
149.682,69.6374,0.876977
149.792,69.6156,0.876977
149.901,69.5938,0.887713
150.011,69.5717,0.887713
150.120,69.5500,0.796069
150.228,69.5283,0.796069
150.337,69.5066,0.723635
150.445,69.4849,0.723635
150.556,69.4628,0.723635
150.665,69.4411,0.693238
150.774,69.4190,0.693238
150.883,69.3973,0.670410
150.991,69.3757,0.670410
151.100,69.3539,0.605422
151.210,69.3320,0.605422
151.317,69.3105,0.605422
151.427,69.2887,0.463984
151.536,69.2667,0.463984
151.644,69.2450,0.196623
151.754,69.2231,0.196623
151.864,69.2011,0.015637
151.974,69.1793,0.015637
152.082,69.1573,0.015637
152.192,69.1356,0.010377
152.299,69.1142,0.010377
152.409,69.0921,0.009275
152.518,69.0704,0.009275
152.627,69.0487,0.008624
152.736,69.0266,0.008624
152.843,69.0054,0.008219
152.953,68.9834,0.008219
153.061,68.9616,0.008219
153.170,68.9400,0.007955
153.280,68.9180,0.007955
153.388,68.8964,0.007767
153.498,68.8744,0.007767
153.606,68.8527,0.007531
153.716,68.8305,0.007531
153.826,68.8086,0.007531
153.935,68.7870,0.007342
154.044,68.7652,0.007342
154.154,68.7432,0.007239
154.262,68.7215,0.007239
154.370,68.6999,0.007182
154.480,68.6780,0.007182
154.590,68.6559,0.007050
154.699,68.6343,0.007050
154.810,68.6119,0.007050
154.921,68.5899,0.006975
155.031,68.5677,0.006975
155.142,68.5455,0.006956
155.252,68.5234,0.006956
155.362,68.5015,0.006909
155.471,68.4798,0.006909
155.578,68.4582,0.006890
155.688,68.4365,0.006890
155.795,68.4149,0.006890
155.903,68.3933,0.006862
156.015,68.3711,0.006862
156.123,68.3494,0.006815
156.234,68.3272,0.006815
156.342,68.3055,0.006767
156.453,68.2835,0.006767
156.561,68.2616,0.006767
156.669,68.2403,0.006720
156.779,68.2180,0.006720
156.889,68.1963,0.006701
156.999,68.1741,0.006701
157.109,68.1522,0.006767
157.218,68.1303,0.006767
157.329,68.1081,0.006767
157.437,68.0865,0.006805
157.546,68.0648,0.006805
157.654,68.0432,0.006796
157.764,68.0213,0.006796
157.873,67.9993,0.006739
157.981,67.9779,0.006739
158.090,67.9560,0.006730
158.200,67.9340,0.006730
158.309,67.9123,0.006730
158.418,67.8902,0.006767
158.529,67.8682,0.006767
158.636,67.8469,0.006805
158.746,67.8249,0.006805
158.855,67.8029,0.006758
158.966,67.7808,0.006758
159.077,67.7585,0.006758
159.185,67.7369,0.006701
159.294,67.7152,0.006701
159.404,67.6932,0.006683
159.513,67.6714,0.006683
159.621,67.6498,0.006692
159.732,67.6276,0.006692
159.839,67.6063,0.006758
159.948,67.5845,0.006758
160.056,67.5629,0.006758
160.166,67.5407,0.006786
160.276,67.5189,0.006786
160.385,67.4970,0.006805
160.495,67.4750,0.006805
160.604,67.4534,0.006805
160.713,67.4315,0.006805
160.822,67.4128,0.006805
160.931,67.4030,0.006796
161.039,67.4015,0.006796
161.148,67.4040,0.006598
161.259,67.4153,0.006598
161.368,67.4350,0.006353
161.476,67.4568,0.006353
161.585,67.4784,0.006353
161.695,67.5006,0.006249
161.803,67.5221,0.006249
161.913,67.5440,0.006145
162.022,67.5659,0.006145
162.131,67.5876,0.006051
162.240,67.6094,0.006051
162.350,67.6315,0.005995
162.460,67.6534,0.005995
162.571,67.6757,0.005995
162.681,67.6976,0.005881
162.790,67.7194,0.005881
162.899,67.7412,0.005797
163.010,67.7636,0.005797
163.122,67.7858,0.005778
163.231,67.8077,0.005778
163.340,67.8293,0.005778
163.450,67.8514,0.005674
163.560,67.8733,0.005674
163.669,67.8953,0.005608
163.777,67.9168,0.005608
163.887,67.9388,0.005570
163.995,67.9605,0.005570
164.104,67.9822,0.005457
164.213,68.0039,0.005457
164.321,68.0257,0.005457
164.430,68.0472,0.005363
164.540,68.0694,0.005363
164.649,68.0912,0.005344
164.758,68.1129,0.005344
164.868,68.1350,0.005278
164.975,68.1563,0.005278
165.085,68.1785,0.005175
165.194,68.2001,0.005175
165.303,68.2219,0.005175
165.412,68.2439,0.005118
165.521,68.2655,0.005118
165.631,68.2877,0.005052
165.741,68.3095,0.005052
165.850,68.3313,0.004977
165.961,68.3535,0.004977
166.072,68.3757,0.004977
166.181,68.3977,0.004977
166.291,68.4195,0.004977
166.401,68.4415,0.004864
166.510,68.4633,0.004864
166.620,68.4852,0.004732
166.729,68.5071,0.004732
166.839,68.5292,0.004684
166.948,68.5510,0.004684
167.056,68.5726,0.004684
167.166,68.5944,0.004609
167.273,68.6160,0.004609
167.381,68.6375,0.004505
167.490,68.6595,0.004505
167.599,68.6811,0.004392
167.709,68.7033,0.004392
167.817,68.7249,0.004392
167.928,68.7471,0.004279
168.037,68.7689,0.004279
168.148,68.7910,0.004175
168.254,68.8122,0.004175
168.364,68.8340,0.004109
168.474,68.8562,0.004109
168.584,68.8780,0.004109
168.692,68.8997,0.004015
168.801,68.9214,0.004015
168.909,68.9430,0.003846
169.018,68.9650,0.003846
169.126,68.9864,0.003846
169.234,69.0081,0.003676
169.344,69.0301,0.003553
169.453,69.0519,0.003553
169.564,69.0741,0.003553
169.671,69.0956,0.003318
169.781,69.1175,0.003318
169.890,69.1395,0.003044
169.999,69.1610,0.003044
170.107,69.1828,0.002884
170.216,69.2045,0.002884
170.323,69.2259,0.002884
170.432,69.2479,0.002630
170.542,69.2697,0.002630
170.651,69.2916,0.002262
170.760,69.3135,0.002262
170.869,69.3352,0.001876
170.978,69.3570,0.001876
171.088,69.3790,0.001423
171.196,69.4007,0.001423
171.305,69.4225,0.001423
171.415,69.4444,0.000839
171.524,69.4661,0.000839
171.634,69.4880,0.000075
171.744,69.5101,0.000075
171.852,69.5316,-0.000811
171.961,69.5535,-0.000811
172.070,69.5753,-0.000811
172.178,69.5970,-0.001913
172.287,69.6187,-0.001913
172.395,69.6404,-0.003403
172.506,69.6626,-0.003403
172.614,69.6841,-0.005344
172.724,69.7061,-0.005344
172.833,69.7282,-0.005344
172.944,69.7502,-0.007842
173.051,69.7716,-0.007842
173.161,69.7934,-0.011207
173.270,69.8153,-0.011207
173.379,69.8371,-0.015524
173.487,69.8588,-0.015524
173.595,69.8805,-0.020755
173.705,69.9022,-0.020755
173.813,69.9240,-0.020755
173.923,69.9459,-0.026938
174.031,69.9675,-0.026938
174.142,69.9897,-0.026938
174.250,70.0112,-0.033790
174.359,70.0332,-0.041180
174.468,70.0549,-0.041180
174.578,70.0770,-0.049087
174.687,70.0987,-0.049087
174.797,70.1206,-0.049087
174.905,70.1423,-0.057354
175.015,70.1643,-0.057354
175.124,70.1862,-0.057354
175.234,70.2081,-0.066138
175.342,70.2296,-0.075959
175.454,70.2522,-0.075959
175.563,70.2739,-0.075959
175.674,70.2960,-0.087289
175.782,70.3178,-0.087289
175.893,70.3398,-0.100578
176.003,70.3618,-0.100578
176.111,70.3828,-0.116536
176.222,70.3969,-0.116536
176.332,70.4015,-0.116536
176.442,70.4015,-0.132549
176.551,70.4015,-0.132549
176.659,70.4015,-0.137630
176.768,70.4015,-0.137630
176.877,70.4015,-0.133106
176.987,70.4015,-0.133106
177.095,70.4015,-0.133106
177.205,70.4015,-0.129109
177.312,70.4015,-0.129109
177.422,70.4015,-0.126168
177.531,70.4015,-0.126168
177.642,70.4015,-0.123812
177.751,70.4015,-0.123812
177.860,70.4015,-0.121786
177.968,70.4015,-0.121786
178.078,70.4015,-0.121786
178.184,70.4015,-0.120051
178.296,70.4015,-0.120051
178.407,70.4015,-0.118590
178.518,70.4015,-0.118590
178.627,70.4015,-0.117280
178.738,70.4015,-0.117280
178.848,70.4015,-0.116083
178.957,70.4015,-0.116083
179.068,70.4015,-0.116083
179.177,70.4015,-0.114990
179.286,70.4015,-0.114990
179.396,70.4015,-0.114000
179.507,70.4015,-0.114000
179.615,70.4015,-0.113105
179.724,70.4015,-0.113105
179.834,70.4015,-0.112247
179.944,70.4015,-0.112247
180.053,70.4015,-0.112247
180.161,70.4015,-0.110994
180.270,70.4015,-0.110994
180.379,70.4015,-0.108845
180.491,70.4015,-0.108845
180.601,70.4002,-0.107148
180.712,70.3902,-0.107148
180.820,70.3720,-0.107148
180.929,70.3502,-0.103585
181.038,70.3282,-0.103585
181.146,70.3068,-0.083679
181.256,70.2846,-0.083679
181.366,70.2626,-0.050039
181.475,70.2410,-0.050039
181.584,70.2190,-0.014525
181.693,70.1974,-0.014525
181.803,70.1752,-0.014525
181.912,70.1536,0.025222
182.020,70.1318,0.025222
182.128,70.1103,0.070351
182.236,70.0889,0.070351
182.344,70.0670,0.121475
182.455,70.0450,0.121475
182.564,70.0230,0.121475
182.674,70.0012,0.178423
182.784,69.9791,0.178423
182.893,69.9574,0.241375
183.003,69.9353,0.241375
183.112,69.9135,0.310661
183.223,69.8913,0.310661
183.333,69.8691,0.385876
183.442,69.8475,0.385876
183.551,69.8257,0.385876
183.662,69.8036,0.467387
183.768,69.7823,0.467387
183.877,69.7605,0.555269
183.987,69.7385,0.555269
184.097,69.7166,0.649618
184.206,69.6948,0.649618
184.312,69.6735,0.649618
184.422,69.6513,0.749904
184.532,69.6295,0.749904
184.640,69.6080,0.855242
184.749,69.5861,0.855242
184.858,69.5644,0.966311
184.967,69.5425,0.966311
185.076,69.5208,0.966311
185.184,69.4990,1.083148
185.293,69.4773,1.083148
185.404,69.4551,1.205236
185.510,69.4339,1.205236
185.621,69.4118,1.332186
185.728,69.3901,1.332186
185.837,69.3685,1.464359
185.947,69.3465,1.464359
186.057,69.3245,1.464359
186.167,69.3026,1.602365
186.275,69.2809,1.602365
186.385,69.2589,1.746386
186.494,69.2372,1.746386
186.604,69.2151,1.896985
186.712,69.1934,1.896985
186.821,69.1718,1.896985
186.929,69.1500,2.053729
187.038,69.1283,2.053729
187.148,69.1062,2.216232
187.257,69.0845,2.216232
187.367,69.0626,2.383807
187.476,69.0409,2.383807
187.585,69.0188,2.383807
187.693,68.9975,2.557206
187.801,68.9758,2.557206
187.909,68.9542,2.737495
188.019,68.9322,2.737495
188.129,68.9100,2.923609
188.237,68.8886,2.923609
188.346,68.8667,3.115284
188.456,68.8448,3.115284
188.566,68.8227,3.115284
188.676,68.8008,3.312435
188.785,68.7789,3.312435
188.893,68.7572,3.515524
189.003,68.7354,3.515524
189.111,68.7137,3.725060
189.220,68.6920,3.725060
189.326,68.6707,3.725060
189.437,68.6486,3.940657
189.546,68.6269,3.940657
189.654,68.6051,4.110408
189.764,68.5831,4.110408
189.872,68.5615,2.093523
189.980,68.5399,2.093523
190.087,68.5186,0.012366
190.197,68.4967,0.012366
190.308,68.4742,0.012366
190.417,68.4525,0.008294
190.527,68.4307,0.008294
190.635,68.4088,0.007833
190.742,68.3876,0.007833
190.851,68.3656,0.007559
190.961,68.3437,0.007559
191.070,68.3219,0.007559
191.179,68.3002,0.007390
191.289,68.2781,0.007390
191.398,68.2563,0.007333
191.507,68.2346,0.007333
191.616,68.2129,0.007305
191.724,68.1912,0.007305
191.833,68.1694,0.007258
191.942,68.1477,0.007258
192.051,68.1257,0.007258
192.160,68.1039,0.007201
192.269,68.0823,0.007201
192.377,68.0605,0.007182
192.487,68.0386,0.007182
192.595,68.0169,0.007163
192.704,67.9951,0.007163
192.813,67.9733,0.007163
192.922,67.9517,0.007107
193.030,67.9300,0.007107
193.140,67.9079,0.007097
193.249,67.8862,0.007097
193.357,67.8646,0.007060
193.467,67.8424,0.007060
193.577,67.8206,0.007060
193.685,67.7988,0.006984
193.794,67.7772,0.006984
193.903,67.7554,0.006975
194.012,67.7337,0.006975
194.119,67.7121,0.006975
194.229,67.6903,0.006975
194.338,67.6684,0.007012
194.449,67.6464,0.007012
194.558,67.6245,0.007012
194.666,67.6026,0.007050
194.776,67.5809,0.007050
194.886,67.5588,0.007003
194.997,67.5366,0.007003
195.103,67.5154,0.007041
195.212,67.4936,0.007041
195.320,67.4721,0.007041
195.430,67.4500,0.007069
195.540,67.4279,0.007069
195.649,67.4064,0.007012
195.757,67.3847,0.007012
195.865,67.3651,0.007003
195.975,67.3539,0.007003
196.084,67.3515,0.006918
196.193,67.3515,0.006918
196.302,67.3568,0.006918
196.410,67.3708,0.006786
196.519,67.3919,0.006786
196.628,67.4137,0.006560
196.737,67.4356,0.006560
196.846,67.4573,0.006400
196.954,67.4790,0.006400
197.064,67.5009,0.006400
197.173,67.5227,0.006353
197.282,67.5445,0.006353
197.391,67.5664,0.006240
197.500,67.5882,0.006240
197.609,67.6101,0.006145
197.718,67.6318,0.006145
197.829,67.6540,0.006145
197.939,67.6759,0.006098
198.048,67.6978,0.006098
198.156,67.7193,0.006023
198.264,67.7409,0.006023
198.372,67.7626,0.005919
198.482,67.7845,0.005919
198.591,67.8063,0.005900
198.698,67.8277,0.005900
198.807,67.8496,0.005900
198.916,67.8713,0.005797
199.028,67.8937,0.005797
199.137,67.9157,0.005740
199.247,67.9376,0.005740
199.355,67.9591,0.005740
199.464,67.9808,0.005684
199.574,68.0029,0.005684
199.684,68.0251,0.005514
199.793,68.0468,0.005514
199.901,68.0684,0.005457
200.011,68.0902,0.005457
200.118,68.1118,0.005391
200.228,68.1338,0.005391
200.337,68.1556,0.005316
200.445,68.1772,0.005316
200.556,68.1994,0.005316
200.663,68.2210,0.005269
200.773,68.2428,0.005269
200.882,68.2645,0.005203
200.992,68.2864,0.005203
201.101,68.3083,0.005137
201.211,68.3303,0.005137
201.320,68.3520,0.005137
201.428,68.3740,0.005071
201.535,68.3951,0.005071
201.645,68.4172,0.004995
201.753,68.4386,0.004995
201.862,68.4607,0.004929
201.973,68.4826,0.004929
202.082,68.5046,0.004929
202.192,68.5264,0.004854
202.299,68.5479,0.004854
202.408,68.5698,0.004769
202.516,68.5913,0.004769
202.625,68.6131,0.004675
202.735,68.6351,0.004675
202.842,68.6565,0.004609
202.952,68.6786,0.004609
203.062,68.7004,0.004609
203.172,68.7226,0.004486
203.281,68.7443,0.004486
203.389,68.7658,0.004345
203.497,68.7875,0.004345
203.606,68.8094,0.004241
203.717,68.8315,0.004241
203.827,68.8533,0.004241
203.935,68.8752,0.004062
204.043,68.8966,0.004062
204.152,68.9186,0.003940
204.262,68.9404,0.003940
204.372,68.9625,0.003798
204.480,68.9842,0.003798
204.587,69.0055,0.003572
204.697,69.0275,0.003572
204.807,69.0494,0.003572
204.917,69.0715,0.003374
205.026,69.0933,0.003374
205.135,69.1150,0.003129
205.245,69.1371,0.003129
205.355,69.1589,0.002837
205.463,69.1809,0.002837
205.571,69.2023,0.002837
205.680,69.2241,0.002469
205.790,69.2463,0.002469
205.899,69.2677,0.002140
206.009,69.2898,0.002140
206.119,69.3117,0.001725
206.227,69.3336,0.001725
206.336,69.3554,0.001112
206.444,69.3769,0.001112
206.553,69.3987,0.001112
206.662,69.4206,0.000386
206.774,69.4428,0.000386
206.882,69.4644,-0.000462
206.991,69.4862,-0.000462
207.100,69.5081,-0.001546
207.209,69.5298,-0.001546
207.317,69.5515,-0.001546
207.426,69.5732,-0.002960
207.535,69.5953,-0.002960
207.646,69.6172,-0.004845
207.754,69.6388,-0.004845
207.863,69.6606,-0.004845
207.973,69.6826,-0.007314
208.082,69.7046,-0.010519
208.190,69.7261,-0.010519
208.300,69.7481,-0.010519
208.409,69.7700,-0.014675
208.520,69.7921,-0.014675
208.630,69.8140,-0.019888
208.738,69.8357,-0.019888
208.848,69.8576,-0.019888
208.956,69.8791,-0.026061
209.065,69.9011,-0.026061
209.175,69.9229,-0.032923
209.284,69.9449,-0.032923
209.394,69.9671,-0.040322
209.505,69.9889,-0.040322
209.611,70.0104,-0.048117
209.720,70.0319,-0.048117
209.830,70.0540,-0.048117
209.940,70.0762,-0.056260
210.050,70.0980,-0.056260
210.160,70.1200,-0.064988
210.269,70.1418,-0.064988
210.377,70.1634,-0.074630
210.487,70.1855,-0.074630
210.596,70.2072,-0.085724
210.704,70.2288,-0.085724
210.813,70.2507,-0.085724
210.922,70.2725,-0.098797
211.032,70.2944,-0.098797
211.141,70.3162,-0.114500
211.250,70.3365,-0.114500
211.359,70.3485,-0.133115
211.469,70.3516,-0.133115
