Elapsed Time (s),Position (mm),Force (N)
-0.016,68.1515,-0.203674
0.091,68.1515,-0.199121
0.200,68.1515,-0.199121
0.309,68.1515,-0.199121
0.417,68.1515,-0.192533
0.526,68.1515,-0.192533
0.635,68.1515,-0.187735
0.746,68.1515,-0.187735
0.856,68.1515,-0.183833
0.967,68.1515,-0.183833
1.077,68.1515,-0.180496
1.187,68.1515,-0.180496
1.296,68.1515,-0.180496
1.405,68.1515,-0.177565
1.516,68.1515,-0.177565
1.625,68.1515,-0.175086
1.735,68.1515,-0.175086
1.846,68.1515,-0.172881
1.955,68.1515,-0.172881
2.065,68.1515,-0.170845
2.174,68.1515,-0.170845
2.285,68.1515,-0.170845
2.396,68.1515,-0.169026
2.506,68.1515,-0.169026
2.615,68.1515,-0.169026
2.722,68.1515,-0.167301
2.832,68.1515,-0.165699
2.940,68.1515,-0.165699
3.050,68.1515,-0.165699
3.159,68.1515,-0.164341
3.268,68.1515,-0.164341
3.377,68.1515,-0.162984
3.486,68.1515,-0.162984
3.595,68.1515,-0.160609
3.705,68.1515,-0.160609
3.814,68.1515,-0.160609
3.926,68.1515,-0.156471
4.036,68.1515,-0.156471
4.145,68.1467,-0.153229
4.254,68.1328,-0.153229
4.363,68.1116,-0.147847
4.474,68.0892,-0.147847
4.584,68.0673,-0.121333
4.695,68.0452,-0.121333
4.805,68.0230,-0.121333
4.914,68.0013,-0.078598
5.024,67.9794,-0.078598
5.133,67.9578,-0.037080
5.243,67.9356,-0.037080
5.352,67.9139,0.005589
5.461,67.8919,0.005589
5.571,67.8701,0.051877
5.682,67.8479,0.051877
5.793,67.8256,0.051877
5.902,67.8037,0.103133
6.010,67.7823,0.103133
6.120,67.7603,0.159779
6.230,67.7381,0.159779
6.338,67.7164,0.222166
6.446,67.6951,0.222166
6.556,67.6731,0.222166
6.664,67.6514,0.290698
6.774,67.6294,0.290698
6.884,67.6075,0.365517
6.992,67.5858,0.365517
7.100,67.5641,0.446359
7.209,67.5425,0.446359
7.318,67.5206,0.532922
7.427,67.4988,0.532922
7.535,67.4772,0.532922
7.646,67.4551,0.625517
7.755,67.4333,0.625517
7.863,67.4115,0.724012
7.971,67.3901,0.724012
8.081,67.3682,0.828578
8.191,67.3460,0.828578
8.300,67.3244,0.828578
8.408,67.3026,0.939232
8.517,67.2809,0.939232
8.627,67.2588,0.939232
8.735,67.2371,1.056022
8.844,67.2154,1.178599
8.953,67.1937,1.178599
9.062,67.1718,1.306295
9.172,67.1499,1.306295
9.281,67.1281,1.306295
9.391,67.1060,1.439626
9.501,67.0842,1.439626
9.610,67.0622,1.578152
9.718,67.0407,1.578152
9.827,67.0187,1.722200
9.936,66.9971,1.722200
10.045,66.9753,1.722200
10.154,66.9534,1.872365
10.265,66.9311,1.872365
10.375,66.9094,2.028460
10.485,66.8872,2.028460
10.594,66.8655,2.190737
10.704,66.8434,2.190737
10.815,66.8213,2.190737
10.925,66.7993,2.358697
11.032,66.7777,2.358697
11.141,66.7561,2.166099
11.251,66.7340,2.166099
11.358,66.7126,1.647504
11.467,66.6909,1.647504
11.576,66.6689,1.647504
11.686,66.6471,0.776917
11.796,66.6249,0.776917
11.905,66.6033,0.079645
12.015,66.5811,0.079645
12.121,66.5600,0.011310
12.232,66.5380,0.011310
12.340,66.5161,0.010076
12.449,66.4944,0.010076
12.559,66.4725,0.009595
12.667,66.4509,0.009595
12.775,66.4292,0.009595
12.885,66.4072,0.009227
12.993,66.3858,0.009227
13.103,66.3637,0.008982
13.212,66.3417,0.008982
13.321,66.3198,0.008832
13.430,66.2982,0.008832
13.540,66.2763,0.008832
13.650,66.2544,0.008709
13.761,66.2320,0.008709
13.868,66.2107,0.008643
13.977,66.1888,0.008643
14.086,66.1671,0.008530
14.195,66.1453,0.008530
14.304,66.1235,0.008530
14.415,66.1014,0.008455
14.525,66.0792,0.008455
14.633,66.0576,0.008417
14.741,66.0362,0.008417
14.850,66.0142,0.008417
14.958,65.9926,0.008417
15.067,65.9708,0.008389
15.175,65.9491,0.008389
15.285,65.9274,0.008389
15.396,65.9052,0.008323
15.504,65.8835,0.008323
15.612,65.8618,0.008304
15.722,65.8400,0.008304
15.832,65.8179,0.008294
15.941,65.7962,0.008294
16.049,65.7743,0.008294
16.159,65.7526,0.008304
16.267,65.7309,0.008304
16.379,65.7086,0.008304
16.488,65.6867,0.008304
16.597,65.6648,0.008323
16.705,65.6434,0.008323
16.814,65.6214,0.008323
16.923,65.5997,0.008332
17.034,65.5775,0.008332
17.142,65.5561,0.008313
17.251,65.5341,0.008313
17.360,65.5124,0.008313
17.468,65.4906,0.008313
17.576,65.4691,0.008360
17.687,65.4468,0.008360
17.796,65.4251,0.008360
17.907,65.4029,0.008398
18.015,65.3813,0.008398
18.123,65.3597,0.008389
18.232,65.3379,0.008389
18.341,65.3161,0.008389
18.451,65.2942,0.008389
18.559,65.2723,0.008455
18.668,65.2507,0.008455
18.777,65.2290,0.008455
18.884,65.2074,0.008483
18.991,65.1861,0.008483
19.101,65.1640,0.008521
19.211,65.1421,0.008521
19.320,65.1209,0.008558
19.429,65.1067,0.008558
19.537,65.1015,0.008558
19.645,65.1015,0.008379
19.755,65.1015,0.008379
19.864,65.1015,0.008191
19.973,65.1015,0.008191
20.080,65.1015,0.008134
20.189,65.1015,0.008134
20.299,65.1066,0.008134
20.407,65.1205,0.008049
20.517,65.1418,0.008049
20.627,65.1640,0.007804
20.736,65.1856,0.007804
20.844,65.2072,0.007569
20.953,65.2291,0.007569
21.062,65.2510,0.007474
21.170,65.2727,0.007474
21.279,65.2942,0.007474
21.388,65.3162,0.007361
21.496,65.3377,0.007361
21.606,65.3596,0.007286
21.716,65.3816,0.007286
21.826,65.4036,0.007239
21.934,65.4252,0.007239
22.044,65.4472,0.007239
22.153,65.4692,0.007126
22.262,65.4908,0.007126
22.372,65.5129,0.007012
22.481,65.5347,0.007012
22.589,65.5563,0.006956
22.699,65.5781,0.006956
22.808,65.6001,0.006956
22.918,65.6219,0.006852
23.026,65.6436,0.006852
23.136,65.6658,0.006786
23.246,65.6875,0.006786
23.355,65.7096,0.006701
23.464,65.7313,0.006701
23.572,65.7529,0.006654
23.680,65.7745,0.006654
23.791,65.7965,0.006654
23.900,65.8185,0.006570
24.007,65.8400,0.006570
24.116,65.8617,0.006419
24.224,65.8831,0.006419
24.332,65.9048,0.006343
24.443,65.9271,0.006343
24.550,65.9486,0.006343
24.658,65.9701,0.006230
24.768,65.9921,0.006230
24.877,66.0140,0.006155
24.987,66.0359,0.006155
25.096,66.0577,0.006117
25.204,66.0794,0.006117
25.313,66.1010,0.006117
25.422,66.1227,0.006004
25.531,66.1447,0.006004
25.640,66.1663,0.005853
25.751,66.1887,0.005853
25.860,66.2104,0.005731
25.968,66.2321,0.005731
26.077,66.2538,0.005665
26.185,66.2754,0.005665
26.293,66.2970,0.005665
26.401,66.3187,0.005542
26.511,66.3408,0.005542
26.619,66.3622,0.005382
26.729,66.3843,0.005382
26.838,66.4060,0.005231
26.947,66.4278,0.005231
27.056,66.4495,0.005231
27.166,66.4716,0.005118
27.274,66.4932,0.005118
27.382,66.5149,0.004967
27.492,66.5368,0.004967
27.603,66.5590,0.004779
27.713,66.5811,0.004779
27.823,66.6029,0.004618
27.933,66.6250,0.004618
28.043,66.6470,0.004618
28.152,66.6690,0.004355
28.262,66.6909,0.004355
28.371,66.7127,0.004091
28.482,66.7348,0.004091
28.593,66.7571,0.003798
28.702,66.7787,0.003798
28.811,66.8005,0.003487
28.919,66.8222,0.003487
29.028,66.8440,0.003487
29.136,66.8655,0.003129
29.246,66.8875,0.003129
29.352,66.9088,0.003129
29.461,66.9307,0.002658
29.569,66.9524,0.002177
29.680,66.9744,0.002177
29.788,66.9962,0.002177
29.899,67.0180,0.001517
30.007,67.0398,0.001517
30.116,67.0617,0.000697
30.225,67.0835,0.000697
30.334,67.1051,-0.000283
30.443,67.1269,-0.000283
30.552,67.1486,-0.000283
30.660,67.1703,-0.001565
30.768,67.1922,-0.001565
30.878,67.2140,-0.003139
30.988,67.2362,-0.003139
31.097,67.2577,-0.005193
31.206,67.2797,-0.005193
31.314,67.3011,-0.007898
31.422,67.3228,-0.007898
31.531,67.3446,-0.007898
31.640,67.3664,-0.011254
31.749,67.3883,-0.011254
31.860,67.4102,-0.015552
31.968,67.4320,-0.015552
32.076,67.4536,-0.020830
32.185,67.4754,-0.020830
32.294,67.4972,-0.020830
32.403,67.5190,-0.026928
32.513,67.5409,-0.026928
32.622,67.5629,-0.033865
32.730,67.5842,-0.033865
32.839,67.6062,-0.041321
32.948,67.6280,-0.041321
33.058,67.6501,-0.041321
33.169,67.6720,-0.049229
33.277,67.6939,-0.049229
33.385,67.7154,-0.057589
33.494,67.7371,-0.057589
33.604,67.7591,-0.066590
33.714,67.7810,-0.066590
33.821,67.8027,-0.076676
33.929,67.8242,-0.076676
34.039,67.8463,-0.076676
34.149,67.8684,-0.088109
34.260,67.8902,-0.088109
34.369,67.9123,-0.101568
34.475,67.9333,-0.101568
34.584,67.9552,-0.117723
34.694,67.9772,-0.117723
34.804,67.9993,-0.117723
34.913,68.0209,-0.137215
35.021,68.0426,-0.137215
35.130,68.0644,-0.160505
35.240,68.0850,-0.160505
35.347,68.0977,-0.160505
35.456,68.1015,-0.187575
35.566,68.1015,-0.187575
35.676,68.1015,-0.206237
35.785,68.1015,-0.206237
35.894,68.1015,-0.205954
36.003,68.1015,-0.205954
36.113,68.1015,-0.198508
36.222,68.1015,-0.198508
36.331,68.1015,-0.193249
36.439,68.1015,-0.193249
36.547,68.1015,-0.193249
36.657,68.1015,-0.188998
36.767,68.1015,-0.188998
36.876,68.1015,-0.185520
36.985,68.1015,-0.185520
37.094,68.1015,-0.182523
37.202,68.1015,-0.182523
37.312,68.1015,-0.179893
37.421,68.1015,-0.179893
37.530,68.1015,-0.179893
37.639,68.1015,-0.177509
37.749,68.1015,-0.177509
37.859,68.1015,-0.175312
37.966,68.1015,-0.175312
38.076,68.1015,-0.173427
38.186,68.1015,-0.173427
38.294,68.1015,-0.173427
38.405,68.1015,-0.171684
38.514,68.1015,-0.171684
38.622,68.1015,-0.170119
38.731,68.1015,-0.170119
38.840,68.1015,-0.168696
38.950,68.1015,-0.168696
39.059,68.1015,-0.167339
39.169,68.1015,-0.167339
39.279,68.1015,-0.167339
39.388,68.1015,-0.165567
39.495,68.1015,-0.165567
39.604,68.1015,-0.161740
39.716,68.1015,-0.161740
39.822,68.1015,-0.157800
39.932,68.0980,-0.157800
40.041,68.0855,-0.157800
40.151,68.0649,-0.154341
40.261,68.0430,-0.154341
40.371,68.0209,-0.132342
40.479,67.9994,-0.132342
40.589,67.9772,-0.091097
40.697,67.9557,-0.091097
40.806,67.9338,-0.091097
40.914,67.9123,-0.049361
41.021,67.8909,-0.049361
41.132,67.8688,-0.007663
41.239,67.8473,-0.007663
41.347,67.8257,0.037221
41.456,67.8040,0.037221
41.565,67.7822,0.086827
41.676,67.7600,0.086827
41.783,67.7385,0.086827
41.891,67.7168,0.141833
42.001,67.6950,0.141833
42.110,67.6731,0.202722
42.218,67.6514,0.202722
42.327,67.6297,0.269774
42.437,67.6077,0.269774
42.547,67.5857,0.269774
42.657,67.5639,0.342877
42.765,67.5422,0.342877
42.875,67.5202,0.421966
42.985,67.4981,0.421966
43.094,67.4764,0.506757
43.202,67.4547,0.506757
43.309,67.4335,0.597627
43.417,67.4116,0.597627
43.527,67.3899,0.597627
43.636,67.3679,0.694671
43.744,67.3462,0.694671
43.853,67.3245,0.797643
43.963,67.3024,0.797643
44.073,67.2805,0.907120
44.183,67.2585,0.907120
44.293,67.2365,0.907120
44.402,67.2149,1.022392
44.509,67.1934,1.022392
44.619,67.1715,1.143207
44.731,67.1490,1.143207
44.840,67.1272,1.143207
44.949,67.1054,1.269498
45.058,67.0835,1.269498
45.169,67.0613,1.401105
45.277,67.0398,1.401105
45.387,67.0178,1.538254
45.499,66.9954,1.538254
45.608,66.9735,1.680898
45.716,66.9519,1.680898
45.824,66.9304,1.829913
45.932,66.9088,1.829913
46.042,66.8866,1.829913
46.152,66.8648,1.984895
46.261,66.8429,1.984895
46.368,66.8213,2.145834
46.476,66.7999,2.145834
46.585,66.7782,2.312579
46.695,66.7562,2.312579
46.804,66.7343,2.312579
46.914,66.7123,2.484800
47.021,66.6910,2.484800
47.131,66.6688,2.351025
47.239,66.6475,2.351025
47.349,66.6254,2.351025
47.458,66.6033,1.795822
47.569,66.5815,0.752684
47.679,66.5595,0.752684
47.786,66.5380,0.752684
47.895,66.5161,0.027296
48.006,66.4940,0.027296
48.113,66.4727,0.010660
48.224,66.4505,0.010660
48.335,66.4282,0.010660
48.443,66.4067,0.009878
48.552,66.3847,0.009878
48.661,66.3630,0.009520
48.769,66.3414,0.009520
48.877,66.3195,0.009218
48.985,66.2981,0.009218
49.093,66.2764,0.009086
49.204,66.2544,0.009086
49.313,66.2326,0.009086
49.422,66.2108,0.008888
49.533,66.1887,0.008888
49.641,66.1671,0.008784
49.748,66.1454,0.008784
49.859,66.1235,0.008681
49.967,66.1019,0.008681
50.075,66.0801,0.008539
50.184,66.0585,0.008539
50.292,66.0367,0.008539
50.401,66.0151,0.008521
50.510,65.9932,0.008521
50.620,65.9712,0.008426
50.730,65.9493,0.008426
50.841,65.9271,0.008360
50.949,65.9054,0.008360
51.058,65.8836,0.008360
51.167,65.8617,0.008417
51.276,65.8401,0.008417
51.384,65.8185,0.008351
51.495,65.7962,0.008351
51.606,65.7741,0.008351
51.714,65.7524,0.008370
51.823,65.7307,0.008445
51.933,65.7086,0.008445
52.043,65.6867,0.008445
52.150,65.6652,0.008398
52.259,65.6432,0.008398
52.367,65.6218,0.008483
52.477,65.5998,0.008483
52.587,65.5778,0.008483
52.694,65.5564,0.008407
52.804,65.5345,0.008407
52.913,65.5127,0.008426
53.021,65.4911,0.008426
53.130,65.4691,0.008502
53.237,65.4477,0.008502
53.346,65.4260,0.008502
53.456,65.4041,0.008502
53.565,65.3822,0.008473
53.676,65.3600,0.008473
53.786,65.3380,0.008473
53.895,65.3162,0.008445
54.004,65.2945,0.008445
54.113,65.2725,0.008483
54.222,65.2507,0.008483
54.331,65.2291,0.008492
54.438,65.2077,0.008492
54.547,65.1857,0.008492
54.656,65.1640,0.008492
54.766,65.1419,0.008492
54.875,65.1204,0.008502
54.984,65.0985,0.008502
55.093,65.0766,0.008539
55.201,65.0600,0.008539
55.311,65.0522,0.008539
55.421,65.0515,0.008407
55.531,65.0515,0.008407
55.640,65.0515,0.008266
55.751,65.0515,0.008266
55.859,65.0515,0.008181
55.970,65.0557,0.008181
56.080,65.0693,0.008040
56.190,65.0902,0.008040
56.301,65.1123,0.008040
56.411,65.1344,0.007785
56.522,65.1567,0.007785
56.631,65.1784,0.007597
56.740,65.2001,0.007597
56.849,65.2221,0.007597
56.958,65.2440,0.007484
57.067,65.2656,0.007371
57.177,65.2877,0.007371
57.287,65.3096,0.007371
57.397,65.3316,0.007286
57.507,65.3537,0.007286
57.616,65.3754,0.007210
57.723,65.3969,0.007210
57.832,65.4186,0.007154
57.940,65.4403,0.007154
58.049,65.4621,0.007154
58.159,65.4840,0.007050
58.267,65.5056,0.007050
58.377,65.5277,0.006965
58.488,65.5499,0.006965
58.597,65.5716,0.006852
58.706,65.5934,0.006852
58.816,65.6153,0.006701
58.924,65.6370,0.006701
59.033,65.6588,0.006701
59.142,65.6805,0.006654
59.249,65.7022,0.006654
59.358,65.7239,0.006588
59.467,65.7456,0.006588
59.577,65.7678,0.006466
59.687,65.7896,0.006466
59.798,65.8117,0.006466
59.906,65.8334,0.006362
60.015,65.8555,0.006362
60.124,65.8769,0.006287
60.232,65.8986,0.006287
60.340,65.9201,0.006211
60.449,65.9420,0.006211
60.559,65.9641,0.006136
60.669,65.9862,0.006136
60.779,66.0079,0.006136
60.886,66.0293,0.006023
60.994,66.0510,0.006023
61.105,66.0731,0.006023
61.214,66.0948,0.005910
61.323,66.1166,0.005844
61.431,66.1384,0.005844
61.539,66.1601,0.005844
61.649,66.1820,0.005740
61.760,66.2041,0.005740
61.870,66.2260,0.005618
61.977,66.2476,0.005618
62.085,66.2692,0.005495
62.194,66.2910,0.005495
62.303,66.3127,0.005495
62.413,66.3347,0.005363
62.522,66.3565,0.005363
62.631,66.3783,0.005231
62.741,66.4005,0.005231
62.851,66.4222,0.005080
62.959,66.4441,0.005080
63.068,66.4659,0.004845
63.179,66.4878,0.004845
63.288,66.5097,0.004845
63.397,66.5316,0.004647
63.506,66.5535,0.004647
63.614,66.5749,0.004486
63.722,66.5966,0.004486
63.832,66.6186,0.004260
63.941,66.6404,0.004260
64.052,66.6626,0.004260
64.161,66.6843,0.004025
64.269,66.7061,0.004025
64.379,66.7278,0.003732
64.486,66.7494,0.003732
64.598,66.7719,0.003440
64.707,66.7937,0.003440
64.816,66.8154,0.003440
64.924,66.8370,0.003016
65.033,66.8586,0.003016
65.142,66.8806,0.002507
65.252,66.9026,0.002507
65.361,66.9243,0.002507
65.469,66.9459,0.001970
65.579,66.9681,0.001272
65.688,66.9898,0.001272
65.799,67.0120,0.001272
65.907,67.0336,0.000386
66.020,67.0561,0.000386
66.125,67.0770,-0.000707
66.234,67.0989,-0.000707
66.344,67.1209,-0.001989
66.452,67.1426,-0.001989
66.560,67.1643,-0.003629
66.669,67.1859,-0.003629
66.779,67.2079,-0.003629
66.888,67.2296,-0.006004
66.996,67.2515,-0.006004
67.105,67.2730,-0.008982
67.215,67.2950,-0.008982
67.325,67.3172,-0.012677
67.434,67.3388,-0.012677
67.543,67.3608,-0.012677
67.652,67.3826,-0.017371
67.761,67.4043,-0.017371
67.870,67.4261,-0.022951
67.979,67.4478,-0.022951
68.088,67.4700,-0.029502
68.196,67.4914,-0.029502
68.307,67.5135,-0.029502
68.415,67.5352,-0.036637
68.525,67.5573,-0.036637
68.632,67.5785,-0.044167
68.743,67.6007,-0.044167
68.854,67.6228,-0.052132
68.962,67.6444,-0.052132
69.071,67.6664,-0.060615
69.177,67.6875,-0.060615
69.288,67.7097,-0.060615
69.396,67.7314,-0.069908
69.506,67.7533,-0.069908
69.615,67.7752,-0.080333
69.726,67.7973,-0.080333
69.836,67.8194,-0.092482
69.945,67.8411,-0.092482
70.053,67.8626,-0.092482
70.162,67.8845,-0.106931
70.270,67.9059,-0.106931
70.380,67.9280,-0.124340
70.488,67.9497,-0.124340
70.598,67.9718,-0.145208
70.707,67.9934,-0.145208
70.814,68.0149,-0.170006
70.924,68.0357,-0.170006
71.034,68.0481,-0.170006
71.144,68.0515,-0.197585
71.252,68.0515,-0.197585
71.362,68.0515,-0.211383
71.472,68.0515,-0.211383
71.580,68.0515,-0.207048
71.691,68.0515,-0.207048
71.801,68.0515,-0.207048
71.911,68.0515,-0.200299
72.019,68.0515,-0.200299
72.128,68.0515,-0.195285
72.237,68.0515,-0.195285
72.345,68.0515,-0.191194
72.454,68.0515,-0.191194
72.562,68.0515,-0.187773
72.672,68.0515,-0.187773
72.781,68.0515,-0.187773
72.889,68.0515,-0.184851
73.000,68.0515,-0.184851
73.109,68.0515,-0.182287
73.216,68.0515,-0.182287
73.326,68.0515,-0.179950
73.436,68.0515,-0.179950
73.544,68.0515,-0.179950
73.654,68.0515,-0.177848
73.764,68.0515,-0.177848
73.871,68.0515,-0.175944
73.981,68.0515,-0.175944
74.090,68.0515,-0.174238
74.200,68.0515,-0.174238
74.309,68.0515,-0.174238
74.418,68.0515,-0.172645
74.529,68.0515,-0.172645
74.639,68.0515,-0.171137
74.749,68.0515,-0.171137
74.859,68.0515,-0.169686
74.969,68.0515,-0.169686
75.076,68.0515,-0.167546
75.187,68.0515,-0.167546
75.298,68.0515,-0.167546
75.407,68.0515,-0.163502
75.515,68.0515,-0.163502
75.622,68.0510,-0.159940
75.731,68.0436,-0.159940
75.840,68.0274,-0.157074
75.951,68.0054,-0.157074
76.060,67.9834,-0.135000
76.169,67.9617,-0.135000
76.277,67.9402,-0.135000
76.385,67.9185,-0.093142
76.496,67.8964,-0.093142
76.604,67.8747,-0.050907
76.714,67.8527,-0.050907
76.825,67.8305,-0.009105
76.933,67.8087,-0.009105
77.043,67.7869,-0.009105
77.153,67.7649,0.035722
77.261,67.7432,0.035722
77.368,67.7218,0.085290
77.478,67.6997,0.085290
77.587,67.6781,0.140448
77.696,67.6563,0.140448
77.806,67.6342,0.140448
77.915,67.6125,0.201515
78.024,67.5907,0.201515
78.134,67.5686,0.268134
78.243,67.5468,0.268134
78.352,67.5251,0.340860
78.460,67.5035,0.340860
78.569,67.4815,0.419525
78.680,67.4596,0.419525
78.790,67.4375,0.419525
78.899,67.4158,0.504174
79.006,67.3942,0.504174
79.117,67.3720,0.595148
79.224,67.3507,0.595148
79.335,67.3285,0.692202
79.446,67.3063,0.692202
79.555,67.2846,0.692202
79.667,67.2623,0.795843
79.777,67.2402,0.795843
79.885,67.2183,0.905366
79.993,67.1969,0.905366
80.103,67.1748,1.020535
80.209,67.1536,1.020535
80.320,67.1314,1.141115
80.430,67.1095,1.141115
80.541,67.0874,1.141115
80.650,67.0657,1.267113
80.757,67.0440,1.267113
80.867,67.0221,1.398928
80.976,67.0002,1.398928
81.084,66.9785,1.536171
81.193,66.9568,1.536171
81.304,66.9348,1.536171
81.412,66.9131,1.679597
81.524,66.8908,1.679597
81.635,66.8685,1.829037
81.746,66.8464,1.829037
81.855,66.8243,1.984509
81.964,66.8027,1.984509
82.072,66.7812,2.145938
82.181,66.7595,2.145938
82.289,66.7376,2.145938
82.399,66.7158,2.313257
82.509,66.6937,2.313257
82.616,66.6724,2.487118
82.725,66.6503,2.487118
82.834,66.6289,2.666833
82.944,66.6067,2.666833
83.054,66.5847,2.666833
83.162,66.5630,2.384834
83.272,66.5411,2.384834
83.383,66.5191,1.671341
83.490,66.4975,1.671341
83.600,66.4753,0.675415
83.710,66.4535,0.675415
83.819,66.4317,0.015307
83.929,66.4097,0.015307
84.038,66.3878,0.015307
84.149,66.3658,0.010349
84.257,66.3442,0.010349
84.364,66.3226,0.009680
84.472,66.3012,0.009680
84.582,66.2790,0.009341
84.690,66.2574,0.009341
84.798,66.2360,0.009341
84.907,66.2140,0.009124
85.017,66.1923,0.009124
85.127,66.1702,0.009030
85.237,66.1480,0.009030
85.347,66.1261,0.009030
85.455,66.1044,0.008907
85.566,66.0824,0.008756
85.675,66.0605,0.008756
85.786,66.0384,0.008756
85.895,66.0167,0.008634
86.005,65.9946,0.008634
86.113,65.9730,0.008549
86.219,65.9517,0.008549
86.328,65.9299,0.008473
86.438,65.9078,0.008473
86.547,65.8862,0.008473
86.656,65.8644,0.008417
86.765,65.8426,0.008417
86.873,65.8211,0.008389
86.983,65.7989,0.008389
87.092,65.7772,0.008304
87.200,65.7555,0.008304
87.310,65.7335,0.008304
87.419,65.7118,0.008304
87.528,65.6898,0.008304
87.637,65.6682,0.008304
87.745,65.6466,0.008304
87.854,65.6245,0.008351
87.964,65.6028,0.008351
88.073,65.5809,0.008351
88.181,65.5594,0.008351
88.292,65.5371,0.008351
88.402,65.5151,0.008285
88.512,65.4931,0.008285
88.621,65.4714,0.008332
88.729,65.4499,0.008332
88.840,65.4277,0.008351
88.949,65.4056,0.008351
89.057,65.3842,0.008351
89.167,65.3622,0.008304
89.277,65.3400,0.008304
89.387,65.3183,0.008360
89.496,65.2962,0.008360
89.604,65.2748,0.008426
89.715,65.2525,0.008426
89.824,65.2309,0.008407
89.931,65.2094,0.008407
90.039,65.1876,0.008407
90.150,65.1656,0.008445
90.259,65.1437,0.008445
90.369,65.1219,0.008530
90.475,65.1006,0.008530
90.583,65.0791,0.008521
90.692,65.0571,0.008521
90.802,65.0352,0.008521
90.912,65.0153,0.008521
91.021,65.0040,0.008521
91.129,65.0016,0.008436
91.239,65.0017,0.008436
91.347,65.0078,0.008210
91.455,65.0228,0.008210
91.566,65.0445,0.007880
91.675,65.0664,0.007880
91.784,65.0881,0.007880
91.893,65.1099,0.007653
92.002,65.1318,0.007653
92.112,65.1537,0.007587
92.223,65.1759,0.007587
92.333,65.1979,0.007399
92.444,65.2201,0.007399
92.554,65.2423,0.007399
92.662,65.2637,0.007314
92.771,65.2856,0.007314
92.879,65.3073,0.007305
92.987,65.3287,0.007305
93.097,65.3509,0.007192
93.207,65.3728,0.007192
93.316,65.3946,0.007192
93.426,65.4167,0.007088
93.534,65.4382,0.007088
93.645,65.4602,0.006937
93.754,65.4823,0.006937
93.863,65.5040,0.006937
93.972,65.5257,0.006852
94.081,65.5475,0.006843
94.190,65.5693,0.006843
94.299,65.5912,0.006843
94.409,65.6132,0.006767
94.519,65.6351,0.006767
94.628,65.6570,0.006645
94.738,65.6790,0.006645
94.846,65.7005,0.006532
94.956,65.7226,0.006532
95.063,65.7441,0.006532
95.169,65.7652,0.006522
95.277,65.7867,0.006522
95.386,65.8086,0.006438
95.494,65.8300,0.006438
95.603,65.8521,0.006324
95.713,65.8739,0.006324
95.824,65.8960,0.006192
95.934,65.9180,0.006192
96.044,65.9402,0.006192
96.153,65.9619,0.006117
96.263,65.9839,0.006117
96.371,66.0055,0.006098
96.482,66.0280,0.006098
96.592,66.0495,0.005966
96.702,66.0717,0.005966
96.812,66.0937,0.005815
96.922,66.1158,0.005815
97.031,66.1375,0.005815
97.138,66.1589,0.005684
97.247,66.1809,0.005684
97.356,66.2023,0.005495
97.463,66.2241,0.005495
97.572,66.2458,0.005495
97.682,66.2676,0.005401
97.790,66.2894,0.005401
97.899,66.3112,0.005335
98.008,66.3329,0.005335
98.116,66.3544,0.005175
98.222,66.3759,0.005175
98.332,66.3977,0.005175
98.440,66.4194,0.004977
98.551,66.4415,0.004977
98.661,66.4635,0.004798
98.770,66.4851,0.004798
98.880,66.5073,0.004628
98.987,66.5287,0.004628
99.097,66.5506,0.004430
99.205,66.5722,0.004430
99.313,66.5940,0.004430
99.422,66.6156,0.004157
99.529,66.6372,0.004157
99.638,66.6589,0.003808
99.747,66.6807,0.003808
99.856,66.7025,0.003469
99.966,66.7245,0.003469
100.075,66.7463,0.003101
100.184,66.7680,0.003101
100.291,66.7895,0.003101
100.401,66.8115,0.002667
100.509,66.8331,0.002667
100.618,66.8550,0.002111
100.728,66.8769,0.002111
100.837,66.8987,0.001423
100.947,66.9207,0.001423
101.057,66.9426,0.001423
101.165,66.9643,0.000566
101.275,66.9862,0.000566
101.383,67.0079,-0.000377
101.492,67.0297,-0.000377
101.602,67.0515,-0.001593
101.711,67.0735,-0.001593
101.822,67.0957,-0.001593
101.932,67.1176,-0.003299
102.040,67.1392,-0.003299
102.148,67.1609,-0.005420
102.257,67.1829,-0.005420
102.367,67.2046,-0.008134
102.475,67.2263,-0.008134
102.585,67.2484,-0.011574
102.694,67.2699,-0.011574
102.801,67.2916,-0.011574
102.912,67.3137,-0.015920
103.022,67.3357,-0.015920
103.133,67.3579,-0.021217
103.238,67.3788,-0.021217
103.347,67.4007,-0.027362
103.456,67.4225,-0.027362
103.566,67.4446,-0.027362
103.675,67.4661,-0.034271
103.783,67.4878,-0.034271
103.892,67.5098,-0.041726
104.002,67.5315,-0.041726
104.112,67.5536,-0.049530
104.223,67.5760,-0.049530
104.330,67.5974,-0.057731
104.439,67.6191,-0.057731
104.548,67.6409,-0.057731
104.657,67.6626,-0.066487
104.767,67.6847,-0.066487
104.876,67.7064,-0.076317
104.984,67.7280,-0.076317
105.094,67.7500,-0.087977
105.202,67.7717,-0.087977
105.312,67.7936,-0.101738
105.422,67.8156,-0.101738
105.531,67.8373,-0.101738
105.640,67.8593,-0.118081
105.749,67.8811,-0.118081
105.859,67.9030,-0.137771
105.968,67.9249,-0.137771
106.077,67.9466,-0.161287
106.187,67.9686,-0.161287
106.295,67.9882,-0.161287
106.404,67.9992,-0.189111
106.513,68.0016,-0.189111
106.621,68.0016,-0.211176
106.731,68.0016,-0.211176
106.838,68.0016,-0.213702
106.948,68.0016,-0.213702
107.059,68.0016,-0.213702
107.169,68.0016,-0.206068
107.280,68.0016,-0.206068
107.387,68.0016,-0.200450
107.497,68.0016,-0.200450
107.607,68.0016,-0.195982
107.717,68.0016,-0.195982
107.829,68.0016,-0.195982
107.936,68.0016,-0.192259
108.047,68.0016,-0.192259
108.156,68.0016,-0.189045
108.266,68.0016,-0.189045
108.376,68.0016,-0.186265
108.486,68.0016,-0.186265
108.596,68.0016,-0.183861
108.706,68.0016,-0.183861
108.815,68.0016,-0.181599
108.924,68.0016,-0.181599
109.033,68.0016,-0.181599
109.143,68.0016,-0.179629
109.250,68.0016,-0.179629
109.362,68.0016,-0.177848
109.473,68.0016,-0.177848
109.582,68.0016,-0.176067
109.692,68.0016,-0.176067
109.803,68.0016,-0.176067
109.912,68.0016,-0.174464
110.020,68.0016,-0.174464
110.129,68.0016,-0.172994
110.239,68.0016,-0.172994
110.347,68.0016,-0.171373
110.457,68.0016,-0.171373
110.568,68.0016,-0.167697
110.679,68.0016,-0.167697
110.787,68.0016,-0.167697
110.897,68.0014,-0.163276
111.007,67.9955,-0.163276
111.113,67.9811,-0.160609
111.223,67.9596,-0.160609
111.332,67.9377,-0.160609
111.441,67.9160,-0.142060
111.549,67.8943,-0.142060
111.657,67.8726,-0.102218
111.765,67.8510,-0.102218
111.874,67.8292,-0.059342
111.984,67.8073,-0.059342
112.091,67.7860,-0.059342
112.201,67.7638,-0.017955
112.311,67.7420,0.025618
112.420,67.7201,0.025618
112.530,67.6982,0.025618
112.640,67.6762,0.073782
112.748,67.6543,0.073782
112.856,67.6330,0.127186
112.965,67.6110,0.127186
113.075,67.5892,0.186302
113.187,67.5667,0.186302
113.298,67.5445,0.186302
113.407,67.5227,0.251074
113.517,67.5009,0.251074
113.626,67.4789,0.321821
113.734,67.4575,0.321821
113.844,67.4354,0.321821
113.952,67.4137,0.398808
114.061,67.3920,0.398808
114.169,67.3702,0.481789
114.278,67.3486,0.481789
114.387,67.3266,0.569520
114.496,67.3050,0.569520
114.604,67.2833,0.652389
114.714,67.2611,0.652389
114.823,67.2393,0.718187
114.933,67.2176,0.718187
115.043,67.1957,0.718187
115.152,67.1736,0.759584
115.261,67.1519,0.759584
115.369,67.1303,0.790442
115.478,67.1083,0.790442
115.587,67.0868,0.822310
115.696,67.0648,0.822310
115.807,67.0427,0.822310
115.917,67.0207,0.853527
116.026,66.9989,0.853527
116.133,66.9776,0.754494
116.243,66.9555,0.754494
116.352,66.9337,0.503364
116.462,66.9118,0.503364
116.571,66.8899,0.503364
116.680,66.8681,0.227840
116.788,66.8465,0.227840
116.897,66.8246,0.053640
117.008,66.8025,0.053640
117.117,66.7808,0.016438
117.225,66.7591,0.016438
117.333,66.7376,0.012790
117.442,66.7158,0.012790
117.552,66.6936,0.012790
117.662,66.6718,0.011499
117.769,66.6502,0.011499
117.878,66.6285,0.010764
117.987,66.6068,0.010764
118.095,66.5852,0.010217
118.204,66.5633,0.010217
118.314,66.5414,0.010217
118.421,66.5198,0.009812
118.530,66.4981,0.009812
118.638,66.4766,0.009444
118.748,66.4545,0.009444
118.857,66.4328,0.009199
118.968,66.4107,0.009199
119.079,66.3883,0.009011
119.188,66.3666,0.009011
119.297,66.3446,0.009011
119.406,66.3230,0.008832
119.513,66.3014,0.008832
119.621,66.2801,0.008709
119.731,66.2579,0.008709
119.841,66.2361,0.008605
119.950,66.2140,0.008605
120.060,66.1922,0.008605
120.169,66.1703,0.008530
120.278,66.1486,0.008530
120.386,66.1269,0.008464
120.496,66.1051,0.008464
120.604,66.0833,0.008436
120.713,66.0615,0.008436
120.822,66.0396,0.008436
120.933,66.0177,0.008417
121.043,65.9957,0.008417
121.151,65.9741,0.008332
121.262,65.9519,0.008332
121.370,65.9300,0.008210
121.478,65.9085,0.008210
121.587,65.8868,0.008181
121.697,65.8648,0.008181
121.807,65.8428,0.008181
121.916,65.8209,0.008247
122.026,65.7990,0.008247
122.135,65.7771,0.008228
122.242,65.7559,0.008228
122.352,65.7337,0.008200
122.460,65.7122,0.008200
122.570,65.6901,0.008219
122.679,65.6683,0.008219
122.788,65.6466,0.008219
122.898,65.6245,0.008276
123.006,65.6029,0.008276
123.115,65.5810,0.008247
123.224,65.5592,0.008247
123.334,65.5373,0.008200
123.444,65.5155,0.008200
123.553,65.4937,0.008200
123.662,65.4717,0.008228
123.770,65.4503,0.008228
123.879,65.4286,0.008219
123.987,65.4066,0.008219
124.097,65.3848,0.008276
124.205,65.3631,0.008276
124.315,65.3413,0.008341
124.425,65.3191,0.008341
124.532,65.2978,0.008341
124.642,65.2758,0.008398
124.752,65.2539,0.008398
124.860,65.2322,0.008417
124.967,65.2108,0.008417
125.075,65.1891,0.008417
125.183,65.1676,0.008417
125.291,65.1459,0.008417
125.401,65.1240,0.008436
125.512,65.1018,0.008436
125.620,65.0803,0.008426
125.727,65.0590,0.008426
125.835,65.0371,0.008445
125.946,65.0148,0.008445
126.054,64.9934,0.008445
126.164,64.9718,0.008502
126.272,64.9573,0.008502
126.381,64.9516,0.008436
126.492,64.9514,0.008436
126.602,64.9514,0.008276
126.711,64.9514,0.008276
126.819,64.9514,0.008228
126.926,64.9514,0.008228
127.036,64.9565,0.008228
127.145,64.9704,0.008096
127.254,64.9916,0.008096
127.364,65.0137,0.007851
127.472,65.0355,0.007851
127.580,65.0570,0.007701
127.690,65.0788,0.007701
127.801,65.1010,0.007701
127.910,65.1228,0.007550
128.018,65.1447,0.007550
128.126,65.1661,0.007408
128.234,65.1878,0.007408
128.344,65.2098,0.007342
128.454,65.2317,0.007342
128.564,65.2539,0.007342
128.674,65.2756,0.007276
128.782,65.2972,0.007276
128.892,65.3194,0.007210
129.002,65.3411,0.007210
129.112,65.3632,0.007135
129.221,65.3850,0.007135
129.330,65.4069,0.007041
129.439,65.4289,0.007041
129.548,65.4505,0.007041
129.657,65.4722,0.006937
129.765,65.4939,0.006937
129.875,65.5158,0.006815
129.984,65.5378,0.006815
130.094,65.5595,0.006739
130.204,65.5817,0.006739
130.314,65.6038,0.006654
130.423,65.6255,0.006654
130.531,65.6471,0.006654
130.640,65.6688,0.006541
130.748,65.6906,0.006541
130.857,65.7123,0.006456
130.967,65.7344,0.006456
131.075,65.7560,0.006390
131.184,65.7778,0.006390
131.293,65.7995,0.006390
131.403,65.8215,0.006277
131.512,65.8433,0.006277
131.622,65.8651,0.006192
131.731,65.8873,0.006192
131.842,65.9092,0.006192
131.951,65.9311,0.006117
132.059,65.9527,0.005995
132.167,65.9743,0.005995
132.277,65.9963,0.005995
132.387,66.0183,0.005900
132.495,66.0400,0.005900
132.603,66.0617,0.005740
132.712,66.0832,0.005740
132.821,66.1052,0.005627
132.930,66.1269,0.005627
133.039,66.1486,0.005627
133.147,66.1703,0.005561
133.257,66.1922,0.005561
133.366,66.2143,0.005372
133.476,66.2362,0.005372
133.585,66.2578,0.005212
133.692,66.2794,0.005212
133.803,66.3014,0.005212
133.912,66.3234,0.005109
134.021,66.3451,0.005109
134.130,66.3669,0.004958
134.239,66.3889,0.004958
134.349,66.4107,0.004769
134.460,66.4328,0.004769
134.570,66.4549,0.004769
134.680,66.4768,0.004581
134.788,66.4984,0.004581
134.896,66.5200,0.004392
135.005,66.5420,0.004392
135.114,66.5636,0.004392
135.223,66.5853,0.004147
135.332,66.6073,0.003817
135.442,66.6295,0.003817
135.552,66.6513,0.003817
135.660,66.6728,0.003487
135.769,66.6946,0.003487
135.877,66.7163,0.003158
135.987,66.7385,0.003158
136.096,66.7601,0.002696
136.204,66.7818,0.002696
136.314,66.8037,0.002130
136.423,66.8254,0.002130
136.531,66.8471,0.002130
136.638,66.8685,0.001423
136.747,66.8904,0.001423
136.858,66.9125,0.000650
136.968,66.9345,0.000650
137.078,66.9565,-0.000396
137.186,66.9781,-0.000396
137.294,66.9997,-0.000396
137.402,67.0213,-0.001763
137.513,67.0436,-0.001763
137.623,67.0653,-0.003374
137.733,67.0874,-0.003374
137.842,67.1092,-0.005523
137.950,67.1307,-0.005523
138.060,67.1527,-0.008181
138.167,67.1743,-0.008181
138.277,67.1961,-0.008181
138.385,67.2179,-0.011640
138.494,67.2397,-0.011640
138.605,67.2618,-0.016070
138.714,67.2836,-0.016070
138.824,67.3058,-0.016070
138.933,67.3274,-0.021405
139.042,67.3494,-0.021405
139.152,67.3711,-0.027645
139.261,67.3931,-0.027645
139.370,67.4148,-0.034572
139.480,67.4369,-0.034572
139.589,67.4587,-0.042056
139.700,67.4810,-0.042056
139.810,67.5027,-0.042056
139.919,67.5246,-0.049879
140.027,67.5463,-0.049879
140.136,67.5681,-0.057994
140.247,67.5904,-0.057994
140.357,67.6122,-0.066553
140.467,67.6344,-0.066553
140.575,67.6558,-0.075931
140.686,67.6780,-0.075931
140.794,67.6997,-0.075931
140.902,67.7211,-0.087289
141.010,67.7430,-0.087289
141.120,67.7650,-0.101191
141.230,67.7867,-0.101191
141.340,67.8088,-0.117723
141.448,67.8307,-0.117723
141.557,67.8522,-0.117723
141.666,67.8741,-0.137394
141.774,67.8956,-0.137394
141.885,67.9180,-0.160863
141.995,67.9377,-0.160863
142.105,67.9490,-0.188254
142.212,67.9514,-0.188254
142.322,67.9514,-0.206209
142.431,67.9514,-0.206209
142.541,67.9514,-0.206209
142.650,67.9514,-0.205210
142.759,67.9514,-0.205210
142.867,67.9514,-0.197981
142.976,67.9514,-0.197981
143.084,67.9514,-0.192778
143.193,67.9514,-0.192778
143.301,67.9514,-0.192778
143.411,67.9514,-0.188583
143.519,67.9514,-0.188583
143.629,67.9514,-0.185171
143.739,67.9514,-0.185171
143.848,67.9514,-0.185171
143.957,67.9514,-0.182259
144.067,67.9514,-0.179705
144.175,67.9514,-0.179705
144.285,67.9514,-0.179705
144.394,67.9514,-0.177377
144.503,67.9514,-0.177377
144.613,67.9514,-0.175284
144.720,67.9514,-0.175284
144.829,67.9514,-0.173437
144.939,67.9514,-0.173437
145.050,67.9514,-0.173437
145.160,67.9514,-0.171627
145.270,67.9514,-0.171627
145.379,67.9514,-0.170053
145.487,67.9514,-0.170053
145.596,67.9514,-0.168602
145.706,67.9514,-0.168602
145.813,67.9514,-0.168602
145.923,67.9514,-0.167207
146.032,67.9514,-0.167207
146.140,67.9514,-0.165699
146.251,67.9514,-0.165699
146.359,67.9514,-0.162202
146.469,67.9514,-0.162202
146.579,67.9514,-0.158111
146.688,67.9507,-0.158111
146.796,67.9428,-0.158111
146.905,67.9258,-0.155962
147.015,67.9037,-0.155962
147.123,67.8821,-0.139081
147.232,67.8602,-0.139081
147.343,67.8383,-0.100522
147.453,67.8163,-0.100522
147.562,67.7944,-0.100522
147.670,67.7727,-0.057561
147.778,67.7512,-0.057561
147.887,67.7294,-0.015854
147.995,67.7079,-0.015854
148.104,67.6859,0.028531
148.213,67.6642,0.028531
148.323,67.6423,0.077486
148.432,67.6204,0.077486
148.540,67.5990,0.077486
148.650,67.5769,0.131635
148.758,67.5552,0.131635
148.866,67.5336,0.190949
148.974,67.5120,0.190949
149.084,67.4901,0.255570
149.193,67.4681,0.255570
149.302,67.4465,0.255570
149.414,67.4241,0.326458
149.520,67.4028,0.326458
149.629,67.3809,0.403605
149.738,67.3591,0.403605
149.849,67.3372,0.478810
149.958,67.3151,0.478810
150.067,67.2934,0.540151
150.175,67.2717,0.540151
150.283,67.2502,0.540151
150.393,67.2283,0.562960
150.501,67.2067,0.562960
150.610,67.1849,0.540688
150.719,67.1630,0.540688
150.828,67.1412,0.497916
150.937,67.1193,0.497916
151.046,67.0977,0.497916
151.156,67.0756,0.472279
151.265,67.0538,0.472279
151.375,67.0317,0.476303
151.483,67.0104,0.476303
151.592,66.9884,0.483014
151.703,66.9663,0.483014
151.812,66.9443,0.483014
151.922,66.9226,0.468245
152.033,66.9002,0.468245
152.141,66.8786,0.436754
152.251,66.8567,0.436754
152.360,66.8347,0.368609
152.469,66.8132,0.368609
152.576,66.7916,0.180468
152.685,66.7698,0.180468
152.796,66.7477,0.180468
152.905,66.7260,0.031038
153.013,66.7044,0.031038
153.122,66.6823,0.031038
153.229,66.6610,0.015552
153.338,66.6393,0.012903
153.447,66.6175,0.012903
153.555,66.5959,0.012903
153.665,66.5738,0.011669
153.774,66.5522,0.011669
153.884,66.5300,0.010877
153.993,66.5083,0.010877
154.102,66.4862,0.010283
154.214,66.4642,0.010283
154.323,66.4423,0.009802
154.434,66.4201,0.009802
154.542,66.3984,0.009802
154.653,66.3764,0.009425
154.765,66.3539,0.009425
154.873,66.3322,0.009199
154.983,66.3104,0.009199
155.092,66.2884,0.008935
155.202,66.2665,0.008935
155.312,66.2444,0.008935
155.422,66.2224,0.008784
155.531,66.2005,0.008784
155.641,66.1787,0.008709
155.751,66.1566,0.008709
155.860,66.1349,0.008596
155.969,66.1132,0.008596
156.076,66.0916,0.008502
156.185,66.0698,0.008502
156.294,66.0478,0.008502
156.405,66.0259,0.008407
156.515,66.0040,0.008407
156.624,65.9821,0.008351
156.733,65.9601,0.008351
156.844,65.9381,0.008294
156.953,65.9163,0.008294
157.064,65.8941,0.008266
157.173,65.8722,0.008266
157.283,65.8502,0.008266
157.394,65.8280,0.008276
157.504,65.8061,0.008276
157.612,65.7844,0.008276
157.721,65.7627,0.008276
157.831,65.7406,0.008276
157.939,65.7192,0.008276
158.047,65.6973,0.008276
158.156,65.6757,0.008266
158.264,65.6542,0.008266
158.375,65.6320,0.008257
158.484,65.6101,0.008257
158.591,65.5887,0.008200
158.703,65.5664,0.008200
158.813,65.5443,0.008200
158.923,65.5221,0.008210
159.029,65.5011,0.008210
159.138,65.4792,0.008247
159.247,65.4575,0.008247
159.356,65.4358,0.008257
159.465,65.4139,0.008257
159.574,65.3922,0.008313
159.684,65.3701,0.008313
159.791,65.3487,0.008313
159.899,65.3270,0.008323
160.008,65.3053,0.008323
160.118,65.2832,0.008313
160.229,65.2613,0.008313
160.338,65.2392,0.008360
160.447,65.2174,0.008360
160.556,65.1958,0.008360
160.664,65.1741,0.008417
160.773,65.1522,0.008417
160.883,65.1303,0.008455
160.992,65.1085,0.008455
161.100,65.0869,0.008464
161.210,65.0648,0.008464
161.320,65.0430,0.008445
161.428,65.0211,0.008445
161.537,64.9994,0.008445
161.649,64.9771,0.008426
161.756,64.9557,0.008426
161.865,64.9338,0.008483
161.975,64.9144,0.008483
162.082,64.9037,0.008445
162.191,64.9015,0.008445
162.300,64.9015,0.008445
162.409,64.9015,0.008200
162.520,64.9015,0.008200
162.630,64.9015,0.008115
162.740,64.9015,0.008115
162.847,64.9043,0.008172
162.956,64.9157,0.008172
163.066,64.9359,0.007880
163.173,64.9573,0.007880
163.283,64.9792,0.007880
163.390,65.0007,0.007587
163.500,65.0226,0.007587
163.609,65.0445,0.007503
163.718,65.0663,0.007503
163.827,65.0880,0.007408
163.937,65.1099,0.007408
164.045,65.1318,0.007408
164.156,65.1539,0.007352
164.266,65.1758,0.007352
164.376,65.1979,0.007305
164.486,65.2198,0.007305
164.597,65.2419,0.007239
164.705,65.2637,0.007239
164.814,65.2854,0.007078
164.923,65.3071,0.007078
165.033,65.3292,0.007078
165.145,65.3517,0.006994
165.253,65.3734,0.006994
165.363,65.3951,0.006937
165.471,65.4169,0.006937
165.583,65.4392,0.006824
165.693,65.4612,0.006824
165.803,65.4831,0.006824
165.912,65.5051,0.006758
166.020,65.5265,0.006758
166.129,65.5485,0.006683
166.238,65.5702,0.006683
166.348,65.5922,0.006626
166.457,65.6140,0.006626
166.566,65.6357,0.006522
166.675,65.6578,0.006522
166.784,65.6795,0.006522
166.892,65.7010,0.006372
167.001,65.7229,0.006372
167.109,65.7443,0.006324
167.219,65.7663,0.006324
167.328,65.7882,0.006324
167.437,65.8099,0.006287
167.547,65.8321,0.006287
167.657,65.8541,0.006127
167.767,65.8760,0.006127
167.877,65.8980,0.006004
167.987,65.9201,0.006004
168.097,65.9420,0.005881
168.207,65.9640,0.005881
168.316,65.9857,0.005749
168.423,66.0071,0.005749
168.533,66.0293,0.005749
168.643,66.0510,0.005674
168.754,66.0734,0.005674
168.865,66.0956,0.005608
168.975,66.1176,0.005608
169.084,66.1395,0.005486
169.195,66.1617,0.005486
169.303,66.1832,0.005486
169.412,66.2050,0.005363
169.521,66.2267,0.005363
169.631,66.2489,0.005165
169.739,66.2704,0.005165
169.848,66.2923,0.004967
169.957,66.3141,0.004967
170.067,66.3360,0.004788
170.178,66.3581,0.004788
170.285,66.3796,0.004788
170.394,66.4014,0.004628
170.504,66.4234,0.004628
170.613,66.4452,0.004430
170.722,66.4670,0.004430
170.832,66.4888,0.004175
170.942,66.5110,0.004175
171.051,66.5327,0.004175
171.162,66.5548,0.003921
171.271,66.5769,0.003921
171.381,66.5987,0.003535
171.491,66.6208,0.003535
171.599,66.6424,0.003158
171.707,66.6641,0.003158
171.817,66.6860,0.003158
171.926,66.7077,0.002771
172.037,66.7299,0.002771
172.143,66.7513,0.002243
172.252,66.7730,0.002243
172.361,66.7949,0.001640
172.471,66.8168,0.001640
172.582,66.8390,0.000924
172.691,66.8608,0.000924
172.798,66.8821,0.000924
172.906,66.9038,-0.000047
173.015,66.9255,-0.000047
173.126,66.9477,-0.001225
173.233,66.9692,-0.001225
173.342,66.9909,-0.002677
173.451,67.0128,-0.002677
173.560,67.0344,-0.002677
173.667,67.0559,-0.004628
173.778,67.0781,-0.004628
173.887,67.0999,-0.007022
173.997,67.1221,-0.007022
174.107,67.1439,-0.010123
174.218,67.1661,-0.010123
174.325,67.1875,-0.014082
174.433,67.2092,-0.014082
174.544,67.2312,-0.014082
174.654,67.2533,-0.018945
174.764,67.2753,-0.018945
174.873,67.2971,-0.024761
174.983,67.3193,-0.024761
175.091,67.3408,-0.031339
175.200,67.3625,-0.031339
175.309,67.3843,-0.038578
175.418,67.4062,-0.038578
175.526,67.4277,-0.038578
175.635,67.4497,-0.046269
175.746,67.4717,-0.046269
175.853,67.4931,-0.054328
175.963,67.5151,-0.054328
176.072,67.5370,-0.054328
176.182,67.5589,-0.062981
176.291,67.5807,-0.062981
176.399,67.6024,-0.072491
176.509,67.6245,-0.072491
176.620,67.6466,-0.072491
176.727,67.6681,-0.083170
176.837,67.6899,-0.095677
176.945,67.7115,-0.095677
177.054,67.7334,-0.095677
177.165,67.7556,-0.110711
177.272,67.7769,-0.110711
177.382,67.7989,-0.128685
177.492,67.8210,-0.128685
177.599,67.8426,-0.150316
177.707,67.8639,-0.150316
177.817,67.8848,-0.176114
177.927,67.8976,-0.176114
178.035,67.9015,-0.176114
178.144,67.9015,-0.199432
178.254,67.9015,-0.199432
178.363,67.9015,-0.204993
178.472,67.9015,-0.204993
178.581,67.9015,-0.197849
178.690,67.9015,-0.197849
178.800,67.9015,-0.197849
178.910,67.9015,-0.192052
179.018,67.9015,-0.192052
179.127,67.9015,-0.187547
179.237,67.9015,-0.187547
179.347,67.9015,-0.187547
179.455,67.9015,-0.183842
179.564,67.9015,-0.183842
179.674,67.9015,-0.180676
179.781,67.9015,-0.180676
179.890,67.9015,-0.177923
180.001,67.9015,-0.177923
180.114,67.9015,-0.175548
180.222,67.9015,-0.175548
180.333,67.9015,-0.173361
180.441,67.9015,-0.173361
180.549,67.9015,-0.173361
180.658,67.9015,-0.171448
180.770,67.9015,-0.171448
180.881,67.9015,-0.169667
180.990,67.9015,-0.169667
181.099,67.9015,-0.167989
181.207,67.9015,-0.167989
181.316,67.9015,-0.166443
181.426,67.9015,-0.166443
181.536,67.9015,-0.166443
181.646,67.9015,-0.165086
181.756,67.9015,-0.165086
181.865,67.9015,-0.163813
181.974,67.9015,-0.163813
182.083,67.9015,-0.161778
182.192,67.9015,-0.161778
182.302,67.9015,-0.161778
182.412,67.9015,-0.157866
182.521,67.9015,-0.157866
182.632,67.9007,-0.154407
182.744,67.8922,-0.154407
182.854,67.8747,-0.151655
182.963,67.8530,-0.151655
183.073,67.8309,-0.129882
183.183,67.8088,-0.129882
183.292,67.7871,-0.129882
183.401,67.7652,-0.088278
183.512,67.7432,-0.088278
183.621,67.7213,-0.046005
183.730,67.6994,-0.046005
183.839,67.6776,-0.003591
183.949,67.6558,-0.003591
184.057,67.6341,0.042037
184.165,67.6126,0.042037
184.272,67.5912,0.042037
184.381,67.5692,0.092350
184.492,67.5471,0.092350
184.600,67.5254,0.092350
184.709,67.5037,0.147564
184.818,67.4819,0.208151
184.927,67.4601,0.208151
185.036,67.4384,0.208151
185.146,67.4163,0.274882
185.256,67.3945,0.274882
185.364,67.3728,0.347854
185.473,67.3509,0.347854
185.582,67.3291,0.427216
185.691,67.3074,0.427216
185.799,67.2857,0.427216
185.909,67.2637,0.512789
186.019,67.2418,0.512789
186.128,67.2200,0.604215
186.238,67.1978,0.604215
186.347,67.1761,0.701683
186.457,67.1542,0.701683
186.564,67.1325,0.804826
186.674,67.1108,0.804826
186.783,67.0887,0.804826
186.894,67.0667,0.913321
187.003,67.0451,0.913321
187.112,67.0231,1.027652
187.221,67.0014,1.027652
187.330,66.9795,1.147703
187.441,66.9574,1.147703
187.550,66.9357,1.147703
187.660,66.9135,1.273683
187.769,66.8917,1.273683
187.878,66.8698,1.397231
187.987,66.8481,1.397231
188.097,66.8262,1.416223
188.206,66.8045,1.416223
188.315,66.7823,1.416223
188.426,66.7603,1.260996
188.535,66.7384,1.260996
188.645,66.7164,0.836476
188.754,66.6947,0.836476
188.862,66.6733,0.291565
188.969,66.6517,0.291565
189.077,66.6300,0.035166
189.187,66.6083,0.035166
189.296,66.5862,0.035166
189.406,66.5642,0.013196
189.515,66.5425,0.013196
189.624,66.5208,0.011518
189.734,66.4988,0.011518
189.845,66.4767,0.010783
189.955,66.4546,0.010783
190.065,66.4327,0.010321
190.175,66.4106,0.010321
190.285,66.3885,0.010321
190.396,66.3664,0.009897
190.504,66.3448,0.009897
190.612,66.3231,0.009548
190.720,66.3017,0.009548
190.829,66.2796,0.009322
190.938,66.2579,0.009322
191.046,66.2363,0.009322
191.156,66.2144,0.009105
191.265,66.1927,0.009105
191.374,66.1706,0.008945
191.484,66.1489,0.008945
191.592,66.1272,0.008813
191.702,66.1052,0.008813
191.811,66.0834,0.008813
191.920,66.0617,0.008728
192.031,66.0394,0.008728
192.143,66.0169,0.008690
192.249,65.9957,0.008690
192.359,65.9736,0.008624
192.470,65.9517,0.008624
192.579,65.9297,0.008568
192.688,65.9079,0.008568
192.799,65.8858,0.008568
192.908,65.8639,0.008521
193.019,65.8417,0.008521
193.127,65.8200,0.008473
193.236,65.7984,0.008473
193.345,65.7766,0.008426
193.454,65.7547,0.008426
193.563,65.7329,0.008426
193.671,65.7112,0.008436
193.779,65.6898,0.008436
193.887,65.6681,0.008473
193.997,65.6462,0.008473
194.107,65.6240,0.008502
194.216,65.6024,0.008502
194.325,65.5805,0.008445
194.436,65.5585,0.008445
194.544,65.5367,0.008445
194.653,65.5150,0.008407
194.763,65.4929,0.008407
194.873,65.4711,0.008398
194.982,65.4493,0.008398
195.088,65.4278,0.008398
195.197,65.4062,0.008398
195.306,65.3843,0.008417
195.416,65.3622,0.008417
195.526,65.3405,0.008417
195.634,65.3188,0.008445
195.744,65.2969,0.008445
195.853,65.2750,0.008521
195.962,65.2533,0.008521
196.071,65.2315,0.008521
196.180,65.2095,0.008521
196.288,65.1880,0.008521
196.398,65.1659,0.008511
196.508,65.1439,0.008511
196.617,65.1224,0.008596
196.726,65.1004,0.008596
196.835,65.0787,0.008577
196.945,65.0565,0.008577
197.053,65.0349,0.008577
197.162,65.0131,0.008596
197.271,64.9914,0.008596
197.381,64.9696,0.008662
197.490,64.9475,0.008662
197.598,64.9259,0.008596
197.708,64.9039,0.008596
197.817,64.8822,0.008671
197.926,64.8634,0.008671
198.036,64.8532,0.008671
198.146,64.8515,0.008690
198.255,64.8515,0.008690
198.365,64.8515,0.008511
198.473,64.8515,0.008511
198.582,64.8515,0.008389
198.689,64.8516,0.008389
198.799,64.8579,0.008389
198.908,64.8733,0.008285
199.017,64.8949,0.008285
199.127,64.9168,0.008002
199.236,64.9388,0.008002
199.344,64.9603,0.007767
199.453,64.9821,0.007767
199.562,65.0038,0.007672
199.672,65.0260,0.007672
199.781,65.0478,0.007672
199.890,65.0695,0.007540
200.000,65.0916,0.007540
200.108,65.1132,0.007474
200.217,65.1350,0.007474
200.327,65.1568,0.007427
200.435,65.1787,0.007427
200.546,65.2006,0.007427
200.655,65.2224,0.007314
200.765,65.2444,0.007314
200.874,65.2662,0.007220
200.983,65.2882,0.007220
201.093,65.3100,0.007154
201.201,65.3316,0.007154
201.310,65.3535,0.007154
201.419,65.3754,0.007050
201.529,65.3972,0.007050
201.638,65.4191,0.006899
201.745,65.4406,0.006899
201.854,65.4624,0.006796
201.962,65.4839,0.006796
202.072,65.5058,0.006739
202.182,65.5280,0.006739
202.289,65.5494,0.006739
202.397,65.5709,0.006692
202.506,65.5928,0.006692
202.616,65.6147,0.006607
202.726,65.6366,0.006607
202.835,65.6585,0.006475
202.944,65.6801,0.006475
203.054,65.7023,0.006475
203.164,65.7241,0.006372
203.273,65.7461,0.006372
203.382,65.7678,0.006249
203.491,65.7897,0.006249
203.602,65.8118,0.006183
203.710,65.8334,0.006183
203.818,65.8551,0.006117
203.927,65.8769,0.006117
204.036,65.8987,0.006117
204.146,65.9206,0.005985
204.255,65.9424,0.005985
204.364,65.9642,0.005844
204.473,65.9862,0.005844
204.584,66.0084,0.005844
204.692,66.0297,0.005749
204.801,66.0517,0.005749
204.911,66.0737,0.005674
205.020,66.0953,0.005674
205.129,66.1173,0.005523
205.238,66.1391,0.005523
205.347,66.1610,0.005344
205.456,66.1826,0.005344
205.565,66.2045,0.005193
205.676,66.2267,0.005193
205.784,66.2482,0.005193
205.893,66.2699,0.005052
206.002,66.2918,0.005052
206.111,66.3136,0.004835
206.218,66.3351,0.004835
206.326,66.3568,0.004694
206.437,66.3788,0.004694
206.546,66.4007,0.004694
206.656,66.4226,0.004496
206.764,66.4442,0.004496
206.873,66.4661,0.004157
206.982,66.4880,0.004157
207.093,66.5100,0.003864
207.201,66.5316,0.003864
207.310,66.5537,0.003864
207.419,66.5752,0.003553
207.527,66.5969,0.003553
207.635,66.6184,0.003139
207.745,66.6405,0.003139
207.853,66.6620,0.002658
207.961,66.6836,0.002658
208.069,66.7053,0.002168
208.177,66.7268,0.002168
208.285,66.7487,0.002168
208.395,66.7702,0.001508
208.504,66.7922,0.001508
208.613,66.8139,0.000660
208.722,66.8359,0.000660
208.832,66.8578,-0.000405
208.940,66.8795,-0.000405
209.050,66.9015,-0.000405
209.160,66.9234,-0.001687
209.268,66.9451,-0.001687
209.377,66.9668,-0.003280
209.487,66.9889,-0.003280
209.597,67.0109,-0.005354
209.706,67.0326,-0.005354
209.814,67.0543,-0.007993
209.924,67.0762,-0.007993
210.032,67.0977,-0.007993
210.142,67.1199,-0.011433
210.251,67.1417,-0.011433
210.361,67.1638,-0.015740
210.470,67.1855,-0.015740
210.578,67.2071,-0.020962
210.687,67.2289,-0.020962
210.797,67.2507,-0.020962
210.906,67.2725,-0.027173
211.014,67.2942,-0.027173
211.122,67.3158,-0.034129
211.231,67.3377,-0.034129
211.341,67.3595,-0.041585
211.450,67.3813,-0.041585
211.559,67.4031,-0.041585
211.667,67.4250,-0.049408
211.775,67.4464,-0.049408
211.884,67.4684,-0.057636
211.995,67.4905,-0.057636
212.105,67.5125,-0.057636
212.216,67.5345,-0.066534
212.325,67.5563,-0.076412
212.434,67.5783,-0.076412
212.543,67.6001,-0.076412
212.652,67.6219,-0.087760
212.760,67.6435,-0.087760
212.867,67.6650,-0.101087
212.976,67.6865,-0.101087
213.086,67.7086,-0.117026
213.192,67.7299,-0.117026
213.301,67.7516,-0.117026
213.409,67.7732,-0.135726
213.518,67.7952,-0.135726
213.627,67.8169,-0.158168
213.737,67.8370,-0.158168
213.845,67.8486,-0.158168
213.954,67.8515,-0.184908
214.064,67.8515,-0.202231
214.172,67.8515,-0.202231
214.280,67.8515,-0.202231
