Elapsed Time (s),Position (mm),Force (N)
-0.013,76.1515,-0.065488
0.097,76.1515,-0.065488
0.207,76.1515,-0.063499
0.317,76.1515,-0.063499
0.427,76.1515,-0.062019
0.537,76.1515,-0.062019
0.646,76.1515,-0.060784
0.752,76.1515,-0.060784
0.861,76.1515,-0.059832
0.970,76.1515,-0.059832
1.079,76.1515,-0.059832
1.188,76.1515,-0.059060
1.296,76.1515,-0.059060
1.405,76.1515,-0.059060
1.512,76.1515,-0.058315
1.623,76.1515,-0.057636
1.733,76.1515,-0.057636
1.842,76.1515,-0.057636
1.951,76.1515,-0.057052
2.060,76.1515,-0.057052
2.172,76.1515,-0.056552
2.282,76.1515,-0.056552
2.392,76.1515,-0.056091
2.501,76.1515,-0.056091
2.609,76.1515,-0.055629
2.717,76.1515,-0.055629
2.825,76.1515,-0.055629
2.934,76.1515,-0.055176
3.044,76.1515,-0.055176
3.154,76.1515,-0.054799
3.265,76.1515,-0.054799
3.375,76.1515,-0.054451
3.484,76.1515,-0.054451
3.591,76.1515,-0.054451
3.703,76.1515,-0.053876
3.811,76.1515,-0.053876
3.920,76.1515,-0.053876
4.027,76.1509,-0.053150
4.135,76.1434,-0.052707
4.247,76.1263,-0.052707
4.356,76.1045,-0.047391
4.464,76.0829,-0.047391
4.574,76.0608,-0.047391
4.684,76.0389,-0.030746
4.794,76.0169,-0.030746
4.904,75.9950,-0.006843
5.011,75.9735,-0.006843
5.121,75.9513,0.019548
5.231,75.9296,0.019548
5.340,75.9077,0.019548
5.450,75.8857,0.049370
5.557,75.8644,0.049370
5.666,75.8424,0.083330
5.775,75.8207,0.083330
5.884,75.7988,0.121541
5.992,75.7772,0.121541
6.100,75.7557,0.121541
6.210,75.7338,0.164341
6.318,75.7122,0.164341
6.426,75.6905,0.211713
6.534,75.6688,0.211713
6.644,75.6470,0.263892
6.753,75.6252,0.263892
6.862,75.6033,0.320935
6.970,75.5816,0.320935
7.081,75.5594,0.320935
7.190,75.5378,0.382681
7.298,75.5161,0.382681
7.408,75.4942,0.449092
7.518,75.4722,0.449092
7.627,75.4503,0.510876
7.738,75.4281,0.510876
7.847,75.4064,0.510876
7.955,75.3848,0.543714
8.063,75.3631,0.543714
8.172,75.3414,0.527888
8.281,75.3194,0.527888
8.390,75.2979,0.465360
8.498,75.2761,0.465360
8.606,75.2544,0.315864
8.715,75.2327,0.315864
8.824,75.2109,0.315864
8.934,75.1890,0.107817
9.043,75.1673,0.107817
9.152,75.1453,0.006899
9.262,75.1234,0.006899
9.370,75.1018,0.005552
9.480,75.0798,0.005552
9.591,75.0576,0.005552
9.698,75.0362,0.005080
9.807,75.0143,0.005080
9.916,74.9925,0.004939
10.025,74.9708,0.004939
10.135,74.9489,0.004760
10.244,74.9271,0.004760
10.352,74.9053,0.004760
10.460,74.8839,0.004562
10.569,74.8620,0.004562
10.677,74.8403,0.004458
10.786,74.8185,0.004458
10.894,74.7969,0.004421
11.004,74.7750,0.004421
11.114,74.7531,0.004373
11.223,74.7313,0.004373
11.329,74.7099,0.004373
11.438,74.6880,0.004270
11.548,74.6662,0.004270
11.656,74.6446,0.004213
11.767,74.6224,0.004213
11.875,74.6007,0.004213
11.984,74.5791,0.004213
12.094,74.5571,0.004213
12.205,74.5347,0.004213
12.312,74.5134,0.004213
12.421,74.4917,0.004147
12.530,74.4697,0.004147
12.640,74.4477,0.004062
12.750,74.4258,0.004062
12.859,74.4038,0.004053
12.968,74.3822,0.004053
13.077,74.3602,0.004053
13.185,74.3389,0.004043
13.294,74.3170,0.004043
13.402,74.2954,0.004109
13.512,74.2734,0.004109
13.621,74.2517,0.004081
13.732,74.2294,0.004081
13.841,74.2076,0.004081
13.950,74.1857,0.004062
14.059,74.1640,0.004062
14.168,74.1421,0.004091
14.278,74.1203,0.004091
14.388,74.0983,0.004043
14.496,74.0767,0.004043
14.603,74.0550,0.004053
14.713,74.0333,0.004053
14.824,74.0111,0.004053
14.932,73.9895,0.004053
15.041,73.9675,0.004053
15.150,73.9457,0.004034
15.260,73.9238,0.004034
15.368,73.9022,0.004053
15.478,73.8801,0.004053
15.587,73.8584,0.004053
15.696,73.8366,0.004025
15.805,73.8148,0.004025
15.914,73.7928,0.004034
16.024,73.7709,0.004034
16.132,73.7493,0.004034
16.242,73.7273,0.004034
16.350,73.7056,0.004034
16.460,73.6838,0.004072
16.568,73.6621,0.004072
16.678,73.6403,0.004119
16.790,73.6178,0.004119
16.899,73.5960,0.004043
17.007,73.5743,0.004043
17.116,73.5527,0.004006
17.223,73.5311,0.004006
17.332,73.5094,0.004006
17.443,73.4871,0.004006
17.552,73.4653,0.004006
17.661,73.4436,0.004053
17.771,73.4216,0.004053
17.880,73.3998,0.004100
17.990,73.3778,0.004100
18.099,73.3560,0.004100
18.208,73.3343,0.004109
18.317,73.3125,0.004109
18.424,73.2910,0.004109
18.532,73.2692,0.004109
18.640,73.2479,0.004109
18.748,73.2262,0.004138
18.857,73.2043,0.004166
18.965,73.1829,0.004166
19.075,73.1607,0.004166
19.185,73.1389,0.004128
19.293,73.1184,0.004128
19.403,73.1054,0.004119
19.512,73.1015,0.004119
19.623,73.1015,0.004100
19.731,73.1046,0.004100
19.841,73.1165,0.004100
19.951,73.1370,0.003940
20.061,73.1588,0.003940
20.168,73.1803,0.003798
20.276,73.2020,0.003798
20.385,73.2237,0.003798
20.493,73.2454,0.003798
20.602,73.2671,0.003798
20.711,73.2888,0.003723
20.821,73.3109,0.003723
20.931,73.3330,0.003657
21.037,73.3542,0.003657
21.146,73.3760,0.003582
21.255,73.3976,0.003582
21.364,73.4195,0.003582
21.472,73.4411,0.003478
21.581,73.4631,0.003478
21.692,73.4851,0.003487
21.802,73.5072,0.003487
21.912,73.5292,0.003459
22.022,73.5511,0.003459
22.132,73.5731,0.003346
22.241,73.5949,0.003346
22.350,73.6168,0.003346
22.459,73.6385,0.003271
22.568,73.6602,0.003271
22.676,73.6818,0.003280
22.788,73.7044,0.003280
22.898,73.7262,0.003280
23.008,73.7482,0.003299
23.116,73.7700,0.003233
23.225,73.7916,0.003233
23.334,73.8134,0.003233
23.443,73.8351,0.003148
23.551,73.8571,0.003148
23.659,73.8787,0.003120
23.770,73.9006,0.003120
23.878,73.9223,0.003063
23.988,73.9443,0.003063
24.098,73.9663,0.003007
24.207,73.9883,0.003007
24.316,74.0097,0.003007
24.427,74.0319,0.002969
24.535,74.0537,0.002969
24.642,74.0751,0.002903
24.752,74.0972,0.002903
24.861,74.1189,0.002865
24.970,74.1407,0.002865
25.080,74.1628,0.002865
25.188,74.1841,0.002856
25.297,74.2061,0.002856
25.407,74.2282,0.002856
25.517,74.2500,0.002856
25.625,74.2718,0.002743
25.735,74.2936,0.002743
25.844,74.3156,0.002743
25.954,74.3374,0.002696
26.063,74.3594,0.002696
26.170,74.3807,0.002762
26.278,74.4023,0.002762
26.388,74.4242,0.002649
26.499,74.4463,0.002649
26.608,74.4683,0.002649
26.715,74.4897,0.002545
26.825,74.5117,0.002545
26.935,74.5336,0.002498
27.045,74.5557,0.002498
27.153,74.5773,0.002479
27.264,74.5995,0.002479
27.373,74.6212,0.002479
27.480,74.6428,0.002441
27.589,74.6645,0.002441
27.698,74.6862,0.002422
27.809,74.7085,0.002422
27.919,74.7303,0.002441
28.028,74.7524,0.002441
28.137,74.7741,0.002347
28.246,74.7958,0.002347
28.355,74.8176,0.002272
28.464,74.8395,0.002272
28.573,74.8613,0.002272
28.681,74.8827,0.002224
28.791,74.9047,0.002224
28.898,74.9263,0.002140
29.009,74.9484,0.002140
29.117,74.9699,0.002045
29.227,74.9920,0.002045
29.335,75.0137,0.002045
29.444,75.0353,0.001951
29.554,75.0574,0.001951
29.662,75.0790,0.001857
29.772,75.1013,0.001857
29.882,75.1230,0.001734
29.991,75.1448,0.001734
30.099,75.1666,0.001734
30.210,75.1887,0.001612
30.318,75.2102,0.001612
30.426,75.2317,0.001404
30.534,75.2535,0.001404
30.645,75.2755,0.001206
30.754,75.2974,0.001206
30.864,75.3194,0.001018
30.972,75.3410,0.001018
31.081,75.3630,0.001018
31.190,75.3845,0.000745
31.298,75.4061,0.000745
31.407,75.4281,0.000377
31.517,75.4502,0.000377
31.626,75.4719,-0.000019
31.734,75.4934,-0.000019
31.842,75.5151,-0.000019
31.950,75.5366,-0.000547
32.059,75.5586,-0.000547
32.169,75.5804,-0.001395
32.278,75.6022,-0.001395
32.387,75.6240,-0.002517
32.495,75.6455,-0.002517
32.606,75.6678,-0.004015
32.714,75.6895,-0.004015
32.822,75.7111,-0.004015
32.931,75.7328,-0.006079
33.041,75.7548,-0.006079
33.151,75.7768,-0.008954
33.260,75.7987,-0.008954
33.370,75.8205,-0.012856
33.478,75.8421,-0.012856
33.585,75.8636,-0.012856
33.695,75.8856,-0.017908
33.804,75.9073,-0.017908
33.912,75.9291,-0.024120
34.021,75.9508,-0.024120
34.129,75.9724,-0.031387
34.240,75.9945,-0.031387
34.349,76.0163,-0.039587
34.458,76.0383,-0.039587
34.566,76.0600,-0.039587
34.675,76.0811,-0.048871
34.784,76.0958,-0.048871
34.893,76.1014,-0.058673
35.001,76.1015,-0.058673
35.110,76.1015,-0.063292
35.218,76.1015,-0.063292
35.326,76.1015,-0.063292
35.435,76.1015,-0.061878
35.544,76.1015,-0.061878
35.654,76.1015,-0.059842
35.761,76.1015,-0.059842
35.872,76.1015,-0.058324
35.980,76.1015,-0.058324
36.091,76.1015,-0.058324
36.200,76.1015,-0.057118
36.308,76.1015,-0.057118
36.416,76.1015,-0.056119
36.527,76.1015,-0.056119
36.637,76.1015,-0.055289
36.745,76.1015,-0.055289
36.855,76.1015,-0.055289
36.964,76.1015,-0.054498
37.072,76.1015,-0.054498
37.181,76.1015,-0.053744
37.290,76.1015,-0.053744
37.399,76.1015,-0.053131
37.507,76.1015,-0.053131
37.616,76.1015,-0.052622
37.726,76.1015,-0.052622
37.834,76.1015,-0.052622
37.944,76.1015,-0.052122
38.052,76.1015,-0.052122
38.163,76.1015,-0.052122
38.271,76.1015,-0.051698
38.381,76.1015,-0.051331
38.490,76.1015,-0.051331
38.598,76.1015,-0.051331
38.709,76.1015,-0.050916
38.820,76.1015,-0.050916
38.928,76.1015,-0.050511
39.036,76.1015,-0.050511
39.146,76.1015,-0.049964
39.256,76.1015,-0.049964
39.364,76.1015,-0.049474
39.475,76.0976,-0.049474
39.585,76.0847,-0.049474
39.694,76.0637,-0.048230
39.804,76.0419,-0.048230
39.912,76.0203,-0.037362
40.024,75.9978,-0.037362
40.134,75.9759,-0.015335
40.244,75.9538,-0.015335
40.354,75.9319,0.010566
40.462,75.9103,0.010566
40.570,75.8887,0.010566
40.679,75.8669,0.039690
40.787,75.8453,0.039690
40.896,75.8235,0.072708
41.004,75.8018,0.072708
41.114,75.7799,0.109947
41.222,75.7581,0.109947
41.332,75.7362,0.109947
41.443,75.7141,0.151476
41.555,75.6916,0.151476
41.664,75.6697,0.197434
41.773,75.6478,0.197434
41.882,75.6263,0.248086
41.991,75.6044,0.248086
42.099,75.5829,0.248086
42.210,75.5607,0.303573
42.320,75.5386,0.303573
42.428,75.5169,0.363971
42.535,75.4957,0.363971
42.642,75.4742,0.428356
42.752,75.4521,0.428356
42.861,75.4303,0.489348
42.970,75.4086,0.489348
43.080,75.3867,0.489348
43.191,75.3643,0.528181
43.300,75.3426,0.528181
43.410,75.3208,0.525165
43.519,75.2987,0.525165
43.628,75.2770,0.477227
43.736,75.2554,0.477227
43.844,75.2337,0.477227
43.954,75.2118,0.395141
44.063,75.1900,0.395141
44.171,75.1684,0.180006
44.281,75.1464,0.180006
44.390,75.1246,0.009378
44.499,75.1028,0.009378
44.607,75.0813,0.005523
44.716,75.0594,0.005523
44.826,75.0374,0.005523
44.937,75.0152,0.004986
45.046,74.9933,0.004986
45.155,74.9717,0.004703
45.265,74.9497,0.004703
45.375,74.9275,0.004534
45.485,74.9057,0.004534
45.594,74.8840,0.004534
45.703,74.8620,0.004439
45.812,74.8402,0.004439
45.922,74.8183,0.004317
46.030,74.7967,0.004317
46.138,74.7751,0.004270
46.246,74.7535,0.004270
46.354,74.7319,0.004270
46.463,74.7100,0.004241
46.572,74.6882,0.004241
46.682,74.6663,0.004204
46.791,74.6444,0.004204
46.900,74.6227,0.004204
47.008,74.6010,0.004147
47.115,74.5796,0.004062
47.225,74.5576,0.004062
47.335,74.5357,0.004062
47.445,74.5138,0.004081
47.555,74.4917,0.004081
47.665,74.4697,0.004081
47.774,74.4478,0.004081
47.883,74.4262,0.004062
47.991,74.4046,0.004062
48.099,74.3829,0.004062
48.208,74.3610,0.004015
48.317,74.3393,0.004015
48.426,74.3174,0.004006
48.535,74.2957,0.004006
48.644,74.2739,0.004025
48.753,74.2521,0.004025
48.862,74.2303,0.003987
48.973,74.2082,0.003987
49.080,74.1865,0.003987
49.191,74.1645,0.003940
49.300,74.1427,0.003940
49.409,74.1209,0.003912
49.517,74.0992,0.003912
49.626,74.0775,0.003902
49.736,74.0556,0.003902
49.844,74.0338,0.003902
49.955,74.0117,0.003912
50.064,73.9899,0.003912
50.174,73.9680,0.003930
50.283,73.9461,0.003930
50.392,73.9244,0.003949
50.501,73.9025,0.003949
50.609,73.8808,0.003930
50.717,73.8593,0.003930
50.826,73.8375,0.003930
50.936,73.8156,0.003940
51.046,73.7933,0.003940
51.155,73.7717,0.003949
51.265,73.7498,0.003949
51.374,73.7280,0.003902
51.483,73.7060,0.003902
51.593,73.6842,0.003902
51.704,73.6620,0.003921
51.814,73.6400,0.003921
51.922,73.6182,0.003968
52.031,73.5963,0.003968
52.142,73.5743,0.003949
52.252,73.5523,0.003949
52.362,73.5300,0.003949
52.472,73.5083,0.003949
52.582,73.4864,0.003949
52.693,73.4642,0.003987
52.802,73.4423,0.003987
52.910,73.4205,0.004015
53.020,73.3988,0.004015
53.127,73.3774,0.004034
53.235,73.3555,0.004034
53.344,73.3341,0.004034
53.454,73.3120,0.004091
53.563,73.2900,0.004091
53.672,73.2683,0.004081
53.782,73.2463,0.004081
53.892,73.2243,0.004053
54.000,73.2025,0.004053
54.108,73.1811,0.004053
54.217,73.1593,0.004109
54.325,73.1376,0.004109
54.432,73.1163,0.004128
54.543,73.0940,0.004128
54.652,73.0727,0.004100
54.761,73.0576,0.004100
54.870,73.0517,0.003978
54.981,73.0515,0.003978
55.089,73.0515,0.003978
55.198,73.0515,0.003949
55.307,73.0515,0.003949
55.416,73.0519,0.003987
55.525,73.0594,0.003987
55.634,73.0755,0.003874
55.744,73.0974,0.003874
55.853,73.1194,0.003874
55.962,73.1412,0.003836
56.072,73.1632,0.003836
56.180,73.1847,0.003798
56.289,73.2064,0.003798
56.398,73.2283,0.003657
56.509,73.2504,0.003657
56.617,73.2721,0.003610
56.724,73.2934,0.003610
56.831,73.3150,0.003610
56.942,73.3373,0.003582
57.052,73.3591,0.003582
57.161,73.3811,0.003516
57.268,73.4024,0.003516
57.380,73.4247,0.003478
57.490,73.4467,0.003478
57.599,73.4686,0.003478
57.707,73.4901,0.003459
57.815,73.5117,0.003459
57.924,73.5336,0.003487
58.032,73.5551,0.003487
58.142,73.5772,0.003355
58.251,73.5987,0.003355
58.360,73.6207,0.003280
58.471,73.6429,0.003280
58.580,73.6648,0.003280
58.690,73.6867,0.003289
58.799,73.7085,0.003289
58.907,73.7303,0.003205
59.016,73.7519,0.003205
59.125,73.7737,0.003148
59.234,73.7954,0.003148
59.344,73.8174,0.003148
59.453,73.8393,0.003158
59.562,73.8612,0.003158
59.673,73.8834,0.003139
59.782,73.9051,0.003139
59.892,73.9270,0.003139
60.000,73.9487,0.003044
60.111,73.9708,0.002931
60.221,73.9929,0.002931
60.330,74.0147,0.002931
60.440,74.0367,0.002941
60.549,74.0584,0.002941
60.660,74.0808,0.002903
60.770,74.1026,0.002903
60.880,74.1247,0.002846
60.991,74.1468,0.002846
61.100,74.1687,0.002846
61.210,74.1907,0.002856
61.318,74.2122,0.002856
61.427,74.2340,0.002780
61.536,74.2561,0.002780
61.644,74.2775,0.002733
61.752,74.2991,0.002733
61.862,74.3212,0.002733
61.972,74.3430,0.002733
62.080,74.3648,0.002733
62.190,74.3865,0.002733
62.299,74.4086,0.002733
62.408,74.4302,0.002686
62.517,74.4520,0.002686
62.626,74.4737,0.002573
62.734,74.4957,0.002573
62.844,74.5174,0.002573
62.954,74.5395,0.002573
63.062,74.5612,0.002573
63.173,74.5832,0.002535
63.281,74.6048,0.002535
63.391,74.6268,0.002413
63.501,74.6488,0.002413
63.610,74.6707,0.002413
63.718,74.6924,0.002375
63.827,74.7140,0.002375
63.936,74.7358,0.002328
64.045,74.7579,0.002328
64.154,74.7794,0.002328
64.263,74.8014,0.002243
64.374,74.8236,0.002196
64.482,74.8449,0.002196
64.591,74.8670,0.002196
64.700,74.8887,0.002074
64.808,74.9104,0.002074
64.917,74.9320,0.001942
65.027,74.9539,0.001942
65.135,74.9756,0.001904
65.245,74.9976,0.001904
65.353,75.0193,0.001847
65.462,75.0411,0.001847
65.570,75.0627,0.001847
65.679,75.0845,0.001744
65.788,75.1062,0.001744
65.897,75.1281,0.001640
66.006,75.1499,0.001640
66.115,75.1717,0.001480
66.224,75.1937,0.001480
66.332,75.2151,0.001480
66.442,75.2372,0.001263
66.550,75.2585,0.001263
66.659,75.2805,0.001074
66.767,75.3019,0.001074
66.876,75.3238,0.000839
66.986,75.3459,0.000839
67.097,75.3679,0.000839
67.204,75.3895,0.000509
67.312,75.4110,0.000509
67.419,75.4325,0.000094
67.531,75.4547,0.000094
67.641,75.4767,-0.000509
67.749,75.4984,-0.000509
67.858,75.5201,-0.001291
67.966,75.5419,-0.001291
68.075,75.5635,-0.001291
68.184,75.5856,-0.002337
68.294,75.6073,-0.002337
68.402,75.6291,-0.003808
68.511,75.6509,-0.003808
68.619,75.6725,-0.005891
68.729,75.6945,-0.005891
68.838,75.7162,-0.005891
68.946,75.7378,-0.008813
69.056,75.7600,-0.008813
69.166,75.7818,-0.012649
69.276,75.8037,-0.012649
69.387,75.8261,-0.017644
69.496,75.8479,-0.017644
69.606,75.8700,-0.023893
69.715,75.8916,-0.023893
69.823,75.9133,-0.023893
69.934,75.9355,-0.031057
70.042,75.9570,-0.031057
70.152,75.9791,-0.039247
70.262,76.0009,-0.039247
70.373,76.0233,-0.039247
70.482,76.0412,-0.048626
70.590,76.0503,-0.048626
70.700,76.0515,-0.058306
70.810,76.0515,-0.058306
70.919,76.0515,-0.062707
71.029,76.0515,-0.062707
71.136,76.0515,-0.061256
71.244,76.0515,-0.061256
71.355,76.0515,-0.059399
71.465,76.0515,-0.059399
71.575,76.0515,-0.059399
71.681,76.0515,-0.058051
71.790,76.0515,-0.058051
71.900,76.0515,-0.056995
72.011,76.0515,-0.056995
72.117,76.0515,-0.056119
72.226,76.0515,-0.056119
72.337,76.0515,-0.056119
72.446,76.0515,-0.055421
72.557,76.0515,-0.055421
72.667,76.0515,-0.054818
72.777,76.0515,-0.054818
72.888,76.0515,-0.054262
72.998,76.0515,-0.054262
73.109,76.0515,-0.053847
73.217,76.0515,-0.053847
73.327,76.0515,-0.053847
73.437,76.0515,-0.053404
73.546,76.0515,-0.053404
73.657,76.0515,-0.053065
73.766,76.0515,-0.053065
73.877,76.0515,-0.052811
73.986,76.0515,-0.052811
74.096,76.0515,-0.052811
74.207,76.0515,-0.052443
74.316,76.0515,-0.052443
74.425,76.0515,-0.052104
74.536,76.0515,-0.052104
74.643,76.0515,-0.051877
74.754,76.0515,-0.051877
74.864,76.0515,-0.051613
74.975,76.0515,-0.051613
75.084,76.0515,-0.051613
75.195,76.0510,-0.051180
75.304,76.0436,-0.051180
75.411,76.0272,-0.050266
75.522,76.0053,-0.050266
75.631,75.9835,-0.040727
75.740,75.9616,-0.040727
75.849,75.9399,-0.040727
75.957,75.9183,-0.019435
76.064,75.8969,-0.019435
76.172,75.8751,0.006579
76.280,75.8536,0.006579
76.388,75.8321,0.006579
76.498,75.8102,0.035411
76.608,75.7882,0.035411
76.715,75.7668,0.067948
76.824,75.7450,0.067948
76.934,75.7229,0.104556
77.042,75.7014,0.104556
77.150,75.6797,0.145330
77.259,75.6578,0.145330
77.367,75.6364,0.190544
77.477,75.6141,0.190544
77.586,75.5927,0.190544
77.694,75.5710,0.240348
77.801,75.5494,0.240348
77.912,75.5274,0.294911
78.020,75.5058,0.294911
78.130,75.4839,0.353585
78.238,75.4622,0.353585
78.346,75.4406,0.353585
78.456,75.4185,0.410750
78.564,75.3971,0.410750
78.672,75.3754,0.456312
78.782,75.3533,0.456312
78.890,75.3318,0.473532
79.000,75.3096,0.473532
79.108,75.2882,0.446679
79.217,75.2662,0.446679
79.326,75.2446,0.446679
79.435,75.2228,0.383293
79.543,75.2012,0.383293
79.654,75.1790,0.263176
79.761,75.1575,0.263176
79.870,75.1358,0.094772
79.977,75.1143,0.094772
80.088,75.0922,0.094772
80.197,75.0701,0.007192
80.307,75.0483,0.007192
80.415,75.0269,0.005476
80.524,75.0049,0.005476
80.634,74.9830,0.005014
80.744,74.9610,0.005014
80.852,74.9393,0.004750
80.962,74.9172,0.004750
81.071,74.8956,0.004750
81.180,74.8739,0.004571
81.290,74.8519,0.004571
81.398,74.8302,0.004421
81.507,74.8082,0.004421
81.616,74.7865,0.004298
81.725,74.7649,0.004298
81.834,74.7431,0.004298
81.943,74.7211,0.004166
82.050,74.6998,0.004166
82.161,74.6776,0.004100
82.269,74.6559,0.004100
82.378,74.6343,0.004138
82.488,74.6120,0.004138
82.597,74.5904,0.004138
82.706,74.5686,0.004147
82.815,74.5468,0.004147
82.924,74.5251,0.004100
83.032,74.5032,0.004100
83.142,74.4814,0.004034
83.250,74.4597,0.004034
83.361,74.4376,0.003978
83.470,74.4157,0.003978
83.580,74.3938,0.003978
83.691,74.3715,0.003940
83.800,74.3498,0.003940
83.910,74.3277,0.003930
84.018,74.3062,0.003930
84.127,74.2843,0.003996
84.236,74.2626,0.003996
84.346,74.2407,0.003996
84.455,74.2187,0.004015
84.565,74.1969,0.004015
84.674,74.1752,0.003987
84.782,74.1534,0.003987
84.891,74.1315,0.003987
84.999,74.1100,0.003987
85.110,74.0879,0.003978
85.219,74.0659,0.003978
85.329,74.0440,0.003978
85.437,74.0224,0.003930
85.546,74.0007,0.003930
85.656,73.9787,0.003930
85.765,73.9567,0.003930
85.876,73.9347,0.003921
85.986,73.9126,0.003921
86.094,73.8911,0.003921
86.202,73.8695,0.003864
86.311,73.8475,0.003864
86.422,73.8254,0.003912
86.531,73.8036,0.003912
86.640,73.7819,0.003996
86.749,73.7600,0.003996
86.858,73.7380,0.003996
86.968,73.7163,0.003996
87.078,73.6942,0.003996
87.188,73.6722,0.003940
87.297,73.6505,0.003940
87.406,73.6286,0.003940
87.515,73.6069,0.003940
87.624,73.5850,0.003930
87.732,73.5635,0.003930
87.842,73.5414,0.003930
87.951,73.5196,0.003949
88.061,73.4975,0.003949
88.169,73.4759,0.003968
88.278,73.4542,0.003968
88.387,73.4324,0.003949
88.496,73.4107,0.003949
88.605,73.3886,0.003949
88.714,73.3671,0.003987
88.822,73.3452,0.003987
88.932,73.3235,0.004034
89.043,73.3013,0.004034
89.152,73.2794,0.004034
89.261,73.2575,0.004034
89.370,73.2358,0.004043
89.481,73.2136,0.004043
89.591,73.1916,0.004043
89.701,73.1696,0.004091
89.812,73.1475,0.004091
89.922,73.1255,0.004128
90.031,73.1038,0.004128
90.141,73.0817,0.004109
90.249,73.0601,0.004109
90.358,73.0383,0.004062
90.468,73.0176,0.004062
90.576,73.0050,0.004062
90.686,73.0014,0.004025
90.793,73.0014,0.004025
90.904,73.0061,0.004043
91.012,73.0199,0.004043
91.122,73.0410,0.003893
91.232,73.0631,0.003893
91.339,73.0844,0.003893
91.447,73.1061,0.003817
91.556,73.1279,0.003817
91.666,73.1500,0.003808
91.776,73.1718,0.003808
91.885,73.1937,0.003676
91.994,73.2156,0.003676
92.102,73.2371,0.003676
92.212,73.2593,0.003657
92.321,73.2809,0.003657
92.430,73.3028,0.003610
92.540,73.3248,0.003610
92.648,73.3462,0.003535
92.757,73.3680,0.003535
92.867,73.3901,0.003469
92.976,73.4120,0.003469
93.086,73.4339,0.003469
93.195,73.4557,0.003412
93.304,73.4774,0.003412
93.414,73.4994,0.003412
93.522,73.5211,0.003412
93.631,73.5429,0.003355
93.741,73.5649,0.003355
93.848,73.5862,0.003355
93.958,73.6083,0.003280
94.066,73.6300,0.003280
94.175,73.6516,0.003242
94.283,73.6733,0.003242
94.393,73.6955,0.003223
94.503,73.7173,0.003223
94.613,73.7391,0.003214
94.720,73.7608,0.003214
94.828,73.7823,0.003214
94.937,73.8041,0.003129
95.047,73.8259,0.003129
95.156,73.8479,0.003110
95.265,73.8696,0.003110
95.374,73.8917,0.003082
95.486,73.9139,0.003082
95.596,73.9358,0.003082
95.705,73.9578,0.003007
95.812,73.9791,0.003007
95.919,74.0006,0.002960
96.028,74.0224,0.002960
96.136,74.0439,0.002884
96.246,74.0659,0.002884
96.355,74.0876,0.002884
96.464,74.1093,0.002856
96.572,74.1312,0.002856
96.681,74.1529,0.002846
96.792,74.1752,0.002846
96.904,74.1974,0.002799
97.012,74.2190,0.002799
97.123,74.2412,0.002762
97.231,74.2629,0.002762
97.341,74.2848,0.002762
97.451,74.3069,0.002715
97.561,74.3290,0.002715
97.670,74.3508,0.002667
97.779,74.3725,0.002667
97.888,74.3943,0.002611
97.996,74.4158,0.002611
98.103,74.4374,0.002611
98.213,74.4592,0.002526
98.321,74.4809,0.002526
98.430,74.5025,0.002517
98.540,74.5246,0.002517
98.649,74.5465,0.002517
98.757,74.5680,0.002517
98.866,74.5897,0.002413
98.977,74.6121,0.002413
99.086,74.6338,0.002413
99.195,74.6555,0.002366
99.305,74.6775,0.002366
99.415,74.6996,0.002337
99.525,74.7216,0.002337
99.635,74.7436,0.002272
99.744,74.7653,0.002272
99.852,74.7869,0.002262
99.961,74.8088,0.002262
100.072,74.8310,0.002262
100.181,74.8527,0.002187
100.290,74.8747,0.002187
100.398,74.8963,0.002092
100.508,74.9182,0.002092
100.617,74.9399,0.002008
100.726,74.9617,0.002008
100.836,74.9837,0.002008
100.946,75.0059,0.001847
101.055,75.0275,0.001847
101.165,75.0497,0.001687
101.276,75.0718,0.001687
101.385,75.0937,0.001583
101.494,75.1153,0.001583
101.604,75.1375,0.001583
101.712,75.1591,0.001461
101.821,75.1808,0.001461
101.928,75.2021,0.001263
102.038,75.2242,0.001263
102.147,75.2459,0.001018
102.257,75.2681,0.001018
102.365,75.2895,0.000782
102.474,75.3114,0.000782
102.582,75.3331,0.000782
102.692,75.3550,0.000415
102.801,75.3770,0.000415
102.910,75.3987,-0.000075
103.021,75.4208,-0.000075
103.128,75.4421,-0.000650
103.237,75.4642,-0.000650
103.346,75.4857,-0.000650
103.455,75.5075,-0.001461
103.564,75.5293,-0.001461
103.674,75.5514,-0.002639
103.781,75.5728,-0.002639
103.890,75.5945,-0.004317
104.000,75.6166,-0.004317
104.108,75.6382,-0.004317
104.218,75.6601,-0.006570
104.328,75.6823,-0.006570
104.437,75.7040,-0.009708
104.547,75.7260,-0.009708
104.656,75.7478,-0.013978
104.767,75.7700,-0.013978
104.876,75.7918,-0.013978
104.985,75.8137,-0.019331
105.093,75.8352,-0.019331
105.202,75.8571,-0.025778
105.311,75.8788,-0.025778
105.419,75.9005,-0.033262
105.527,75.9219,-0.033262
105.635,75.9436,-0.041792
105.745,75.9656,-0.041792
105.856,75.9863,-0.051604
105.966,75.9983,-0.051604
106.077,76.0014,-0.051604
106.186,76.0014,-0.060096
106.294,76.0014,-0.060096
106.402,76.0014,-0.061991
106.511,76.0014,-0.061991
106.622,76.0014,-0.059587
106.731,76.0014,-0.059587
106.841,76.0014,-0.059587
106.950,76.0014,-0.057693
107.058,76.0014,-0.057693
107.166,76.0014,-0.056260
107.277,76.0014,-0.056260
107.387,76.0014,-0.055167
107.496,76.0014,-0.055167
107.606,76.0014,-0.055167
107.716,76.0014,-0.054187
107.824,76.0014,-0.054187
107.934,76.0014,-0.053319
108.042,76.0014,-0.053319
108.150,76.0014,-0.052556
108.262,76.0014,-0.052556
108.370,76.0014,-0.051896
108.480,76.0014,-0.051896
108.590,76.0014,-0.051896
108.699,76.0014,-0.051312
108.808,76.0014,-0.051312
108.917,76.0014,-0.050756
109.027,76.0014,-0.050756
109.137,76.0014,-0.050313
109.245,76.0014,-0.050313
109.354,76.0014,-0.050313
109.462,76.0014,-0.049832
109.572,76.0014,-0.049832
109.681,76.0014,-0.049417
109.790,76.0014,-0.049417
109.900,76.0014,-0.049031
110.010,76.0014,-0.049031
110.120,76.0014,-0.048692
110.228,76.0014,-0.048692
110.336,76.0014,-0.048692
110.445,76.0014,-0.048315
110.556,76.0014,-0.048315
110.666,75.9992,-0.047966
110.775,75.9884,-0.047966
110.885,75.9687,-0.045855
110.992,75.9474,-0.045855
111.100,75.9257,-0.032904
111.209,75.9040,-0.032904
111.319,75.8818,-0.032904
111.428,75.8601,-0.009105
111.537,75.8383,-0.009105
111.647,75.8163,0.018087
111.755,75.7947,0.018087
111.866,75.7725,0.048560
111.976,75.7503,0.048560
112.086,75.7285,0.048560
112.195,75.7068,0.083010
112.303,75.6849,0.083010
112.411,75.6635,0.121635
112.520,75.6416,0.121635
112.629,75.6199,0.164681
112.737,75.5982,0.164681
112.848,75.5760,0.164681
112.958,75.5542,0.211789
113.065,75.5328,0.211789
113.174,75.5109,0.261272
113.283,75.4890,0.261272
113.392,75.4674,0.312575
113.499,75.4459,0.312575
113.609,75.4239,0.312575
113.719,75.4019,0.367091
113.828,75.3801,0.367091
113.937,75.3581,0.425444
114.046,75.3364,0.425444
114.156,75.3146,0.475709
114.267,75.2923,0.475709
114.374,75.2708,0.497030
114.482,75.2494,0.497030
114.591,75.2275,0.497030
114.700,75.2057,0.472043
114.810,75.1836,0.472043
114.919,75.1619,0.404435
115.026,75.1403,0.404435
115.135,75.1186,0.228425
115.244,75.0969,0.228425
115.354,75.0749,0.050134
115.461,75.0534,0.050134
115.572,75.0313,0.050134
115.680,75.0097,0.005844
115.788,74.9882,0.005844
115.898,74.9661,0.005127
116.007,74.9443,0.005127
116.118,74.9222,0.004750
116.228,74.9002,0.004750
116.336,74.8783,0.004750
116.445,74.8566,0.004543
116.554,74.8350,0.004543
116.663,74.8132,0.004543
116.772,74.7913,0.004392
116.881,74.7695,0.004260
116.988,74.7481,0.004260
117.097,74.7264,0.004260
117.207,74.7044,0.004260
117.315,74.6828,0.004260
117.424,74.6609,0.004204
117.532,74.6393,0.004204
117.642,74.6172,0.004081
117.751,74.5956,0.004081
117.858,74.5741,0.004081
117.969,74.5519,0.004081
118.077,74.5304,0.004081
118.185,74.5087,0.004034
118.294,74.4870,0.004034
118.404,74.4650,0.003996
118.514,74.4428,0.003996
118.622,74.4213,0.004025
118.730,74.3996,0.004025
118.841,74.3775,0.004025
118.950,74.3555,0.004006
119.058,74.3341,0.004006
119.168,74.3121,0.003930
119.277,74.2902,0.003930
119.387,74.2683,0.003912
119.496,74.2465,0.003912
119.605,74.2246,0.003912
119.714,74.2030,0.003912
119.822,74.1811,0.003912
119.933,74.1592,0.003921
120.042,74.1372,0.003921
120.149,74.1160,0.003893
120.258,74.0941,0.003893
120.368,74.0720,0.003827
120.477,74.0503,0.003827
120.585,74.0286,0.003827
120.694,74.0070,0.003874
120.804,73.9848,0.003874
120.912,73.9634,0.003893
121.022,73.9413,0.003893
121.131,73.9193,0.003883
121.241,73.8976,0.003883
121.351,73.8756,0.003902
121.460,73.8537,0.003902
121.569,73.8320,0.003902
121.678,73.8101,0.003912
121.786,73.7885,0.003912
121.895,73.7668,0.003949
122.004,73.7448,0.003949
122.112,73.7233,0.003940
122.222,73.7013,0.003940
122.330,73.6797,0.003940
122.442,73.6574,0.003930
122.552,73.6354,0.003930
122.662,73.6134,0.003893
122.772,73.5914,0.003893
122.882,73.5695,0.003893
122.992,73.5473,0.003893
123.102,73.5253,0.003893
123.210,73.5036,0.003978
123.320,73.4818,0.003978
123.430,73.4596,0.003996
123.540,73.4377,0.003996
123.649,73.4159,0.003996
123.758,73.3941,0.003996
123.866,73.3726,0.003987
123.975,73.3508,0.003987
124.085,73.3287,0.003987
124.195,73.3068,0.004006
124.305,73.2848,0.004006
124.415,73.2626,0.004006
124.524,73.2410,0.004006
124.634,73.2190,0.004006
124.744,73.1970,0.004025
124.852,73.1753,0.004025
124.962,73.1532,0.004072
125.071,73.1314,0.004072
125.181,73.1096,0.004062
125.288,73.0880,0.004062
125.398,73.0662,0.004053
125.507,73.0445,0.004053
125.615,73.0226,0.004062
125.726,73.0006,0.004062
125.835,72.9789,0.004062
125.946,72.9610,0.004128
126.056,72.9523,0.004128
126.167,72.9515,0.004119
126.276,72.9515,0.004119
126.386,72.9515,0.004015
126.496,72.9515,0.004015
126.606,72.9515,0.004006
126.715,72.9524,0.004006
126.824,72.9611,0.004006
126.932,72.9787,0.003921
127.041,73.0006,0.003921
127.150,73.0224,0.003855
127.261,73.0445,0.003855
127.370,73.0664,0.003789
127.478,73.0879,0.003789
127.585,73.1093,0.003789
127.695,73.1313,0.003714
127.803,73.1531,0.003714
127.912,73.1748,0.003648
128.022,73.1966,0.003648
128.129,73.2184,0.003619
128.238,73.2399,0.003619
128.347,73.2619,0.003619
128.457,73.2836,0.003601
128.566,73.3055,0.003601
128.675,73.3274,0.003478
128.784,73.3491,0.003478
128.892,73.3708,0.003478
129.002,73.3927,0.003450
129.112,73.4147,0.003374
129.219,73.4364,0.003374
129.328,73.4578,0.003374
129.437,73.4795,0.003308
129.547,73.5017,0.003308
129.656,73.5235,0.003327
129.767,73.5458,0.003327
129.877,73.5676,0.003271
129.986,73.5894,0.003271
130.094,73.6111,0.003271
130.202,73.6328,0.003205
130.310,73.6543,0.003205
130.421,73.6765,0.003148
130.531,73.6984,0.003148
130.639,73.7202,0.003120
130.748,73.7421,0.003120
130.857,73.7637,0.003120
130.967,73.7858,0.003110
131.075,73.8073,0.003110
131.184,73.8290,0.003026
131.293,73.8510,0.003026
131.403,73.8728,0.002978
131.514,73.8951,0.002978
131.621,73.9164,0.002931
131.730,73.9382,0.002931
131.840,73.9601,0.002931
131.948,73.9820,0.002922
132.057,74.0037,0.002922
132.166,74.0255,0.002950
132.275,74.0472,0.002950
132.383,74.0690,0.002912
132.493,74.0909,0.002912
132.601,74.1124,0.002912
132.710,74.1344,0.002846
132.820,74.1562,0.002846
132.930,74.1782,0.002780
133.039,74.2000,0.002780
133.147,74.2218,0.002780
133.256,74.2434,0.002743
133.364,74.2652,0.002715
133.473,74.2867,0.002715
133.582,74.3086,0.002715
133.691,74.3306,0.002658
133.799,74.3519,0.002658
133.907,74.3736,0.002573
134.016,74.3956,0.002573
134.125,74.4173,0.002573
134.235,74.4391,0.002545
134.345,74.4614,0.002545
134.454,74.4830,0.002517
134.563,74.5048,0.002517
134.673,74.5269,0.002479
134.781,74.5486,0.002479
134.890,74.5705,0.002441
134.999,74.5919,0.002441
135.108,74.6140,0.002366
135.217,74.6357,0.002366
135.326,74.6575,0.002366
135.434,74.6791,0.002309
135.544,74.7009,0.002309
135.652,74.7229,0.002281
135.761,74.7445,0.002281
135.872,74.7667,0.002290
135.979,74.7880,0.002290
136.087,74.8096,0.002290
136.196,74.8315,0.002140
136.306,74.8534,0.002140
136.416,74.8754,0.001979
136.526,74.8976,0.001979
136.636,74.9193,0.001979
136.745,74.9412,0.001932
136.852,74.9627,0.001932
136.961,74.9844,0.001800
137.071,75.0064,0.001800
137.180,75.0282,0.001725
137.289,75.0501,0.001725
137.398,75.0719,0.001602
137.507,75.0936,0.001602
137.615,75.1153,0.001395
137.726,75.1374,0.001395
137.837,75.1596,0.001395
137.946,75.1814,0.001225
138.054,75.2030,0.001225
138.164,75.2249,0.001018
138.271,75.2465,0.001018
138.382,75.2686,0.000726
138.492,75.2905,0.000726
138.602,75.3127,0.000358
138.711,75.3344,0.000358
138.821,75.3565,0.000358
138.931,75.3785,-0.000207
139.040,75.4003,-0.000207
139.151,75.4225,-0.000924
139.262,75.4447,-0.000924
139.370,75.4662,-0.001857
139.481,75.4884,-0.001857
139.590,75.5103,-0.001857
139.701,75.5325,-0.003186
139.809,75.5541,-0.003186
139.917,75.5757,-0.005052
140.026,75.5976,-0.005052
140.136,75.6193,-0.007569
140.244,75.6410,-0.007569
140.354,75.6629,-0.007569
140.462,75.6847,-0.011056
140.571,75.7064,-0.011056
140.679,75.7278,-0.015712
140.790,75.7500,-0.015712
140.899,75.7720,-0.021443
141.009,75.7939,-0.021443
141.119,75.8160,-0.021443
141.227,75.8376,-0.028276
141.337,75.8597,-0.028276
141.446,75.8814,-0.036146
141.554,75.9030,-0.036146
141.662,75.9247,-0.045091
141.772,75.9423,-0.045091
141.881,75.9506,-0.045091
141.990,75.9515,-0.054846
142.100,75.9515,-0.054846
142.208,75.9515,-0.059898
142.317,75.9515,-0.059898
142.426,75.9515,-0.058701
142.534,75.9515,-0.058701
142.644,75.9515,-0.056600
142.754,75.9515,-0.056600
142.862,75.9515,-0.055082
142.974,75.9515,-0.055082
143.082,75.9515,-0.055082
143.192,75.9515,-0.053828
143.300,75.9515,-0.053828
143.408,75.9515,-0.052773
143.518,75.9515,-0.052773
143.628,75.9515,-0.052773
143.737,75.9515,-0.051859
143.846,75.9515,-0.051859
143.956,75.9515,-0.051095
144.066,75.9515,-0.051095
144.176,75.9515,-0.050426
144.285,75.9515,-0.050426
144.392,75.9515,-0.049851
144.502,75.9515,-0.049851
144.611,75.9515,-0.049314
144.722,75.9515,-0.049314
144.832,75.9515,-0.049314
144.942,75.9515,-0.048833
145.052,75.9515,-0.048833
145.160,75.9515,-0.048390
145.269,75.9515,-0.048390
145.378,75.9515,-0.047975
145.487,75.9515,-0.047975
145.599,75.9515,-0.047975
145.708,75.9515,-0.047579
145.819,75.9515,-0.047579
145.929,75.9515,-0.047579
146.039,75.9515,-0.047212
146.148,75.9515,-0.046939
146.258,75.9515,-0.046939
146.369,75.9515,-0.046939
146.479,75.9515,-0.046637
146.588,75.9507,-0.046637
146.698,75.9422,-0.046345
146.808,75.9247,-0.046345
146.917,75.9028,-0.042848
147.028,75.8808,-0.042848
147.137,75.8591,-0.027550
147.246,75.8372,-0.027550
147.356,75.8152,-0.002375
147.466,75.7931,-0.002375
147.574,75.7714,-0.002375
147.684,75.7495,0.025731
147.794,75.7273,0.025731
147.902,75.7059,0.057476
148.012,75.6838,0.057476
148.121,75.6621,0.093321
148.230,75.6403,0.093321
148.338,75.6188,0.093321
148.444,75.5975,0.133369
148.554,75.5754,0.133369
148.663,75.5538,0.177914
148.772,75.5320,0.177914
148.880,75.5103,0.226888
148.989,75.4885,0.226888
149.097,75.4669,0.226888
149.207,75.4449,0.280491
149.315,75.4234,0.280491
149.424,75.4015,0.338890
149.534,75.3796,0.338890
149.644,75.3575,0.402022
149.754,75.3356,0.402022
149.863,75.3135,0.469715
149.972,75.2919,0.469715
150.082,75.2699,0.469715
150.192,75.2479,0.541668
150.301,75.2262,0.541668
150.411,75.2041,0.618033
150.521,75.1821,0.618033
150.629,75.1604,0.618033
150.738,75.1387,0.698394
150.848,75.1168,0.698394
150.957,75.0950,0.782506
151.068,75.0728,0.782506
151.177,75.0509,0.870219
151.285,75.0293,0.870219
151.394,75.0074,0.960609
151.502,74.9859,0.960609
151.613,74.9636,1.052704
151.722,74.9419,1.052704
151.832,74.9198,1.052704
151.943,74.8979,1.139955
152.052,74.8760,1.139955
152.160,74.8541,0.946848
152.269,74.8326,0.946848
152.377,74.8108,0.359589
152.487,74.7891,0.359589
152.595,74.7674,0.359589
152.705,74.7452,0.005721
152.813,74.7236,0.005721
152.924,74.7017,0.005721
153.032,74.6798,0.004929
153.142,74.6579,0.004666
153.251,74.6363,0.004666
153.359,74.6146,0.004477
153.467,74.5929,0.004477
153.578,74.5707,0.004477
153.688,74.5488,0.004317
153.794,74.5275,0.004317
153.905,74.5053,0.004166
154.014,74.4836,0.004166
154.124,74.4614,0.004157
154.234,74.4395,0.004157
154.344,74.4175,0.004157
154.453,74.3956,0.004204
154.561,74.3741,0.004204
154.670,74.3522,0.004138
154.778,74.3307,0.004138
154.887,74.3089,0.004138
154.998,74.2868,0.004062
155.106,74.2650,0.004062
155.216,74.2432,0.004034
155.327,74.2211,0.004034
155.436,74.1993,0.004062
155.546,74.1772,0.004062
155.654,74.1556,0.004062
155.761,74.1341,0.004062
155.870,74.1123,0.004034
155.978,74.0906,0.004034
156.087,74.0690,0.004034
156.195,74.0474,0.004006
156.304,74.0257,0.004006
156.412,74.0039,0.003921
156.521,73.9821,0.003921
156.630,73.9604,0.003959
156.739,73.9386,0.003959
156.848,73.9169,0.003959
156.958,73.8949,0.004034
157.069,73.8726,0.004034
157.177,73.8511,0.004006
157.285,73.8294,0.004006
157.394,73.8076,0.003996
157.504,73.7855,0.003996
157.614,73.7634,0.003996
157.724,73.7417,0.004015
157.833,73.7198,0.004015
157.942,73.6980,0.003978
158.050,73.6764,0.003978
158.160,73.6544,0.003978
158.271,73.6322,0.003978
158.379,73.6105,0.004015
158.487,73.5891,0.004015
158.595,73.5672,0.004015
158.702,73.5460,0.004025
158.810,73.5243,0.004025
158.920,73.5025,0.004062
159.029,73.4805,0.004062
159.137,73.4591,0.004015
159.247,73.4370,0.004015
159.356,73.4152,0.004015
159.465,73.3932,0.004025
159.575,73.3715,0.004025
159.685,73.3493,0.004043
159.793,73.3279,0.004043
159.902,73.3059,0.004062
160.011,73.2842,0.004062
160.120,73.2623,0.004100
160.229,73.2407,0.004100
160.338,73.2187,0.004100
160.446,73.1974,0.004072
160.556,73.1752,0.004072
160.666,73.1530,0.004100
160.776,73.1312,0.004100
160.886,73.1093,0.004138
160.996,73.0871,0.004138
161.106,73.0652,0.004138
161.215,73.0435,0.004138
161.324,73.0217,0.004138
161.433,72.9998,0.004175
161.543,72.9776,0.004175
161.653,72.9558,0.004157
161.764,72.9337,0.004157
161.875,72.9139,0.004157
161.984,72.9035,0.004157
162.095,72.9015,0.004157
162.206,72.9015,0.004119
162.314,72.9015,0.004119
162.423,72.9015,0.004043
162.532,72.9015,0.004043
162.640,72.9059,0.004025
162.750,72.9196,0.004025
162.860,72.9409,0.003855
162.966,72.9621,0.003855
163.077,72.9843,0.003855
163.186,73.0061,0.003761
163.295,73.0279,0.003761
163.404,73.0498,0.003780
163.512,73.0714,0.003780
163.620,73.0930,0.003751
163.730,73.1148,0.003751
163.838,73.1365,0.003751
163.948,73.1583,0.003657
164.056,73.1800,0.003657
164.164,73.2016,0.003582
164.274,73.2238,0.003582
164.385,73.2459,0.003544
164.494,73.2677,0.003544
164.602,73.2892,0.003544
164.712,73.3112,0.003525
164.821,73.3331,0.003525
164.930,73.3549,0.003478
165.039,73.3767,0.003478
165.148,73.3984,0.003393
165.256,73.4201,0.003393
165.366,73.4421,0.003355
165.474,73.4637,0.003355
165.584,73.4856,0.003355
165.694,73.5077,0.003346
165.802,73.5293,0.003346
165.910,73.5509,0.003289
166.020,73.5729,0.003289
166.128,73.5946,0.003271
166.237,73.6162,0.003271
166.347,73.6382,0.003271
166.457,73.6604,0.003280
166.566,73.6821,0.003280
166.675,73.7038,0.003195
166.786,73.7260,0.003195
166.896,73.7481,0.003110
167.006,73.7700,0.003110
167.114,73.7916,0.003101
167.224,73.8135,0.003101
167.333,73.8356,0.003101
167.442,73.8573,0.003139
167.552,73.8793,0.003139
167.662,73.9013,0.003063
167.770,73.9229,0.003063
167.880,73.9449,0.002941
167.988,73.9665,0.002941
168.096,73.9883,0.002941
168.205,74.0097,0.002856
168.314,74.0317,0.002856
168.422,74.0534,0.002828
168.531,74.0750,0.002828
168.640,74.0968,0.002828
168.748,74.1185,0.002828
168.857,74.1403,0.002828
168.966,74.1620,0.002790
169.075,74.1839,0.002790
169.183,74.2056,0.002743
169.293,74.2277,0.002743
169.402,74.2492,0.002733
169.512,74.2713,0.002733
169.621,74.2930,0.002677
169.729,74.3147,0.002677
169.838,74.3365,0.002677
169.947,74.3583,0.002545
170.057,74.3802,0.002545
170.167,74.4022,0.002545
170.276,74.4241,0.002545
170.385,74.4458,0.002517
170.493,74.4675,0.002517
170.602,74.4892,0.002517
170.712,74.5112,0.002479
170.821,74.5331,0.002479
170.929,74.5546,0.002432
171.038,74.5764,0.002432
171.147,74.5982,0.002337
171.257,74.6203,0.002337
171.366,74.6420,0.002281
171.475,74.6637,0.002281
171.583,74.6855,0.002281
171.692,74.7073,0.002262
171.802,74.7292,0.002262
171.910,74.7508,0.002243
172.016,74.7721,0.002243
172.124,74.7937,0.002130
172.233,74.8157,0.002130
172.342,74.8372,0.002130
172.450,74.8589,0.001970
172.558,74.8805,0.001970
172.669,74.9026,0.001876
172.778,74.9244,0.001876
172.887,74.9461,0.001791
172.994,74.9677,0.001791
173.102,74.9893,0.001668
173.211,75.0111,0.001668
173.320,75.0328,0.001668
173.430,75.0549,0.001517
173.541,75.0770,0.001517
173.649,75.0987,0.001310
173.758,75.1204,0.001310
173.867,75.1422,0.001103
173.975,75.1639,0.001103
174.086,75.1860,0.001103
174.194,75.2076,0.000848
174.304,75.2295,0.000848
174.413,75.2515,0.000537
174.522,75.2733,0.000537
174.632,75.2952,0.000085
174.740,75.3168,0.000085
174.851,75.3389,0.000085
174.960,75.3607,-0.000443
175.069,75.3827,-0.000443
175.178,75.4044,-0.001225
175.287,75.4262,-0.001225
175.396,75.4479,-0.001225
175.504,75.4699,-0.002375
175.613,75.4915,-0.003883
175.724,75.5137,-0.003883
175.833,75.5354,-0.003883
175.945,75.5578,-0.006013
176.055,75.5798,-0.006013
176.163,75.6015,-0.008935
176.272,75.6232,-0.008935
176.381,75.6451,-0.012903
176.490,75.6668,-0.012903
176.598,75.6885,-0.012903
176.708,75.7106,-0.018031
176.818,75.7326,-0.018031
176.928,75.7543,-0.024242
177.038,75.7765,-0.024242
177.147,75.7983,-0.024242
177.257,75.8201,-0.031500
177.366,75.8421,-0.039775
177.475,75.8638,-0.039775
177.585,75.8847,-0.039775
177.694,75.8975,-0.049191
177.802,75.9015,-0.049191
177.912,75.9015,-0.056948
178.022,75.9015,-0.056948
178.131,75.9015,-0.056948
178.239,75.9015,-0.058419
178.348,75.9015,-0.058419
178.458,75.9015,-0.056119
178.567,75.9015,-0.056119
178.676,75.9015,-0.054281
178.785,75.9015,-0.054281
178.895,75.9015,-0.052848
179.004,75.9015,-0.052848
179.114,75.9015,-0.051698
179.220,75.9015,-0.051698
179.330,75.9015,-0.051698
179.440,75.9015,-0.050737
179.549,75.9015,-0.050737
179.660,75.9015,-0.049908
179.768,75.9015,-0.049908
179.878,75.9015,-0.049182
179.986,75.9015,-0.049182
180.096,75.9015,-0.049182
180.206,75.9015,-0.048437
180.314,75.9015,-0.048437
180.424,75.9015,-0.047815
180.536,75.9015,-0.047815
180.645,75.9015,-0.047306
180.755,75.9015,-0.047306
180.866,75.9015,-0.046854
180.976,75.9015,-0.046854
181.086,75.9015,-0.046854
181.193,75.9015,-0.046467
181.303,75.9015,-0.046467
181.414,75.9015,-0.046043
181.524,75.9015,-0.046043
181.634,75.9015,-0.045675
181.743,75.9015,-0.045675
181.852,75.9015,-0.045675
181.962,75.9015,-0.045440
182.071,75.9015,-0.045440
182.181,75.9015,-0.045185
182.289,75.9015,-0.045185
182.397,75.8974,-0.044884
182.506,75.8842,-0.044884
182.614,75.8638,-0.041387
182.725,75.8413,-0.041387
182.835,75.8196,-0.041387
182.944,75.7977,-0.026099
183.052,75.7761,-0.026099
183.161,75.7544,-0.000679
183.270,75.7326,-0.000679
183.377,75.7110,0.028012
183.487,75.6891,0.028012
183.596,75.6673,0.028012
183.707,75.6451,0.060247
183.815,75.6234,0.060247
183.924,75.6016,0.096592
184.035,75.5796,0.096592
184.145,75.5576,0.096592
184.254,75.5357,0.137366
184.361,75.5143,0.182561
184.471,75.4923,0.182561
184.580,75.4706,0.182561
184.690,75.4485,0.232430
184.800,75.4263,0.232430
184.909,75.4048,0.287003
185.018,75.3831,0.287003
185.126,75.3614,0.346289
185.235,75.3394,0.346289
185.345,75.3176,0.346289
185.455,75.2956,0.410193
185.564,75.2738,0.410193
185.674,75.2517,0.478311
185.782,75.2300,0.478311
185.893,75.2078,0.550877
186.004,75.1859,0.550877
186.111,75.1645,0.550877
186.220,75.1426,0.627779
186.329,75.1207,0.627779
186.438,75.0990,0.708847
186.548,75.0768,0.708847
186.657,75.0551,0.794165
186.766,75.0333,0.794165
186.875,75.0115,0.883415
186.983,74.9899,0.883415
187.093,74.9677,0.883415
187.202,74.9462,0.976047
187.309,74.9248,0.976047
187.418,74.9028,1.070094
187.527,74.8810,1.070094
187.638,74.8588,1.070094
187.747,74.8371,1.164009
187.857,74.8153,1.164009
187.966,74.7935,1.208516
188.075,74.7716,1.208516
188.184,74.7498,0.618495
188.293,74.7278,0.618495
188.402,74.7061,0.018106
188.511,74.6843,0.018106
188.619,74.6627,0.005090
188.728,74.6410,0.005090
188.838,74.6191,0.005090
188.948,74.5970,0.004703
189.058,74.5749,0.004703
189.167,74.5531,0.004496
189.275,74.5316,0.004496
189.384,74.5099,0.004373
189.496,74.4875,0.004373
189.602,74.4662,0.004373
189.712,74.4442,0.004307
189.820,74.4226,0.004307
189.929,74.4008,0.004260
190.038,74.3790,0.004260
190.148,74.3571,0.004185
190.257,74.3353,0.004185
190.367,74.3132,0.004147
190.475,74.2917,0.004147
190.585,74.2696,0.004147
190.695,74.2476,0.004138
190.804,74.2259,0.004138
190.912,74.2042,0.004109
191.021,74.1824,0.004109
191.131,74.1604,0.004043
191.240,74.1386,0.004043
191.348,74.1169,0.004043
191.458,74.0950,0.004062
191.567,74.0731,0.004062
191.676,74.0514,0.004119
191.785,74.0297,0.004119
191.894,74.0079,0.004062
192.005,73.9857,0.004062
192.113,73.9640,0.004015
192.221,73.9424,0.004015
192.331,73.9204,0.004015
192.440,73.8986,0.004006
192.549,73.8768,0.004006
192.659,73.8547,0.004025
192.767,73.8333,0.004025
192.876,73.8116,0.004034
192.986,73.7894,0.004034
193.095,73.7677,0.004034
193.205,73.7457,0.004081
193.314,73.7236,0.004081
193.423,73.7019,0.004072
193.532,73.6801,0.004072
193.642,73.6583,0.004081
193.751,73.6364,0.004081
193.860,73.6147,0.004062
193.970,73.5927,0.004062
194.080,73.5706,0.004062
194.189,73.5489,0.003959
194.297,73.5272,0.003959
194.405,73.5057,0.004015
194.515,73.4836,0.004015
194.625,73.4617,0.004025
194.734,73.4397,0.004025
194.842,73.4182,0.004025
194.951,73.3963,0.003987
195.061,73.3744,0.003987
195.168,73.3528,0.004043
195.277,73.3313,0.004043
195.387,73.3093,0.004091
195.495,73.2876,0.004091
195.604,73.2657,0.004109
195.714,73.2438,0.004109
195.822,73.2221,0.004109
195.932,73.2002,0.004138
196.040,73.1784,0.004138
196.148,73.1571,0.004147
196.257,73.1354,0.004147
196.366,73.1134,0.004147
196.476,73.0915,0.004147
196.584,73.0696,0.004147
196.692,73.0482,0.004138
196.802,73.0262,0.004138
196.911,73.0044,0.004157
197.019,72.9826,0.004157
197.129,72.9608,0.004204
197.237,72.9392,0.004204
197.346,72.9173,0.004204
197.457,72.8953,0.004223
197.569,72.8731,0.004223
197.676,72.8581,0.004232
197.783,72.8517,0.004232
197.893,72.8515,0.004157
198.002,72.8515,0.004157
198.111,72.8515,0.004157
198.220,72.8515,0.004072
198.328,72.8566,0.004072
198.438,72.8707,0.004043
198.547,72.8919,0.004043
198.655,72.9135,0.003912
198.764,72.9353,0.003912
198.872,72.9570,0.003817
198.982,72.9792,0.003817
199.090,73.0006,0.003817
199.198,73.0223,0.003855
199.307,73.0442,0.003855
199.417,73.0659,0.003817
199.525,73.0875,0.003817
199.634,73.1093,0.003704
199.743,73.1314,0.003704
199.851,73.1529,0.003704
199.962,73.1752,0.003629
200.071,73.1968,0.003629
200.181,73.2187,0.003582
200.290,73.2406,0.003582
200.399,73.2625,0.003544
200.508,73.2843,0.003544
200.617,73.3062,0.003544
200.727,73.3280,0.003535
200.835,73.3496,0.003535
200.944,73.3715,0.003469
201.052,73.3931,0.003469
201.160,73.4148,0.003374
201.270,73.4365,0.003374
201.379,73.4583,0.003346
201.487,73.4800,0.003346
201.595,73.5016,0.003346
201.704,73.5236,0.003308
201.815,73.5455,0.003308
201.923,73.5672,0.003280
202.033,73.5893,0.003280
202.142,73.6110,0.003252
202.251,73.6327,0.003252
202.360,73.6547,0.003195
202.469,73.6765,0.003195
202.579,73.6984,0.003195
202.688,73.7200,0.003158
202.796,73.7419,0.003158
202.907,73.7639,0.003092
203.014,73.7855,0.003092
203.124,73.8073,0.003082
203.231,73.8288,0.003082
203.340,73.8505,0.003082
203.450,73.8726,0.003073
203.560,73.8947,0.003073
203.669,73.9165,0.002969
203.779,73.9383,0.002969
203.887,73.9603,0.002912
203.997,73.9820,0.002912
204.106,74.0038,0.002912
204.215,74.0255,0.002922
204.323,74.0472,0.002922
204.432,74.0689,0.002865
204.542,74.0909,0.002865
204.650,74.1126,0.002846
204.760,74.1345,0.002846
204.872,74.1568,0.002799
204.979,74.1784,0.002799
205.088,74.2000,0.002799
205.196,74.2220,0.002677
205.306,74.2438,0.002677
205.415,74.2657,0.002611
205.525,74.2876,0.002611
205.634,74.3094,0.002620
205.742,74.3312,0.002620
205.852,74.3529,0.002620
205.961,74.3747,0.002554
206.070,74.3967,0.002554
206.179,74.4183,0.002507
206.289,74.4404,0.002507
206.397,74.4619,0.002498
206.506,74.4838,0.002498
206.615,74.5057,0.002460
206.725,74.5274,0.002460
206.834,74.5492,0.002460
206.942,74.5710,0.002385
207.051,74.5928,0.002385
207.162,74.6150,0.002281
207.272,74.6369,0.002281
207.379,74.6584,0.002272
207.488,74.6802,0.002272
207.598,74.7020,0.002272
207.708,74.7241,0.002177
207.818,74.7461,0.002177
207.925,74.7674,0.002083
208.032,74.7890,0.002083
208.142,74.8111,0.002055
208.251,74.8328,0.002055
208.361,74.8548,0.001979
208.470,74.8767,0.001979
208.578,74.8981,0.001979
208.687,74.9200,0.001800
208.795,74.9415,0.001800
208.905,74.9634,0.001602
209.013,74.9852,0.001602
209.123,75.0070,0.001480
209.230,75.0287,0.001480
209.339,75.0504,0.001480
209.449,75.0724,0.001272
209.559,75.0945,0.001272
209.670,75.1165,0.001046
209.778,75.1381,0.001046
209.887,75.1599,0.000726
209.997,75.1820,0.000726
210.105,75.2033,0.000726
210.214,75.2253,0.000358
210.325,75.2475,0.000358
210.433,75.2693,-0.000113
210.542,75.2908,-0.000113
210.651,75.3127,-0.000726
210.762,75.3348,-0.000726
210.871,75.3568,-0.001546
210.982,75.3790,-0.001546
211.092,75.4008,-0.001546
211.201,75.4226,-0.002752
211.311,75.4448,-0.002752
211.420,75.4665,-0.004430
211.531,75.4887,-0.004430
211.639,75.5103,-0.006805
211.750,75.5326,-0.006805
211.859,75.5542,-0.006805
211.967,75.5759,-0.010029
212.077,75.5980,-0.010029
212.186,75.6197,-0.014242
212.295,75.6414,-0.014242
212.406,75.6637,-0.019548
212.515,75.6854,-0.019548
212.624,75.7074,-0.025920
212.735,75.7295,-0.025920
212.841,75.7508,-0.025920
212.950,75.7726,-0.033347
213.060,75.7946,-0.033347
213.169,75.8163,-0.041792
213.280,75.8369,-0.041792
213.390,75.8486,-0.051227
213.498,75.8515,-0.051227
213.607,75.8515,-0.057156
213.716,75.8515,-0.057156
213.826,75.8515,-0.057156
213.935,75.8515,-0.056816
