Elapsed Time (s),Position (mm),Force (N)
-0.010,78.1515,-0.028663
0.101,78.1515,-0.028663
0.209,78.1515,-0.026627
0.317,78.1515,-0.026627
0.426,78.1515,-0.025090
0.536,78.1515,-0.025090
0.645,78.1515,-0.025090
0.755,78.1515,-0.023809
0.864,78.1515,-0.023809
0.971,78.1515,-0.022791
1.082,78.1515,-0.022791
1.190,78.1515,-0.021961
1.300,78.1515,-0.021961
1.410,78.1515,-0.021961
1.518,78.1515,-0.021217
1.627,78.1515,-0.021217
1.737,78.1515,-0.020566
1.847,78.1515,-0.020566
1.956,78.1515,-0.019972
2.066,78.1515,-0.019972
2.176,78.1515,-0.019972
2.283,78.1515,-0.019435
2.393,78.1515,-0.019435
2.501,78.1515,-0.018973
2.611,78.1515,-0.018973
2.720,78.1515,-0.018559
2.829,78.1515,-0.018559
2.939,78.1515,-0.018172
3.049,78.1515,-0.018172
3.159,78.1515,-0.018172
3.270,78.1515,-0.017786
3.378,78.1515,-0.017786
3.489,78.1515,-0.017550
3.598,78.1515,-0.017550
3.709,78.1515,-0.017937
3.818,78.1515,-0.017937
3.929,78.1515,-0.018568
4.038,78.1514,-0.018568
4.147,78.1456,-0.018568
4.257,78.1305,-0.018530
4.365,78.1093,-0.018530
4.474,78.0875,-0.010896
4.584,78.0657,-0.010896
4.693,78.0439,0.009699
4.801,78.0222,0.009699
4.911,78.0003,0.009699
5.018,77.9787,0.038041
5.129,77.9567,0.038041
5.240,77.9345,0.070474
5.348,77.9126,0.070474
5.458,77.8908,0.107148
5.566,77.8691,0.107148
5.674,77.8477,0.107148
5.782,77.8259,0.148054
5.891,77.8040,0.148054
6.001,77.7822,0.193428
6.109,77.7605,0.193428
6.218,77.7388,0.193428
6.327,77.7171,0.243326
6.436,77.6951,0.297682
6.546,77.6733,0.297682
6.655,77.6514,0.297682
6.764,77.6295,0.356827
6.872,77.6078,0.356827
6.981,77.5862,0.420872
7.089,77.5645,0.420872
7.198,77.5428,0.489084
7.309,77.5206,0.489084
7.417,77.4991,0.489084
7.525,77.4773,0.561198
7.633,77.4557,0.561198
7.741,77.4342,0.637562
7.851,77.4122,0.637562
7.960,77.3905,0.718602
8.069,77.3687,0.718602
8.179,77.3465,0.718602
8.288,77.3248,0.804270
8.397,77.3031,0.804270
8.505,77.2815,0.893990
8.615,77.2594,0.893990
8.723,77.2380,0.987980
8.832,77.2159,0.987980
8.941,77.1942,0.987980
9.051,77.1722,1.086306
9.160,77.1505,1.086306
9.266,77.1292,1.189580
9.377,77.1070,1.189580
9.485,77.0854,1.298047
9.595,77.0636,1.298047
9.705,77.0414,1.378955
9.815,77.0193,1.378955
9.925,76.9973,1.378955
10.034,76.9755,0.706943
10.143,76.9539,0.706943
10.251,76.9321,0.008153
10.360,76.9105,0.008153
10.469,76.8886,0.006720
10.579,76.8667,0.006720
10.687,76.8448,0.006447
10.797,76.8231,0.006447
10.906,76.8013,0.006447
11.014,76.7796,0.006315
11.124,76.7576,0.006315
11.235,76.7353,0.006192
11.344,76.7137,0.006192
11.452,76.6919,0.006192
11.559,76.6705,0.006061
11.665,76.6492,0.006061
11.775,76.6274,0.005957
11.883,76.6059,0.005957
11.992,76.5839,0.005910
12.101,76.5621,0.005910
12.210,76.5403,0.005768
12.319,76.5186,0.005768
12.428,76.4967,0.005768
12.537,76.4751,0.005665
12.646,76.4533,0.005665
12.754,76.4317,0.005514
12.863,76.4098,0.005514
12.971,76.3880,0.005391
13.081,76.3663,0.005391
13.188,76.3449,0.005391
13.298,76.3228,0.005391
13.409,76.3007,0.005391
13.519,76.2786,0.005316
13.630,76.2564,0.005316
13.738,76.2344,0.005269
13.848,76.2129,0.005269
13.958,76.1907,0.005137
14.069,76.1685,0.005137
14.180,76.1465,0.005137
14.288,76.1248,0.005043
14.398,76.1030,0.005043
14.507,76.0811,0.004958
14.616,76.0591,0.004958
14.725,76.0375,0.004892
14.834,76.0156,0.004892
14.943,75.9940,0.004854
15.053,75.9719,0.004854
15.160,75.9505,0.004854
15.269,75.9286,0.004750
15.378,75.9069,0.004750
15.487,75.8852,0.004713
15.596,75.8632,0.004713
15.705,75.8414,0.004713
15.814,75.8197,0.004666
15.925,75.7974,0.004666
16.035,75.7755,0.004600
16.143,75.7538,0.004600
16.251,75.7322,0.004543
16.361,75.7102,0.004543
16.468,75.6887,0.004458
16.578,75.6668,0.004458
16.688,75.6449,0.004449
16.797,75.6232,0.004449
16.907,75.6011,0.004449
17.017,75.5789,0.004430
17.127,75.5571,0.004430
17.237,75.5350,0.004392
17.347,75.5130,0.004392
17.455,75.4912,0.004355
17.564,75.4696,0.004355
17.675,75.4475,0.004355
17.784,75.4256,0.004317
17.893,75.4036,0.004317
18.003,75.3819,0.004279
18.113,75.3597,0.004279
18.223,75.3379,0.004204
18.332,75.3161,0.004204
18.440,75.2944,0.004204
18.547,75.2730,0.004223
18.657,75.2511,0.004223
18.764,75.2295,0.004270
18.873,75.2078,0.004270
18.984,75.1857,0.004232
19.094,75.1638,0.004232
19.201,75.1423,0.004204
19.311,75.1207,0.004204
19.420,75.1067,0.004204
19.530,75.1015,0.004138
19.639,75.1015,0.004138
19.748,75.1052,0.004034
19.857,75.1180,0.004034
19.966,75.1386,0.003893
20.074,75.1604,0.003893
20.184,75.1823,0.003817
20.293,75.2041,0.003817
20.401,75.2257,0.003817
20.511,75.2475,0.003827
20.619,75.2693,0.003827
20.729,75.2912,0.003780
20.837,75.3130,0.003780
20.948,75.3349,0.003798
21.056,75.3566,0.003798
21.164,75.3782,0.003798
21.273,75.4000,0.003742
21.383,75.4219,0.003742
21.491,75.4436,0.003676
21.599,75.4653,0.003676
21.709,75.4872,0.003666
21.818,75.5092,0.003666
21.930,75.5314,0.003619
22.040,75.5533,0.003619
22.147,75.5748,0.003619
22.256,75.5966,0.003591
22.366,75.6187,0.003591
22.475,75.6404,0.003525
22.584,75.6624,0.003525
22.695,75.6843,0.003431
22.805,75.7063,0.003431
22.914,75.7282,0.003431
23.023,75.7500,0.003450
23.131,75.7716,0.003450
23.240,75.7935,0.003450
23.349,75.8152,0.003450
23.458,75.8371,0.003440
23.567,75.8588,0.003440
23.677,75.8808,0.003440
23.784,75.9023,0.003393
23.894,75.9243,0.003393
24.003,75.9461,0.003337
24.114,75.9682,0.003337
24.222,75.9898,0.003346
24.331,76.0115,0.003346
24.440,76.0336,0.003365
24.551,76.0555,0.003365
24.663,76.0780,0.003365
24.768,76.0990,0.003318
24.877,76.1207,0.003318
24.987,76.1428,0.003318
25.095,76.1645,0.003261
25.204,76.1862,0.003261
25.314,76.2081,0.003261
25.424,76.2300,0.003261
25.533,76.2522,0.003223
25.642,76.2738,0.003223
25.751,76.2956,0.003205
25.860,76.3175,0.003205
25.968,76.3392,0.003205
26.078,76.3609,0.003167
26.188,76.3831,0.003158
26.297,76.4049,0.003158
26.405,76.4263,0.003158
26.513,76.4482,0.003101
26.624,76.4702,0.003101
26.732,76.4918,0.003073
26.841,76.5138,0.003073
26.951,76.5356,0.003082
27.061,76.5576,0.003082
27.171,76.5796,0.003082
27.280,76.6016,0.003007
27.389,76.6232,0.003007
27.497,76.6447,0.003007
27.606,76.6666,0.003007
27.715,76.6883,0.003054
27.826,76.7106,0.003054
27.934,76.7322,0.003054
28.043,76.7540,0.003073
28.152,76.7760,0.003073
28.260,76.7974,0.003054
28.370,76.8194,0.003054
28.478,76.8410,0.003016
28.588,76.8632,0.003016
28.697,76.8846,0.003035
28.808,76.9069,0.003035
28.918,76.9290,0.003035
29.027,76.9507,0.003016
29.137,76.9727,0.003016
29.246,76.9947,0.002997
29.356,77.0164,0.002997
29.463,77.0382,0.002969
29.571,77.0596,0.002969
29.682,77.0817,0.002988
29.792,77.1039,0.002988
29.899,77.1252,0.002988
30.009,77.1472,0.003073
30.117,77.1689,0.003073
30.227,77.1907,0.003035
30.336,77.2128,0.003035
30.445,77.2344,0.003035
30.555,77.2563,0.003035
30.664,77.2783,0.003035
30.773,77.3001,0.003063
30.882,77.3219,0.003063
30.991,77.3436,0.003016
31.101,77.3654,0.003016
31.211,77.3876,0.003007
31.318,77.4090,0.003007
31.427,77.4308,0.003007
31.536,77.4525,0.002988
31.644,77.4742,0.002988
31.754,77.4962,0.002978
31.864,77.5180,0.002978
31.973,77.5399,0.002846
32.082,77.5618,0.002846
32.191,77.5837,0.002611
32.301,77.6054,0.002611
32.410,77.6273,0.002611
32.518,77.6491,0.002356
32.628,77.6709,0.002356
32.737,77.6927,0.001970
32.847,77.7146,0.001970
32.955,77.7365,0.001386
33.065,77.7582,0.001386
33.172,77.7798,0.001386
33.281,77.8016,0.000443
33.390,77.8233,0.000443
33.499,77.8452,-0.001018
33.610,77.8672,-0.001018
33.719,77.8890,-0.003233
33.829,77.9110,-0.003233
33.938,77.9329,-0.003233
34.048,77.9549,-0.006456
34.158,77.9770,-0.006456
34.265,77.9983,-0.010877
34.372,78.0198,-0.010877
34.481,78.0417,-0.016598
34.591,78.0636,-0.016598
34.701,78.0845,-0.016598
34.811,78.0976,-0.023460
34.919,78.1015,-0.023460
35.026,78.1015,-0.029615
35.135,78.1015,-0.029615
35.245,78.1015,-0.030793
35.354,78.1015,-0.030793
35.464,78.1015,-0.028304
35.572,78.1015,-0.028304
35.681,78.1015,-0.026240
35.790,78.1015,-0.026240
35.900,78.1015,-0.026240
36.010,78.1015,-0.024647
36.118,78.1015,-0.024647
36.228,78.1015,-0.023384
36.337,78.1015,-0.023384
36.446,78.1015,-0.022366
36.555,78.1015,-0.022366
36.665,78.1015,-0.022366
36.772,78.1015,-0.021546
36.880,78.1015,-0.021546
36.989,78.1015,-0.020764
37.100,78.1015,-0.020764
37.210,78.1015,-0.020048
37.319,78.1015,-0.020048
37.426,78.1015,-0.020048
37.536,78.1015,-0.019520
37.645,78.1015,-0.019520
37.756,78.1015,-0.019002
37.866,78.1015,-0.019002
37.973,78.1015,-0.018483
38.082,78.1015,-0.018483
38.191,78.1015,-0.018031
38.301,78.1015,-0.018031
38.411,78.1015,-0.018031
38.521,78.1015,-0.017644
38.629,78.1015,-0.017644
38.739,78.1015,-0.017305
38.847,78.1015,-0.017305
38.957,78.1015,-0.017305
39.067,78.1015,-0.017305
39.175,78.1015,-0.017305
39.285,78.1015,-0.017927
39.394,78.1015,-0.017927
39.504,78.0976,-0.018408
39.614,78.0849,-0.018408
39.724,78.0639,-0.016080
39.833,78.0420,-0.016080
39.941,78.0207,-0.002196
40.050,77.9987,-0.002196
40.158,77.9773,-0.002196
40.269,77.9549,0.023450
40.379,77.9330,0.023450
40.490,77.9108,0.053781
40.598,77.8891,0.053781
40.710,77.8666,0.088222
40.818,77.8452,0.088222
40.928,77.8232,0.088222
41.036,77.8016,0.126941
41.146,77.7796,0.126941
41.255,77.7577,0.170081
41.363,77.7362,0.170081
41.472,77.7143,0.217755
41.581,77.6925,0.217755
41.690,77.6707,0.269944
41.799,77.6491,0.269944
41.908,77.6271,0.269944
42.018,77.6052,0.326948
42.126,77.5836,0.326948
42.236,77.5617,0.388628
42.345,77.5398,0.388628
42.453,77.5180,0.454446
42.563,77.4960,0.454446
42.672,77.4743,0.454446
42.781,77.4526,0.524326
42.892,77.4304,0.524326
43.001,77.4084,0.598438
43.110,77.3868,0.598438
43.220,77.3648,0.677488
43.327,77.3432,0.677488
43.437,77.3214,0.760979
43.545,77.2997,0.760979
43.655,77.2779,0.760979
43.764,77.2559,0.848428
43.872,77.2344,0.848428
43.982,77.2124,0.939713
44.091,77.1906,0.939713
44.201,77.1687,1.032524
44.309,77.1470,1.032524
44.419,77.1251,1.032524
44.526,77.1035,1.059132
44.635,77.0818,1.059132
44.745,77.0596,0.526446
44.856,77.0378,0.526446
44.965,77.0157,0.010330
45.076,76.9937,0.010330
45.186,76.9717,0.006965
45.294,76.9500,0.006965
45.402,76.9284,0.006965
45.510,76.9067,0.006626
45.619,76.8851,0.006626
45.727,76.8633,0.006447
45.835,76.8417,0.006447
45.945,76.8199,0.006287
46.055,76.7977,0.006287
46.163,76.7763,0.006287
46.272,76.7544,0.006136
46.381,76.7327,0.006136
46.488,76.7112,0.006108
46.598,76.6893,0.006108
46.707,76.6676,0.006098
46.815,76.6459,0.006098
46.924,76.6238,0.006098
47.035,76.6020,0.005957
47.145,76.5799,0.005957
47.254,76.5579,0.005853
47.365,76.5360,0.005853
47.471,76.5145,0.005768
47.581,76.4926,0.005768
47.689,76.4710,0.005646
47.799,76.4489,0.005646
47.907,76.4275,0.005646
48.016,76.4056,0.005561
48.126,76.3836,0.005561
48.234,76.3621,0.005495
48.344,76.3401,0.005495
48.452,76.3184,0.005372
48.561,76.2965,0.005372
48.672,76.2744,0.005372
48.781,76.2526,0.005325
48.890,76.2308,0.005325
48.999,76.2091,0.005269
49.107,76.1872,0.005269
49.214,76.1661,0.005137
49.321,76.1447,0.005137
49.432,76.1222,0.005043
49.540,76.1007,0.005043
49.648,76.0792,0.005043
49.757,76.0575,0.004977
49.866,76.0354,0.004977
49.976,76.0137,0.004948
50.085,75.9918,0.004948
50.193,75.9703,0.004864
50.302,75.9484,0.004864
50.412,75.9263,0.004864
50.521,75.9047,0.004779
50.631,75.8827,0.004779
50.740,75.8608,0.004732
50.849,75.8390,0.004732
50.956,75.8178,0.004656
51.065,75.7959,0.004656
51.175,75.7740,0.004656
51.284,75.7520,0.004600
51.394,75.7300,0.004600
51.502,75.7085,0.004486
51.613,75.6862,0.004486
51.723,75.6643,0.004449
51.833,75.6423,0.004449
51.944,75.6202,0.004458
52.053,75.5982,0.004458
52.165,75.5759,0.004458
52.274,75.5541,0.004383
52.382,75.5324,0.004383
52.491,75.5106,0.004317
52.600,75.4890,0.004317
52.710,75.4669,0.004289
52.819,75.4449,0.004289
52.928,75.4232,0.004289
53.036,75.4014,0.004307
53.145,75.3798,0.004307
53.255,75.3579,0.004260
53.365,75.3359,0.004260
53.473,75.3142,0.004232
53.582,75.2924,0.004232
53.692,75.2704,0.004251
53.801,75.2485,0.004251
53.911,75.2268,0.004251
54.020,75.2050,0.004194
54.129,75.1830,0.004194
54.236,75.1617,0.004194
54.345,75.1398,0.004194
54.453,75.1183,0.004194
54.564,75.0961,0.004194
54.672,75.0744,0.004194
54.781,75.0587,0.004204
54.891,75.0518,0.004204
55.001,75.0515,0.004091
55.111,75.0515,0.004091
55.219,75.0515,0.004006
55.328,75.0515,0.004006
55.438,75.0515,0.004006
55.547,75.0560,0.004006
55.655,75.0694,0.004006
55.764,75.0902,0.003902
55.872,75.1122,0.003902
55.981,75.1338,0.003836
56.091,75.1556,0.003836
56.199,75.1772,0.003770
56.307,75.1990,0.003770
56.416,75.2210,0.003770
56.526,75.2427,0.003723
56.634,75.2642,0.003723
56.743,75.2862,0.003732
56.853,75.3083,0.003732
56.961,75.3297,0.003704
57.070,75.3516,0.003704
57.179,75.3735,0.003704
57.289,75.3953,0.003629
57.398,75.4170,0.003629
57.508,75.4392,0.003553
57.617,75.4608,0.003553
57.724,75.4825,0.003544
57.835,75.5045,0.003544
57.942,75.5259,0.003525
58.052,75.5479,0.003525
58.161,75.5698,0.003525
58.269,75.5912,0.003478
58.378,75.6131,0.003478
58.487,75.6348,0.003469
58.595,75.6567,0.003469
58.706,75.6787,0.003412
58.815,75.7004,0.003412
58.922,75.7219,0.003412
59.032,75.7440,0.003355
59.141,75.7657,0.003355
59.251,75.7876,0.003318
59.361,75.8096,0.003318
59.470,75.8315,0.003299
59.577,75.8529,0.003299
59.686,75.8748,0.003289
59.797,75.8969,0.003289
59.907,75.9190,0.003289
60.015,75.9405,0.003289
60.124,75.9622,0.003289
60.234,75.9843,0.003271
60.343,76.0060,0.003271
60.453,76.0281,0.003271
60.561,76.0497,0.003233
60.668,76.0710,0.003233
60.778,76.0932,0.003148
60.887,76.1148,0.003148
60.997,76.1370,0.003139
61.106,76.1586,0.003139
61.216,76.1808,0.003139
61.326,76.2026,0.003139
61.434,76.2243,0.003139
61.543,76.2461,0.003044
61.652,76.2678,0.003044
61.761,76.2898,0.003016
61.869,76.3114,0.003016
61.979,76.3332,0.003054
62.088,76.3552,0.003054
62.198,76.3771,0.003054
62.307,76.3989,0.003054
62.416,76.4206,0.003054
62.525,76.4423,0.002997
62.633,76.4643,0.002997
62.742,76.4859,0.002988
62.851,76.5077,0.002988
62.960,76.5295,0.002988
63.070,76.5515,0.002988
63.179,76.5732,0.002988
63.288,76.5950,0.002988
63.396,76.6167,0.002988
63.505,76.6384,0.002969
63.616,76.6606,0.002969
63.725,76.6825,0.002931
63.835,76.7044,0.002931
63.943,76.7260,0.002875
64.051,76.7476,0.002875
64.159,76.7691,0.002875
64.267,76.7908,0.002856
64.378,76.8130,0.002856
64.488,76.8350,0.002894
64.598,76.8571,0.002894
64.706,76.8788,0.002884
64.813,76.9001,0.002884
64.923,76.9222,0.002884
65.032,76.9439,0.002837
65.141,76.9655,0.002837
65.251,76.9877,0.002865
65.361,77.0096,0.002865
65.470,77.0315,0.002846
65.580,77.0534,0.002846
65.689,77.0752,0.002837
65.797,77.0969,0.002837
65.906,77.1185,0.002837
66.014,77.1402,0.002856
66.122,77.1619,0.002856
66.233,77.1841,0.002799
66.341,77.2057,0.002799
66.450,77.2275,0.002828
66.558,77.2492,0.002828
66.668,77.2709,0.002828
66.777,77.2929,0.002846
66.884,77.3142,0.002846
66.994,77.3363,0.002799
67.104,77.3581,0.002799
67.212,77.3798,0.002649
67.321,77.4015,0.002649
67.430,77.4234,0.002649
67.539,77.4453,0.002526
67.649,77.4671,0.002526
67.758,77.4891,0.002451
67.868,77.5111,0.002451
67.978,77.5330,0.002253
68.087,77.5548,0.002253
68.198,77.5772,0.002008
68.308,77.5991,0.002008
68.417,77.6208,0.002008
68.526,77.6426,0.001621
68.635,77.6646,0.001621
68.744,77.6862,0.000924
68.852,77.7080,0.000924
68.962,77.7298,-0.000113
69.071,77.7515,-0.000113
69.179,77.7732,-0.000113
69.288,77.7951,-0.001621
69.398,77.8170,-0.001621
69.506,77.8387,-0.003751
69.617,77.8608,-0.003751
69.725,77.8825,-0.006758
69.833,77.9040,-0.006758
69.943,77.9259,-0.010943
70.051,77.9476,-0.010943
70.161,77.9697,-0.010943
70.268,77.9911,-0.016297
70.377,78.0129,-0.016297
70.486,78.0338,-0.022923
70.594,78.0471,-0.022923
70.702,78.0515,-0.029596
70.810,78.0515,-0.029596
70.917,78.0515,-0.029596
71.027,78.0515,-0.031528
71.136,78.0515,-0.031528
71.246,78.0515,-0.029134
71.355,78.0515,-0.029134
71.463,78.0515,-0.026881
71.572,78.0515,-0.026881
71.683,78.0515,-0.026881
71.793,78.0515,-0.025185
71.901,78.0515,-0.025185
72.011,78.0515,-0.023780
72.119,78.0515,-0.023780
72.230,78.0515,-0.022696
72.338,78.0515,-0.022696
72.447,78.0515,-0.021820
72.557,78.0515,-0.021820
72.667,78.0515,-0.021820
72.776,78.0515,-0.020962
72.885,78.0515,-0.020962
72.995,78.0515,-0.020236
73.105,78.0515,-0.020236
73.213,78.0515,-0.019661
73.324,78.0515,-0.019661
73.434,78.0515,-0.019096
73.543,78.0515,-0.019096
73.648,78.0515,-0.019096
73.758,78.0515,-0.018587
73.866,78.0515,-0.018587
73.977,78.0515,-0.018153
74.088,78.0515,-0.018153
74.196,78.0515,-0.017776
74.306,78.0515,-0.017776
74.413,78.0515,-0.017776
74.521,78.0515,-0.017371
74.630,78.0515,-0.017371
74.740,78.0515,-0.017041
74.851,78.0515,-0.017041
74.961,78.0515,-0.017041
75.069,78.0515,-0.017314
75.179,78.0515,-0.017314
75.287,78.0515,-0.018050
75.397,78.0491,-0.018050
75.504,78.0382,-0.018342
75.614,78.0186,-0.018342
75.722,77.9966,-0.012555
75.831,77.9750,-0.012555
75.939,77.9534,-0.012555
76.047,77.9319,0.006117
76.156,77.9099,0.006117
76.265,77.8882,0.033922
76.375,77.8661,0.033922
76.485,77.8443,0.065695
76.595,77.8222,0.065695
76.704,77.8004,0.101728
76.814,77.7782,0.101728
76.923,77.7566,0.101728
77.032,77.7347,0.142192
77.141,77.7130,0.142192
77.249,77.6914,0.187019
77.359,77.6693,0.187019
77.467,77.6478,0.236596
77.576,77.6260,0.236596
77.684,77.6043,0.236596
77.794,77.5824,0.290802
77.903,77.5604,0.290802
78.013,77.5386,0.349362
78.122,77.5166,0.349362
78.233,77.4947,0.412239
78.343,77.4726,0.412239
78.454,77.4504,0.479216
78.565,77.4282,0.479216
78.675,77.4061,0.479216
78.785,77.3842,0.550773
78.895,77.3622,0.550773
79.002,77.3408,0.626921
79.111,77.3191,0.626921
79.221,77.2971,0.707480
79.329,77.2754,0.707480
79.438,77.2536,0.792045
79.547,77.2316,0.792045
79.657,77.2097,0.792045
79.766,77.1881,0.880295
79.875,77.1663,0.880295
79.985,77.1443,0.971420
80.094,77.1225,0.971420
80.204,77.1005,1.061423
80.314,77.0785,1.061423
80.421,77.0570,1.061423
80.530,77.0353,1.136204
80.639,77.0135,1.136204
80.748,76.9916,0.664170
80.858,76.9694,0.664170
80.967,76.9479,0.084461
81.076,76.9260,0.084461
81.186,76.9040,0.007267
81.295,76.8823,0.007267
81.406,76.8601,0.007267
81.513,76.8385,0.006815
81.622,76.8169,0.006815
81.731,76.7951,0.006541
81.842,76.7727,0.006541
81.952,76.7509,0.006334
82.063,76.7287,0.006334
82.172,76.7068,0.006334
82.283,76.6846,0.006230
82.393,76.6627,0.006230
82.502,76.6407,0.006127
82.612,76.6188,0.006127
82.720,76.5972,0.005966
82.829,76.5755,0.005966
82.938,76.5536,0.005891
83.049,76.5315,0.005891
83.160,76.5093,0.005891
83.269,76.4875,0.005815
83.378,76.4655,0.005815
83.487,76.4438,0.005684
83.597,76.4218,0.005684
83.707,76.3998,0.005608
83.817,76.3778,0.005608
83.925,76.3563,0.005608
84.035,76.3343,0.005504
84.143,76.3126,0.005504
84.252,76.2908,0.005372
84.361,76.2690,0.005372
84.470,76.2473,0.005297
84.580,76.2252,0.005297
84.690,76.2032,0.005184
84.797,76.1818,0.005184
84.908,76.1597,0.005184
85.015,76.1381,0.005118
85.124,76.1164,0.005118
85.234,76.0945,0.005052
85.343,76.0726,0.005052
85.452,76.0508,0.005005
85.560,76.0291,0.005005
85.669,76.0075,0.005005
85.778,75.9857,0.004995
85.888,75.9637,0.004995
85.995,75.9423,0.004929
86.104,75.9202,0.004929
86.214,75.8986,0.004835
86.323,75.8767,0.004835
86.431,75.8551,0.004835
86.538,75.8335,0.004694
86.646,75.8121,0.004694
86.757,75.7897,0.004628
86.866,75.7680,0.004628
86.976,75.7461,0.004628
87.086,75.7242,0.004600
87.196,75.7020,0.004505
87.303,75.6805,0.004505
87.411,75.6590,0.004505
87.520,75.6371,0.004496
87.629,75.6154,0.004496
87.738,75.5938,0.004486
87.845,75.5721,0.004486
87.954,75.5505,0.004449
88.063,75.5285,0.004449
88.172,75.5068,0.004449
88.282,75.4848,0.004439
88.390,75.4631,0.004439
88.499,75.4415,0.004421
88.607,75.4198,0.004421
88.717,75.3979,0.004364
88.827,75.3760,0.004364
88.935,75.3543,0.004317
89.044,75.3326,0.004317
89.153,75.3105,0.004317
89.264,75.2884,0.004317
89.372,75.2668,0.004317
89.481,75.2450,0.004298
89.591,75.2229,0.004298
89.701,75.2011,0.004317
89.809,75.1795,0.004317
89.916,75.1580,0.004317
90.026,75.1361,0.004289
90.134,75.1145,0.004289
90.244,75.0926,0.004260
90.353,75.0708,0.004260
90.461,75.0492,0.004279
90.571,75.0271,0.004279
90.681,75.0100,0.004279
90.791,75.0021,0.004279
90.901,75.0014,0.004279
91.010,75.0035,0.004138
91.119,75.0143,0.004138
91.228,75.0338,0.003902
91.336,75.0551,0.003902
91.444,75.0768,0.003855
91.553,75.0987,0.003855
91.662,75.1204,0.003855
91.770,75.1423,0.003864
91.879,75.1639,0.003864
91.987,75.1855,0.003808
92.097,75.2074,0.003808
92.206,75.2294,0.003761
92.315,75.2511,0.003761
92.425,75.2730,0.003761
92.535,75.2950,0.003714
92.646,75.3173,0.003714
92.756,75.3393,0.003685
92.866,75.3612,0.003685
92.976,75.3834,0.003610
93.085,75.4050,0.003610
93.195,75.4270,0.003572
93.304,75.4489,0.003572
93.413,75.4709,0.003572
93.523,75.4927,0.003572
93.633,75.5148,0.003572
93.741,75.5364,0.003535
93.849,75.5581,0.003535
93.960,75.5801,0.003440
94.068,75.6016,0.003440
94.176,75.6232,0.003440
94.285,75.6452,0.003365
94.394,75.6669,0.003365
94.504,75.6889,0.003346
94.613,75.7109,0.003346
94.721,75.7324,0.003308
94.831,75.7541,0.003308
94.939,75.7760,0.003327
95.049,75.7978,0.003327
95.158,75.8199,0.003327
95.267,75.8413,0.003318
95.374,75.8629,0.003318
95.482,75.8846,0.003261
95.592,75.9064,0.003261
95.701,75.9284,0.003205
95.810,75.9501,0.003205
95.920,75.9720,0.003205
96.030,75.9940,0.003223
96.138,76.0157,0.003223
96.247,76.0374,0.003223
96.356,76.0592,0.003223
96.466,76.0812,0.003148
96.576,76.1033,0.003148
96.685,76.1252,0.003120
96.793,76.1465,0.003120
96.903,76.1686,0.003120
97.011,76.1902,0.003139
97.120,76.2122,0.003139
97.231,76.2342,0.003129
97.340,76.2559,0.003129
97.450,76.2779,0.003063
97.559,76.2998,0.003063
97.668,76.3217,0.003063
97.776,76.3432,0.003007
97.886,76.3651,0.003007
97.994,76.3868,0.002978
98.103,76.4086,0.002978
98.213,76.4306,0.002960
98.321,76.4521,0.002960
98.428,76.4737,0.002960
98.538,76.4957,0.002950
98.648,76.5175,0.002950
98.757,76.5393,0.002950
98.867,76.5615,0.002950
98.976,76.5832,0.002941
99.085,76.6049,0.002941
99.193,76.6266,0.002894
99.303,76.6486,0.002894
99.411,76.6704,0.002894
99.521,76.6921,0.002856
99.629,76.7138,0.002856
99.738,76.7357,0.002903
99.849,76.7577,0.002903
99.961,76.7802,0.002884
100.070,76.8019,0.002884
100.180,76.8241,0.002884
100.288,76.8457,0.002846
100.397,76.8675,0.002846
100.507,76.8894,0.002846
100.617,76.9114,0.002846
100.727,76.9334,0.002790
100.837,76.9554,0.002790
100.947,76.9774,0.002733
101.056,76.9995,0.002733
101.164,77.0210,0.002733
101.274,77.0429,0.002733
101.383,77.0646,0.002733
101.492,77.0866,0.002771
101.603,77.1085,0.002771
101.712,77.1304,0.002724
101.822,77.1525,0.002724
101.930,77.1742,0.002724
102.039,77.1958,0.002667
102.148,77.2176,0.002667
102.258,77.2394,0.002639
102.366,77.2614,0.002639
102.476,77.2835,0.002649
102.585,77.3049,0.002649
102.694,77.3268,0.002649
102.802,77.3485,0.002583
102.911,77.3702,0.002583
103.019,77.3919,0.002441
103.128,77.4136,0.002441
103.236,77.4351,0.002394
103.345,77.4570,0.002394
103.454,77.4791,0.002187
103.564,77.5006,0.002187
103.671,77.5221,0.002187
103.781,77.5442,0.001876
103.891,77.5662,0.001876
104.001,77.5883,0.001527
104.111,77.6101,0.001527
104.221,77.6323,0.000952
104.330,77.6539,0.000952
104.439,77.6759,0.000047
104.549,77.6977,0.000047
104.656,77.7192,0.000047
104.765,77.7409,-0.001404
104.874,77.7629,-0.001404
104.984,77.7846,-0.003478
105.093,77.8065,-0.003478
105.201,77.8282,-0.006456
105.311,77.8501,-0.006456
105.420,77.8721,-0.006456
105.529,77.8938,-0.010641
105.638,77.9156,-0.010641
105.747,77.9374,-0.016099
105.856,77.9593,-0.016099
105.966,77.9807,-0.022715
106.075,77.9956,-0.022715
106.184,78.0013,-0.029238
106.291,78.0014,-0.029238
106.401,78.0014,-0.029238
106.511,78.0014,-0.031273
106.621,78.0014,-0.031273
106.731,78.0014,-0.029059
106.842,78.0014,-0.029059
106.950,78.0014,-0.026947
107.058,78.0014,-0.026947
107.166,78.0014,-0.026947
107.277,78.0014,-0.025411
107.386,78.0014,-0.025411
107.497,78.0014,-0.024186
107.607,78.0014,-0.024186
107.717,78.0014,-0.023215
107.826,78.0014,-0.023215
107.936,78.0014,-0.023215
108.047,78.0014,-0.022451
108.155,78.0014,-0.022451
108.263,78.0014,-0.021820
108.372,78.0014,-0.021820
108.483,78.0014,-0.021254
108.593,78.0014,-0.021254
108.702,78.0014,-0.021254
108.809,78.0014,-0.020717
108.920,78.0014,-0.020717
109.028,78.0014,-0.020246
109.139,78.0014,-0.020246
109.248,78.0014,-0.019897
109.359,78.0014,-0.019897
109.470,78.0014,-0.019897
109.580,78.0014,-0.019511
109.690,78.0014,-0.019143
109.801,78.0014,-0.019143
109.908,78.0014,-0.019143
110.018,78.0014,-0.018907
110.129,78.0014,-0.018907
110.238,78.0014,-0.018954
110.347,78.0014,-0.018954
110.457,78.0014,-0.019567
110.566,78.0014,-0.019567
110.675,78.0014,-0.019567
110.784,77.9980,-0.020180
110.892,77.9857,-0.020180
111.000,77.9656,-0.018926
111.109,77.9438,-0.018926
111.217,77.9221,-0.007107
111.328,77.9000,-0.007107
111.435,77.8787,-0.007107
111.544,77.8568,0.016768
111.653,77.8349,0.016768
111.761,77.8134,0.045817
111.871,77.7915,0.045817
111.980,77.7695,0.079023
112.089,77.7477,0.079023
112.197,77.7262,0.116555
112.305,77.7048,0.116555
112.414,77.6829,0.116555
112.523,77.6610,0.158620
112.631,77.6392,0.158620
112.741,77.6175,0.205351
112.851,77.5954,0.205351
112.961,77.5733,0.256503
113.069,77.5519,0.256503
113.180,77.5295,0.311943
113.288,77.5081,0.311943
113.396,77.4862,0.311943
113.504,77.4647,0.371681
113.615,77.4426,0.371681
113.725,77.4206,0.435821
113.834,77.3988,0.435821
113.943,77.3769,0.504627
114.053,77.3550,0.504627
114.162,77.3332,0.504627
114.271,77.3114,0.577890
114.380,77.2894,0.577890
114.487,77.2682,0.655574
114.597,77.2461,0.655574
114.707,77.2243,0.737349
114.816,77.2025,0.737349
114.924,77.1808,0.737349
115.033,77.1588,0.823544
115.144,77.1370,0.823544
115.253,77.1150,0.914255
115.362,77.0932,0.914255
115.472,77.0713,1.008678
115.580,77.0496,1.008678
115.691,77.0274,1.098531
115.798,77.0059,1.098531
115.908,76.9842,1.098531
116.013,76.9630,0.994729
116.121,76.9413,0.994729
116.230,76.9195,0.428630
116.339,76.8980,0.428630
116.447,76.8762,0.007484
116.558,76.8541,0.007484
116.667,76.8323,0.007484
116.775,76.8106,0.006730
116.884,76.7889,0.006730
116.993,76.7670,0.006485
117.102,76.7452,0.006485
117.213,76.7230,0.006315
117.321,76.7016,0.006315
117.432,76.6794,0.006315
117.540,76.6576,0.006127
117.650,76.6357,0.006127
117.760,76.6137,0.005957
117.868,76.5922,0.005957
117.979,76.5697,0.005863
118.088,76.5480,0.005863
118.198,76.5261,0.005863
118.306,76.5044,0.005749
118.415,76.4828,0.005749
118.523,76.4609,0.005561
118.633,76.4391,0.005561
118.742,76.4170,0.005438
118.851,76.3955,0.005438
118.961,76.3735,0.005429
119.068,76.3522,0.005429
119.177,76.3301,0.005363
119.286,76.3083,0.005363
119.396,76.2866,0.005363
119.505,76.2646,0.005278
119.613,76.2430,0.005278
119.722,76.2213,0.005165
119.831,76.1994,0.005165
119.941,76.1776,0.005109
120.049,76.1558,0.005109
120.158,76.1340,0.005109
120.267,76.1123,0.005061
120.377,76.0900,0.005061
120.489,76.0679,0.004939
120.598,76.0461,0.004939
120.708,76.0239,0.004854
120.815,76.0027,0.004854
120.921,75.9812,0.004854
121.033,75.9591,0.004779
121.142,75.9371,0.004779
121.251,75.9155,0.004741
121.359,75.8938,0.004741
121.468,75.8721,0.004637
121.577,75.8503,0.004637
121.686,75.8283,0.004534
121.795,75.8066,0.004534
121.904,75.7848,0.004534
122.014,75.7627,0.004600
122.123,75.7411,0.004600
122.232,75.7192,0.004590
122.342,75.6972,0.004590
122.451,75.6753,0.004590
122.558,75.6540,0.004515
122.667,75.6322,0.004515
122.776,75.6104,0.004421
122.885,75.5886,0.004421
122.994,75.5667,0.004345
123.103,75.5450,0.004345
123.212,75.5233,0.004279
123.320,75.5016,0.004279
123.430,75.4794,0.004298
123.539,75.4578,0.004298
123.647,75.4363,0.004298
123.756,75.4143,0.004355
123.864,75.3929,0.004355
123.973,75.3710,0.004232
124.082,75.3493,0.004232
124.193,75.3272,0.004194
124.301,75.3054,0.004194
124.411,75.2836,0.004194
124.519,75.2619,0.004194
124.626,75.2406,0.004194
124.734,75.2189,0.004147
124.842,75.1973,0.004147
124.951,75.1754,0.004147
125.061,75.1534,0.004147
125.171,75.1314,0.004147
125.280,75.1097,0.004109
125.390,75.0876,0.004109
125.500,75.0656,0.004100
125.611,75.0435,0.004100
125.721,75.0214,0.004081
125.831,74.9996,0.004081
125.941,74.9775,0.004081
126.050,74.9603,0.004081
126.161,74.9522,0.004081
126.271,74.9515,0.004025
126.381,74.9515,0.004025
126.489,74.9515,0.003978
126.599,74.9515,0.003978
126.708,74.9515,0.003978
126.816,74.9515,0.003949
126.924,74.9515,0.003949
127.034,74.9562,0.003921
127.143,74.9699,0.003921
127.251,74.9908,0.003827
127.359,75.0126,0.003827
127.468,75.0342,0.003666
127.578,75.0563,0.003666
127.687,75.0780,0.003657
127.797,75.0999,0.003657
127.905,75.1216,0.003657
128.014,75.1434,0.003695
128.125,75.1656,0.003695
128.235,75.1877,0.003723
128.345,75.2098,0.003723
128.454,75.2314,0.003676
128.563,75.2532,0.003676
128.672,75.2752,0.003676
128.780,75.2967,0.003582
128.891,75.3188,0.003582
128.998,75.3403,0.003544
129.104,75.3615,0.003544
129.213,75.3832,0.003487
129.322,75.4051,0.003487
129.432,75.4271,0.003487
129.541,75.4490,0.003412
129.649,75.4705,0.003412
129.757,75.4922,0.003374
129.867,75.5142,0.003374
129.977,75.5362,0.003337
130.086,75.5579,0.003337
130.196,75.5800,0.003327
130.306,75.6017,0.003327
130.414,75.6234,0.003327
130.522,75.6451,0.003327
130.633,75.6671,0.003327
130.740,75.6885,0.003327
130.850,75.7106,0.003327
130.957,75.7319,0.003318
131.067,75.7541,0.003318
131.176,75.7760,0.003318
131.286,75.7978,0.003223
131.395,75.8197,0.003223
131.505,75.8416,0.003167
131.614,75.8633,0.003167
131.723,75.8852,0.003186
131.833,75.9073,0.003186
131.941,75.9288,0.003158
132.049,75.9506,0.003158
132.158,75.9722,0.003158
132.267,75.9939,0.003073
132.376,76.0157,0.003073
132.484,76.0375,0.003101
132.593,76.0592,0.003101
132.700,76.0807,0.003139
132.811,76.1028,0.003139
132.920,76.1245,0.003139
133.029,76.1465,0.003044
133.138,76.1681,0.003044
133.247,76.1900,0.002960
133.356,76.2118,0.002960
133.467,76.2341,0.002997
133.577,76.2559,0.002997
133.685,76.2776,0.002997
133.794,76.2995,0.003007
133.903,76.3213,0.003007
134.011,76.3430,0.002912
134.120,76.3645,0.002912
134.229,76.3865,0.002846
134.340,76.4085,0.002846
134.448,76.4302,0.002828
134.555,76.4518,0.002828
134.663,76.4731,0.002828
134.771,76.4947,0.002837
134.880,76.5166,0.002837
134.987,76.5381,0.002865
135.097,76.5600,0.002865
135.206,76.5817,0.002865
135.314,76.6033,0.002828
135.423,76.6253,0.002828
135.531,76.6467,0.002846
135.642,76.6689,0.002846
135.752,76.6911,0.002818
135.861,76.7127,0.002818
135.971,76.7349,0.002771
136.080,76.7566,0.002771
136.189,76.7783,0.002752
136.299,76.8003,0.002752
136.409,76.8223,0.002752
136.517,76.8439,0.002715
136.627,76.8660,0.002715
136.736,76.8877,0.002705
136.846,76.9099,0.002705
136.957,76.9319,0.002677
137.065,76.9536,0.002677
137.175,76.9756,0.002677
137.285,76.9976,0.002667
137.394,77.0193,0.002667
137.501,77.0410,0.002630
137.610,77.0626,0.002630
137.719,77.0843,0.002677
137.827,77.1061,0.002677
137.936,77.1278,0.002677
138.047,77.1500,0.002649
138.154,77.1714,0.002649
138.264,77.1936,0.002526
138.374,77.2153,0.002526
138.482,77.2371,0.002535
138.593,77.2590,0.002535
138.702,77.2810,0.002432
138.812,77.3029,0.002432
138.920,77.3246,0.002432
139.029,77.3463,0.002290
139.137,77.3679,0.002290
139.246,77.3898,0.002206
139.356,77.4116,0.002206
139.465,77.4335,0.001998
139.575,77.4556,0.001998
139.685,77.4777,0.001659
139.795,77.4996,0.001659
139.903,77.5212,0.001659
140.013,77.5433,0.001263
140.123,77.5651,0.001263
140.233,77.5871,0.000613
140.344,77.6094,0.000613
140.455,77.6315,-0.000368
140.563,77.6533,-0.000368
140.671,77.6746,-0.000368
140.781,77.6967,-0.001876
140.892,77.7189,-0.001876
141.001,77.7407,-0.004157
141.111,77.7628,-0.004157
141.221,77.7849,-0.007286
141.332,77.8070,-0.007286
141.443,77.8292,-0.011650
141.551,77.8508,-0.011650
141.659,77.8723,-0.011650
141.766,77.8937,-0.017343
141.874,77.9154,-0.017343
141.983,77.9358,-0.024186
142.093,77.9481,-0.024186
142.203,77.9515,-0.030708
142.311,77.9515,-0.030708
142.420,77.9515,-0.030708
142.530,77.9515,-0.032461
142.640,77.9515,-0.032461
142.748,77.9515,-0.030114
142.857,77.9515,-0.030114
142.966,77.9515,-0.027965
143.075,77.9515,-0.027965
143.184,77.9515,-0.027965
143.293,77.9515,-0.026391
143.402,77.9515,-0.026391
143.510,77.9515,-0.025138
143.620,77.9515,-0.025138
143.729,77.9515,-0.024082
143.839,77.9515,-0.024082
143.948,77.9515,-0.023205
144.059,77.9515,-0.023205
144.170,77.9515,-0.023205
144.279,77.9515,-0.022442
144.389,77.9515,-0.022442
144.499,77.9515,-0.021782
144.609,77.9515,-0.021782
144.717,77.9515,-0.021198
144.827,77.9515,-0.021198
144.937,77.9515,-0.020689
145.046,77.9515,-0.020689
145.158,77.9515,-0.020689
145.266,77.9515,-0.020246
145.376,77.9515,-0.020246
145.486,77.9515,-0.019812
145.596,77.9515,-0.019812
145.704,77.9515,-0.019360
145.813,77.9515,-0.019360
145.922,77.9515,-0.019360
146.035,77.9515,-0.019077
146.146,77.9515,-0.019077
146.254,77.9515,-0.019020
146.364,77.9515,-0.019020
146.474,77.9515,-0.019445
146.583,77.9515,-0.019445
146.692,77.9513,-0.019916
146.800,77.9453,-0.019916
146.908,77.9303,-0.019916
147.019,77.9083,-0.018191
147.128,77.8867,-0.018191
147.237,77.8648,-0.005457
147.346,77.8431,-0.005457
147.457,77.8207,-0.005457
147.564,77.7993,0.019171
147.672,77.7778,0.019171
147.783,77.7555,0.048569
147.893,77.7338,0.048569
148.002,77.7118,0.082114
148.110,77.6903,0.082114
148.218,77.6687,0.120080
148.326,77.6469,0.120080
148.436,77.6249,0.120080
148.545,77.6033,0.162777
148.655,77.5812,0.162777
148.763,77.5595,0.209809
148.873,77.5376,0.209809
148.981,77.5160,0.209809
149.090,77.4943,0.261027
149.199,77.4725,0.316533
149.308,77.4505,0.316533
149.417,77.4289,0.316533
149.527,77.4069,0.376507
149.636,77.3849,0.376507
149.748,77.3627,0.441335
149.857,77.3409,0.441335
149.967,77.3188,0.510640
150.077,77.2969,0.510640
150.187,77.2748,0.584054
150.297,77.2527,0.584054
150.406,77.2310,0.584054
150.516,77.2092,0.661465
150.623,77.1877,0.661465
150.732,77.1656,0.742835
150.844,77.1436,0.742835
150.949,77.1225,0.827183
151.058,77.1005,0.827183
151.166,77.0791,0.827183
151.276,77.0571,0.912812
151.384,77.0355,0.912812
151.494,77.0135,0.995360
151.602,76.9916,0.995360
151.710,76.9703,0.893915
151.820,76.9482,0.893915
151.930,76.9263,0.380296
152.039,76.9045,0.380296
152.149,76.8826,0.380296
152.257,76.8608,0.007239
152.364,76.8395,0.007239
152.473,76.8176,0.006692
152.584,76.7954,0.006692
152.692,76.7739,0.006447
152.800,76.7523,0.006447
152.910,76.7302,0.006447
153.021,76.7082,0.006211
153.129,76.6863,0.006211
153.239,76.6645,0.006108
153.349,76.6423,0.006108
153.457,76.6208,0.006023
153.564,76.5996,0.006023
153.675,76.5774,0.006023
153.784,76.5555,0.005872
153.893,76.5339,0.005872
154.000,76.5124,0.005721
154.109,76.4906,0.005721
154.218,76.4685,0.005627
154.329,76.4466,0.005627
154.438,76.4246,0.005533
154.549,76.4025,0.005533
154.659,76.3803,0.005533
154.766,76.3591,0.005429
154.875,76.3373,0.005429
154.985,76.3153,0.005335
155.096,76.2930,0.005335
155.206,76.2711,0.005278
155.316,76.2490,0.005278
155.426,76.2270,0.005278
155.535,76.2055,0.005212
155.643,76.1836,0.005212
155.751,76.1620,0.005118
155.860,76.1401,0.005118
155.967,76.1188,0.005024
156.077,76.0971,0.005024
156.186,76.0749,0.004967
156.297,76.0529,0.004967
156.407,76.0308,0.004967
156.517,76.0088,0.004882
156.627,75.9869,0.004882
156.736,75.9650,0.004779
156.842,75.9439,0.004779
156.952,75.9217,0.004722
157.063,75.8999,0.004722
157.172,75.8778,0.004722
157.282,75.8560,0.004675
157.391,75.8341,0.004675
157.497,75.8128,0.004581
157.607,75.7910,0.004581
157.717,75.7688,0.004562
157.826,75.7471,0.004562
157.934,75.7256,0.004562
158.044,75.7035,0.004534
158.152,75.6818,0.004534
158.262,75.6598,0.004449
158.371,75.6382,0.004449
158.480,75.6163,0.004411
158.590,75.5943,0.004411
158.697,75.5729,0.004336
158.807,75.5509,0.004336
158.916,75.5292,0.004336
159.024,75.5073,0.004260
159.133,75.4859,0.004260
159.241,75.4642,0.004260
159.351,75.4420,0.004241
159.459,75.4204,0.004232
159.568,75.3987,0.004232
159.678,75.3769,0.004232
159.786,75.3550,0.004185
159.895,75.3333,0.004185
160.004,75.3114,0.004166
160.113,75.2898,0.004166
160.222,75.2680,0.004194
160.330,75.2463,0.004194
160.440,75.2243,0.004147
160.551,75.2021,0.004147
160.661,75.1802,0.004147
160.771,75.1581,0.004081
160.881,75.1361,0.004081
160.991,75.1142,0.004119
161.101,75.0922,0.004119
161.210,75.0701,0.004157
161.319,75.0484,0.004157
161.430,75.0264,0.004147
161.541,75.0040,0.004147
161.650,74.9822,0.004147
161.760,74.9604,0.004128
161.870,74.9384,0.004128
161.977,74.9181,0.004128
162.085,74.9054,0.004128
162.194,74.9015,0.004025
162.303,74.9015,0.004025
162.412,74.9066,0.004025
162.522,74.9206,0.003940
162.632,74.9422,0.003940
162.743,74.9644,0.003855
162.853,74.9863,0.003855
162.963,75.0084,0.003704
163.073,75.0302,0.003704
163.184,75.0525,0.003704
163.293,75.0745,0.003714
163.404,75.0966,0.003714
163.513,75.1183,0.003704
163.622,75.1401,0.003704
163.731,75.1619,0.003648
163.840,75.1836,0.003648
163.948,75.2052,0.003572
164.057,75.2270,0.003572
164.165,75.2487,0.003572
164.275,75.2708,0.003525
164.386,75.2929,0.003525
164.495,75.3146,0.003535
164.602,75.3363,0.003535
164.712,75.3581,0.003516
164.821,75.3798,0.003516
164.929,75.4015,0.003478
165.039,75.4234,0.003478
165.148,75.4453,0.003478
165.256,75.4669,0.003440
165.365,75.4887,0.003440
165.474,75.5106,0.003403
165.582,75.5323,0.003403
165.695,75.5546,0.003346
165.805,75.5765,0.003346
165.913,75.5982,0.003346
166.022,75.6199,0.003327
166.131,75.6420,0.003327
166.239,75.6635,0.003318
166.348,75.6852,0.003318
166.456,75.7069,0.003327
166.565,75.7287,0.003327
166.677,75.7509,0.003327
166.785,75.7727,0.003233
166.895,75.7948,0.003233
167.003,75.8163,0.003139
167.112,75.8381,0.003139
167.222,75.8601,0.003120
167.331,75.8819,0.003120
167.440,75.9036,0.003120
167.549,75.9254,0.003110
167.657,75.9470,0.003110
167.766,75.9687,0.003120
167.876,75.9909,0.003120
167.985,76.0126,0.003092
168.094,76.0344,0.003092
168.201,76.0560,0.003054
168.311,76.0778,0.003054
168.420,76.0997,0.003054
168.528,76.1211,0.002978
168.636,76.1427,0.002978
168.746,76.1649,0.002978
168.856,76.1867,0.002978
168.964,76.2084,0.003035
169.072,76.2300,0.003035
169.181,76.2518,0.003035
169.290,76.2739,0.002978
169.400,76.2956,0.002978
169.509,76.3175,0.002922
169.619,76.3394,0.002922
169.728,76.3611,0.002931
169.836,76.3829,0.002931
169.944,76.4044,0.002903
170.053,76.4262,0.002903
170.161,76.4478,0.002903
170.271,76.4698,0.002856
170.381,76.4918,0.002856
170.492,76.5139,0.002856
170.603,76.5362,0.002856
170.711,76.5578,0.002780
170.820,76.5795,0.002780
170.929,76.6013,0.002780
171.038,76.6233,0.002743
171.146,76.6449,0.002743
171.254,76.6665,0.002724
171.363,76.6884,0.002724
171.472,76.7100,0.002715
171.584,76.7323,0.002715
171.693,76.7543,0.002715
171.802,76.7761,0.002715
171.913,76.7980,0.002715
172.019,76.8194,0.002686
172.129,76.8413,0.002686
172.239,76.8635,0.002667
172.348,76.8851,0.002667
172.456,76.9069,0.002667
172.566,76.9290,0.002677
172.675,76.9506,0.002677
172.784,76.9724,0.002686
172.892,76.9941,0.002686
173.002,77.0161,0.002592
173.111,77.0379,0.002592
173.220,77.0595,0.002526
173.328,77.0812,0.002526
173.437,77.1029,0.002535
173.545,77.1246,0.002535
173.655,77.1465,0.002535
173.763,77.1683,0.002451
173.871,77.1897,0.002451
173.981,77.2119,0.002403
174.091,77.2337,0.002403
174.200,77.2558,0.002366
174.309,77.2773,0.002366
174.418,77.2992,0.002366
174.527,77.3210,0.002243
174.636,77.3426,0.002243
174.746,77.3647,0.002045
174.855,77.3865,0.002045
174.964,77.4084,0.001810
175.073,77.4303,0.001810
175.181,77.4518,0.001499
175.291,77.4737,0.001499
175.400,77.4957,0.001499
175.509,77.5174,0.000999
175.618,77.5392,0.000999
175.726,77.5607,0.000273
175.834,77.5825,0.000273
175.944,77.6044,-0.000952
176.052,77.6260,-0.000952
176.163,77.6482,-0.000952
176.272,77.6699,-0.002790
176.380,77.6918,-0.002790
176.491,77.7137,-0.005410
176.599,77.7354,-0.005410
176.709,77.7572,-0.009161
176.817,77.7788,-0.009161
176.925,77.8006,-0.009161
177.033,77.8222,-0.014100
177.143,77.8441,-0.014100
177.251,77.8656,-0.020208
177.360,77.8862,-0.020208
177.469,77.8983,-0.020208
177.578,77.9015,-0.027390
177.686,77.9015,-0.031830
177.796,77.9015,-0.031830
177.906,77.9015,-0.031830
178.017,77.9015,-0.031019
178.126,77.9015,-0.031019
178.236,77.9015,-0.028465
178.348,77.9015,-0.028465
178.459,77.9015,-0.026570
178.569,77.9015,-0.026570
178.677,77.9015,-0.026570
178.785,77.9015,-0.025232
178.893,77.9015,-0.025232
179.004,77.9015,-0.024129
179.114,77.9015,-0.024129
179.222,77.9015,-0.023168
179.333,77.9015,-0.023168
179.443,77.9015,-0.022338
179.552,77.9015,-0.022338
179.661,77.9015,-0.022338
179.770,77.9015,-0.021650
179.878,77.9015,-0.021650
179.987,77.9015,-0.021019
180.097,77.9015,-0.021019
180.207,77.9015,-0.021019
180.316,77.9015,-0.020415
180.424,77.9015,-0.020415
180.533,77.9015,-0.019925
180.644,77.9015,-0.019925
180.751,77.9015,-0.019473
180.861,77.9015,-0.019473
180.969,77.9015,-0.019039
181.079,77.9015,-0.019039
181.186,77.9015,-0.018681
181.297,77.9015,-0.018681
181.408,77.9015,-0.018681
181.516,77.9015,-0.018342
181.622,77.9015,-0.018342
181.729,77.9015,-0.018314
181.835,77.9015,-0.018314
181.941,77.9015,-0.018898
182.047,77.9015,-0.018898
182.157,77.9015,-0.018898
182.266,77.8980,-0.019303
182.373,77.8860,-0.019303
182.483,77.8655,-0.017541
182.593,77.8434,-0.017541
182.702,77.8214,-0.004675
182.811,77.7998,-0.004675
182.919,77.7782,-0.004675
183.028,77.7561,0.020227
183.137,77.7344,0.020227
183.249,77.7122,0.049879
183.359,77.6903,0.049879
183.468,77.6683,0.083820
183.577,77.6464,0.083820
183.688,77.6245,0.122323
183.797,77.6025,0.122323
183.906,77.5808,0.122323
184.014,77.5592,0.165218
184.125,77.5368,0.165218
184.235,77.5149,0.212307
184.345,77.4929,0.212307
184.454,77.4712,0.263600
184.562,77.4494,0.263600
184.672,77.4276,0.263600
184.780,77.4060,0.319257
184.889,77.3842,0.319257
184.998,77.3625,0.379863
185.108,77.3403,0.379863
185.216,77.3187,0.444964
185.325,77.2969,0.444964
185.434,77.2752,0.444964
185.543,77.2533,0.514401
185.653,77.2315,0.514401
185.762,77.2096,0.588107
185.871,77.1877,0.588107
185.980,77.1659,0.666178
186.088,77.1444,0.666178
186.195,77.1230,0.748942
186.304,77.1012,0.748942
186.414,77.0793,0.748942
186.523,77.0574,0.835958
186.632,77.0354,0.835958
186.741,77.0137,0.927544
186.850,76.9919,0.927544
186.959,76.9703,1.023363
187.070,76.9480,1.023363
187.180,76.9260,1.023363
187.291,76.9040,1.123367
187.400,76.8821,1.123367
187.509,76.8601,1.228300
187.616,76.8387,1.228300
187.724,76.8173,1.228300
187.832,76.7956,1.338350
187.942,76.7735,1.453190
188.051,76.7515,1.453190
188.160,76.7300,1.453190
188.269,76.7081,1.572317
188.379,76.6863,1.572317
188.488,76.6646,1.695413
188.596,76.6426,1.695413
188.707,76.6207,1.146157
188.815,76.5989,1.146157
188.925,76.5770,1.146157
189.033,76.5553,0.270650
189.142,76.5334,0.270650
189.252,76.5115,0.006626
189.363,76.4895,0.006626
189.471,76.4678,0.006240
189.582,76.4456,0.006240
189.690,76.4240,0.006240
189.799,76.4023,0.005976
189.906,76.3808,0.005976
190.015,76.3591,0.005787
190.125,76.3369,0.005787
190.234,76.3153,0.005674
190.342,76.2935,0.005674
190.452,76.2714,0.005570
190.561,76.2499,0.005570
190.671,76.2279,0.005570
190.780,76.2061,0.005429
190.890,76.1839,0.005429
190.999,76.1622,0.005269
191.108,76.1405,0.005269
191.216,76.1188,0.005184
191.325,76.0971,0.005184
191.435,76.0750,0.005052
191.544,76.0533,0.005052
191.652,76.0316,0.005052
191.762,76.0095,0.004967
191.871,75.9878,0.004967
191.979,75.9661,0.004929
192.086,75.9448,0.004929
192.196,75.9227,0.004835
192.303,75.9012,0.004835
192.413,75.8795,0.004835
192.521,75.8578,0.004722
192.631,75.8359,0.004722
192.741,75.8138,0.004647
192.851,75.7917,0.004647
192.961,75.7699,0.004647
193.070,75.7481,0.004647
193.178,75.7265,0.004581
193.286,75.7048,0.004581
193.395,75.6831,0.004581
193.504,75.6614,0.004515
193.612,75.6395,0.004515
193.721,75.6178,0.004468
193.831,75.5958,0.004468
193.939,75.5741,0.004468
194.047,75.5527,0.004421
194.156,75.5306,0.004421
194.264,75.5092,0.004345
194.374,75.4872,0.004345
194.483,75.4655,0.004279
194.591,75.4438,0.004279
194.701,75.4218,0.004289
194.809,75.4002,0.004289
194.917,75.3786,0.004289
195.026,75.3569,0.004251
195.136,75.3348,0.004251
195.245,75.3131,0.004223
195.351,75.2919,0.004223
195.461,75.2698,0.004223
195.573,75.2474,0.004223
195.682,75.2257,0.004223
195.792,75.2037,0.004204
195.901,75.1816,0.004204
196.010,75.1602,0.004213
196.118,75.1384,0.004213
196.227,75.1167,0.004194
196.337,75.0948,0.004194
196.444,75.0732,0.004166
196.553,75.0515,0.004166
196.662,75.0297,0.004166
196.770,75.0080,0.004157
196.879,74.9862,0.004157
196.988,74.9646,0.004147
197.098,74.9425,0.004147
197.206,74.9209,0.004109
197.316,74.8990,0.004109
197.424,74.8772,0.004109
197.534,74.8602,0.004072
197.642,74.8521,0.004072
197.752,74.8515,0.003996
197.861,74.8515,0.003996
197.970,74.8515,0.003959
198.079,74.8515,0.003959
198.187,74.8515,0.003959
198.296,74.8536,0.003959
198.406,74.8644,0.003959
198.517,74.8840,0.003874
198.626,74.9061,0.003874
198.735,74.9276,0.003780
198.843,74.9492,0.003780
198.951,74.9712,0.003751
199.061,74.9929,0.003751
199.169,75.0147,0.003751
199.279,75.0365,0.003761
199.386,75.0579,0.003761
199.495,75.0797,0.003685
199.604,75.1016,0.003685
199.713,75.1235,0.003591
199.823,75.1453,0.003591
199.932,75.1671,0.003591
200.042,75.1892,0.003601
200.152,75.2112,0.003601
200.261,75.2330,0.003563
200.370,75.2546,0.003563
200.478,75.2763,0.003516
200.588,75.2982,0.003516
200.696,75.3199,0.003478
200.806,75.3419,0.003478
200.914,75.3636,0.003478
201.023,75.3855,0.003450
201.133,75.4072,0.003450
201.239,75.4287,0.003421
201.350,75.4508,0.003421
201.458,75.4724,0.003365
201.568,75.4943,0.003365
201.676,75.5160,0.003365
201.785,75.5377,0.003337
201.894,75.5594,0.003337
202.003,75.5814,0.003280
202.115,75.6037,0.003280
202.223,75.6253,0.003299
202.333,75.6472,0.003299
202.441,75.6689,0.003337
202.550,75.6909,0.003337
202.660,75.7127,0.003337
202.768,75.7343,0.003271
202.879,75.7566,0.003271
202.986,75.7779,0.003176
203.095,75.7999,0.003176
203.205,75.8216,0.003158
203.314,75.8436,0.003158
203.425,75.8656,0.003158
203.533,75.8873,0.003176
203.644,75.9094,0.003176
203.753,75.9312,0.003110
203.863,75.9533,0.003110
203.971,75.9749,0.003110
204.079,75.9965,0.003092
204.188,76.0183,0.003063
204.296,76.0399,0.003063
204.406,76.0618,0.003063
204.515,76.0837,0.003016
204.625,76.1059,0.003016
204.735,76.1277,0.003016
204.846,76.1499,0.003016
204.955,76.1717,0.003007
205.063,76.1933,0.003007
205.170,76.2149,0.003007
205.281,76.2367,0.003016
205.389,76.2584,0.003016
205.499,76.2804,0.002969
205.606,76.3018,0.002969
205.715,76.3238,0.002941
205.823,76.3454,0.002941
205.932,76.3672,0.002941
206.041,76.3889,0.002960
206.149,76.4106,0.002960
206.258,76.4323,0.002912
206.367,76.4542,0.002912
206.475,76.4757,0.002818
206.583,76.4974,0.002818
206.694,76.5194,0.002790
206.805,76.5418,0.002790
206.913,76.5633,0.002790
207.022,76.5851,0.002828
207.131,76.6070,0.002828
207.241,76.6289,0.002790
207.350,76.6507,0.002790
207.462,76.6729,0.002790
207.568,76.6944,0.002715
207.677,76.7162,0.002715
207.786,76.7378,0.002658
207.895,76.7596,0.002658
208.006,76.7820,0.002583
208.113,76.8034,0.002583
208.221,76.8248,0.002592
208.328,76.8463,0.002592
208.438,76.8684,0.002630
208.549,76.8904,0.002630
208.658,76.9121,0.002630
208.767,76.9340,0.002573
208.875,76.9558,0.002573
208.984,76.9774,0.002564
209.093,76.9993,0.002564
209.202,77.0210,0.002526
209.312,77.0430,0.002526
209.419,77.0646,0.002526
209.529,77.0864,0.002432
209.637,77.1082,0.002432
209.748,77.1303,0.002290
209.856,77.1520,0.002290
209.965,77.1737,0.002290
210.073,77.1953,0.002187
210.182,77.2171,0.002196
210.292,77.2392,0.002196
210.400,77.2606,0.002196
210.510,77.2827,0.002083
210.620,77.3046,0.002083
210.728,77.3263,0.001866
210.838,77.3482,0.001866
210.945,77.3697,0.001555
211.054,77.3914,0.001555
211.164,77.4134,0.001555
211.273,77.4354,0.001178
211.381,77.4569,0.001178
211.492,77.4789,0.000650
211.601,77.5009,0.000650
211.709,77.5226,-0.000170
211.820,77.5445,-0.000170
211.930,77.5665,-0.000170
212.037,77.5882,-0.001470
212.146,77.6098,-0.001470
212.255,77.6319,-0.003431
212.366,77.6538,-0.003431
212.477,77.6760,-0.006343
212.587,77.6980,-0.006343
212.695,77.7198,-0.010387
212.803,77.7412,-0.010387
212.913,77.7632,-0.010387
213.021,77.7849,-0.015693
213.130,77.8066,-0.015693
213.239,77.8284,-0.022253
213.348,77.8442,-0.022253
213.459,77.8512,-0.029143
213.566,77.8515,-0.029143
213.676,77.8515,-0.029143
213.785,77.8515,-0.031896
213.893,77.8515,-0.031896
