Elapsed Time (s),Position (mm),Force (N)
-0.021,72.6514,-0.126263
0.090,72.6514,-0.126263
0.198,72.6514,-0.132879
0.306,72.6514,-0.132879
0.416,72.6514,-0.129373
0.526,72.6514,-0.129373
0.637,72.6514,-0.125575
0.749,72.6514,-0.125575
0.855,72.6514,-0.122794
0.965,72.6514,-0.122794
1.072,72.6514,-0.122794
1.182,72.6514,-0.120579
1.291,72.6514,-0.120579
1.402,72.6514,-0.118769
1.511,72.6514,-0.118769
1.621,72.6514,-0.117224
1.730,72.6514,-0.117224
1.839,72.6514,-0.115772
1.948,72.6514,-0.115772
2.061,72.6514,-0.115772
2.169,72.6514,-0.114575
2.280,72.6514,-0.114575
2.390,72.6514,-0.113501
2.499,72.6514,-0.113501
2.608,72.6514,-0.112464
2.718,72.6514,-0.112464
2.827,72.6514,-0.112464
2.934,72.6514,-0.111568
3.044,72.6514,-0.111568
3.154,72.6514,-0.110852
3.262,72.6514,-0.110852
3.372,72.6514,-0.110079
3.481,72.6514,-0.110079
3.590,72.6514,-0.108826
3.699,72.6514,-0.108826
3.808,72.6514,-0.108826
3.917,72.6514,-0.106950
4.026,72.6514,-0.106950
4.135,72.6480,-0.105630
4.245,72.6352,-0.105630
4.354,72.6149,-0.102803
4.462,72.5933,-0.102803
4.571,72.5716,-0.102803
4.680,72.5497,-0.085300
4.790,72.5275,-0.085300
4.901,72.5055,-0.056458
5.012,72.4833,-0.056458
5.122,72.4612,-0.028135
5.230,72.4399,-0.028135
5.339,72.4178,-0.028135
5.446,72.3963,0.002752
5.556,72.3746,0.002752
5.665,72.3524,0.038531
5.774,72.3308,0.038531
5.883,72.3091,0.080512
5.992,72.2872,0.080512
6.101,72.2655,0.129203
6.209,72.2439,0.129203
6.317,72.2222,0.129203
6.427,72.2004,0.184568
6.536,72.1785,0.184568
6.646,72.1565,0.246983
6.756,72.1344,0.246983
6.865,72.1126,0.316618
6.973,72.0911,0.316618
7.082,72.0693,0.316618
7.191,72.0476,0.393105
7.300,72.0257,0.393105
7.410,72.0034,0.475936
7.520,71.9816,0.475936
7.629,71.9598,0.565043
7.738,71.9382,0.565043
7.848,71.9162,0.660033
7.957,71.8943,0.660033
8.065,71.8726,0.660033
8.176,71.8505,0.760291
8.282,71.8293,0.760291
8.390,71.8076,0.865968
8.501,71.7855,0.865968
8.611,71.7634,0.976783
8.722,71.7414,0.976783
8.831,71.7194,1.092960
8.940,71.6977,1.092960
9.050,71.6757,1.092960
9.158,71.6540,1.214529
9.267,71.6323,1.214529
9.376,71.6104,1.340650
9.485,71.5886,1.340650
9.595,71.5666,1.471767
9.703,71.5449,1.471767
9.811,71.5233,1.471767
9.922,71.5012,1.608812
10.031,71.4795,1.608812
10.140,71.4576,1.752399
10.249,71.4360,1.752399
10.358,71.4139,1.901726
10.467,71.3922,1.901726
10.577,71.3703,1.901726
10.686,71.3485,2.056971
10.795,71.3266,2.056971
10.904,71.3050,2.218824
11.012,71.2835,2.218824
11.120,71.2618,2.386700
11.229,71.2399,2.386700
11.339,71.2179,2.386700
11.449,71.1960,2.560693
11.558,71.1740,2.560693
11.667,71.1522,2.740275
11.776,71.1304,2.740275
11.884,71.1088,2.916380
11.993,71.0871,2.916380
12.102,71.0651,1.607587
12.211,71.0436,1.607587
12.321,71.0214,1.607587
12.429,70.9998,0.110485
12.541,70.9775,0.110485
12.648,70.9560,0.006796
12.756,70.9345,0.006796
12.863,70.9130,0.006296
12.974,70.8911,0.006296
13.083,70.8690,0.006079
13.191,70.8475,0.006079
13.299,70.8258,0.006079
13.409,70.8040,0.005966
13.519,70.7819,0.005966
13.629,70.7600,0.005891
13.738,70.7380,0.005891
13.846,70.7163,0.005891
13.954,70.6948,0.005853
14.064,70.6730,0.005853
14.173,70.6512,0.005853
14.282,70.6292,0.005853
14.392,70.6074,0.005825
14.499,70.5858,0.005825
14.609,70.5638,0.005815
14.718,70.5422,0.005815
14.827,70.5205,0.005815
14.936,70.4985,0.005815
15.045,70.4766,0.005815
15.154,70.4549,0.005863
15.263,70.4332,0.005863
15.373,70.4112,0.005853
15.481,70.3894,0.005853
15.591,70.3677,0.005853
15.700,70.3458,0.005844
15.808,70.3241,0.005844
15.918,70.3023,0.005825
16.025,70.2806,0.005825
16.134,70.2589,0.005806
16.244,70.2370,0.005806
16.352,70.2154,0.005844
16.460,70.1937,0.005844
16.569,70.1720,0.005844
16.679,70.1498,0.005806
16.788,70.1282,0.005806
16.896,70.1065,0.005768
17.004,70.0848,0.005768
17.113,70.0631,0.005815
17.224,70.0410,0.005815
17.334,70.0189,0.005815
17.442,69.9975,0.005872
17.552,69.9755,0.005872
17.660,69.9537,0.005881
17.769,69.9319,0.005881
17.878,69.9103,0.005881
17.987,69.8883,0.005881
18.096,69.8664,0.005910
18.207,69.8443,0.005910
18.314,69.8230,0.005910
18.424,69.8010,0.005910
18.534,69.7788,0.005910
18.643,69.7571,0.005900
18.754,69.7348,0.005900
18.865,69.7127,0.005938
18.974,69.6909,0.005938
19.082,69.6694,0.005938
19.190,69.6477,0.006013
19.299,69.6261,0.006013
19.407,69.6096,0.006042
19.515,69.6020,0.006042
19.624,69.6015,0.006042
19.733,69.6015,0.005919
19.843,69.6015,0.005834
19.952,69.6015,0.005834
20.061,69.6015,0.005834
20.168,69.6017,0.005768
20.278,69.6082,0.005768
20.387,69.6238,0.005646
20.496,69.6455,0.005646
20.604,69.6672,0.005533
20.714,69.6891,0.005533
20.823,69.7110,0.005533
20.932,69.7328,0.005429
21.041,69.7544,0.005429
21.149,69.7761,0.005354
21.258,69.7979,0.005354
21.369,69.8201,0.005297
21.478,69.8418,0.005297
21.587,69.8636,0.005297
21.697,69.8857,0.005231
21.807,69.9077,0.005231
21.918,69.9297,0.005175
22.027,69.9516,0.005175
22.138,69.9739,0.005127
22.247,69.9957,0.005127
22.358,70.0178,0.005071
22.468,70.0399,0.005071
22.578,70.0618,0.005071
22.686,70.0835,0.005014
22.795,70.1052,0.005014
22.905,70.1272,0.004939
23.014,70.1493,0.004939
23.123,70.1708,0.004873
23.232,70.1926,0.004873
23.341,70.2144,0.004873
23.450,70.2363,0.004798
23.561,70.2583,0.004798
23.670,70.2801,0.004750
23.779,70.3021,0.004750
23.888,70.3238,0.004741
23.997,70.3458,0.004741
24.105,70.3671,0.004694
24.214,70.3891,0.004694
24.323,70.4107,0.004694
24.433,70.4328,0.004618
24.541,70.4546,0.004618
24.652,70.4766,0.004534
24.759,70.4981,0.004534
24.868,70.5199,0.004496
24.977,70.5417,0.004496
25.087,70.5635,0.004515
25.196,70.5853,0.004515
25.304,70.6070,0.004515
25.413,70.6289,0.004449
25.523,70.6507,0.004449
25.632,70.6726,0.004364
25.741,70.6944,0.004364
25.848,70.7158,0.004298
25.957,70.7376,0.004298
26.067,70.7597,0.004298
26.176,70.7815,0.004213
26.286,70.8032,0.004213
26.396,70.8253,0.004100
26.505,70.8474,0.004100
26.614,70.8690,0.004034
26.723,70.8908,0.004034
26.831,70.9125,0.004034
26.941,70.9345,0.004015
27.050,70.9562,0.004015
27.158,70.9777,0.003902
27.268,70.9997,0.003902
27.377,71.0215,0.003780
27.487,71.0436,0.003780
27.594,71.0649,0.003676
27.704,71.0870,0.003676
27.813,71.1088,0.003676
27.923,71.1308,0.003638
28.032,71.1527,0.003638
28.141,71.1744,0.003525
28.251,71.1964,0.003525
28.359,71.2180,0.003365
28.470,71.2401,0.003365
28.579,71.2620,0.003289
28.691,71.2843,0.003289
28.799,71.3059,0.003289
28.908,71.3279,0.003139
29.016,71.3494,0.003139
29.124,71.3710,0.002912
29.235,71.3931,0.002912
29.342,71.4147,0.002686
29.452,71.4366,0.002686
29.562,71.4585,0.002686
29.672,71.4805,0.002469
29.780,71.5024,0.002469
29.888,71.5237,0.002168
29.996,71.5455,0.002168
30.105,71.5672,0.001810
30.215,71.5892,0.001810
30.326,71.6114,0.001810
30.434,71.6330,0.001404
30.542,71.6545,0.001404
30.652,71.6767,0.000886
30.761,71.6984,0.000886
30.869,71.7200,0.000264
30.979,71.7421,0.000264
31.089,71.7639,-0.000641
31.198,71.7858,-0.000641
31.306,71.8075,-0.000641
31.415,71.8293,-0.001715
31.526,71.8512,-0.001715
31.634,71.8729,-0.003214
31.743,71.8949,-0.003214
31.852,71.9165,-0.005269
31.963,71.9388,-0.005269
32.071,71.9604,-0.005269
32.179,71.9820,-0.008012
32.289,72.0039,-0.008012
32.398,72.0257,-0.011650
32.507,72.0476,-0.011650
32.617,72.0696,-0.016334
32.726,72.0914,-0.016334
32.834,72.1131,-0.016334
32.943,72.1346,-0.022074
33.052,72.1566,-0.022074
33.162,72.1785,-0.028729
33.272,72.2005,-0.028729
33.382,72.2227,-0.036043
33.489,72.2439,-0.036043
33.598,72.2657,-0.043602
33.708,72.2877,-0.043602
33.817,72.3094,-0.043602
33.927,72.3315,-0.051434
34.037,72.3535,-0.051434
34.146,72.3755,-0.059663
34.257,72.3974,-0.059663
34.367,72.4194,-0.068645
34.476,72.4412,-0.068645
34.582,72.4627,-0.068645
34.691,72.4844,-0.078909
34.801,72.5065,-0.078909
34.910,72.5282,-0.090955
35.019,72.5501,-0.090955
35.129,72.5718,-0.105517
35.237,72.5903,-0.105517
35.346,72.6000,-0.122144
35.454,72.6015,-0.122144
35.565,72.6015,-0.122144
35.674,72.6015,-0.130796
35.783,72.6015,-0.130796
35.890,72.6015,-0.128421
35.998,72.6015,-0.128421
36.107,72.6015,-0.124340
36.216,72.6015,-0.124340
36.325,72.6015,-0.124340
36.435,72.6015,-0.121456
36.546,72.6015,-0.121456
36.654,72.6015,-0.119184
36.765,72.6015,-0.119184
36.875,72.6015,-0.117299
36.987,72.6015,-0.117299
37.094,72.6015,-0.115687
37.204,72.6015,-0.115687
37.314,72.6015,-0.115687
37.422,72.6015,-0.114217
37.533,72.6015,-0.114217
37.644,72.6015,-0.112973
37.753,72.6015,-0.112973
37.863,72.6015,-0.111945
37.970,72.6015,-0.111945
38.079,72.6015,-0.111945
38.185,72.6015,-0.111012
38.295,72.6015,-0.111012
38.404,72.6015,-0.110108
38.512,72.6015,-0.110108
38.621,72.6015,-0.109240
38.730,72.6015,-0.109240
38.838,72.6015,-0.108534
38.949,72.6015,-0.108534
39.058,72.6015,-0.108534
39.167,72.6015,-0.107911
39.277,72.6015,-0.107911
39.387,72.6015,-0.107223
39.498,72.6015,-0.107223
39.609,72.6015,-0.106073
39.720,72.6015,-0.106073
39.830,72.6015,-0.104283
39.941,72.6015,-0.104283
40.050,72.6015,-0.104283
40.157,72.5981,-0.103020
40.266,72.5860,-0.103020
40.376,72.5652,-0.100362
40.488,72.5429,-0.100362
40.597,72.5208,-0.084027
40.708,72.4990,-0.084027
40.818,72.4771,-0.084027
40.928,72.4550,-0.056354
41.037,72.4330,-0.056354
41.146,72.4112,-0.028342
41.256,72.3894,-0.028342
41.364,72.3677,-0.028342
41.472,72.3460,0.002130
41.582,72.3241,0.002130
41.691,72.3023,0.037551
41.801,72.2805,0.037551
41.909,72.2587,0.079296
42.016,72.2373,0.079296
42.126,72.2154,0.127874
42.237,72.1932,0.127874
42.345,72.1715,0.183447
42.454,72.1496,0.183447
42.563,72.1281,0.183447
42.673,72.1060,0.246078
42.782,72.0842,0.246078
42.890,72.0626,0.315921
42.998,72.0410,0.315921
43.108,72.0188,0.392587
43.218,71.9968,0.392587
43.329,71.9749,0.392587
43.436,71.9533,0.475568
43.544,71.9317,0.475568
43.654,71.9097,0.564516
43.763,71.8880,0.564516
43.872,71.8662,0.659175
43.981,71.8442,0.659175
44.090,71.8226,0.759452
44.200,71.8005,0.759452
44.309,71.7788,0.759452
44.417,71.7569,0.864960
44.528,71.7350,0.864960
44.636,71.7133,0.864960
44.746,71.6914,0.975567
44.854,71.6697,1.084317
44.964,71.6476,1.084317
45.073,71.6259,1.084317
45.182,71.6042,1.140568
45.292,71.5822,1.140568
45.401,71.5603,1.148815
45.511,71.5385,1.148815
45.620,71.5164,1.148815
45.731,71.4944,1.116100
45.841,71.4724,0.638401
45.951,71.4504,0.638401
46.061,71.4284,0.638401
46.169,71.4069,0.103387
46.279,71.3848,0.103387
46.386,71.3633,0.008294
46.495,71.3415,0.008294
46.606,71.3194,0.007201
46.717,71.2971,0.007201
46.827,71.2753,0.007201
46.937,71.2533,0.006805
47.046,71.2314,0.006805
47.152,71.2102,0.006522
47.262,71.1882,0.006522
47.371,71.1664,0.006381
47.481,71.1442,0.006381
47.591,71.1224,0.006221
47.700,71.1007,0.006221
47.809,71.0787,0.006221
47.918,71.0570,0.006079
48.028,71.0349,0.006079
48.135,71.0135,0.006032
48.244,70.9918,0.006032
48.352,70.9702,0.005929
48.461,70.9484,0.005929
48.569,70.9266,0.005929
48.679,70.9049,0.005853
48.787,70.8832,0.005853
48.896,70.8613,0.005806
49.006,70.8393,0.005806
49.116,70.8173,0.005778
49.225,70.7956,0.005778
49.336,70.7735,0.005778
49.445,70.7515,0.005759
49.553,70.7299,0.005759
49.661,70.7084,0.005721
49.770,70.6867,0.005721
49.879,70.6650,0.005684
49.988,70.6431,0.005684
50.095,70.6214,0.005702
50.204,70.5997,0.005702
50.316,70.5774,0.005702
50.424,70.5558,0.005740
50.531,70.5345,0.005740
50.639,70.5129,0.005684
50.749,70.4910,0.005684
50.858,70.4690,0.005684
50.966,70.4473,0.005702
51.076,70.4253,0.005702
51.187,70.4033,0.005749
51.296,70.3814,0.005749
51.404,70.3599,0.005674
51.513,70.3379,0.005674
51.622,70.3162,0.005674
51.730,70.2945,0.005636
51.840,70.2727,0.005702
51.949,70.2507,0.005702
52.059,70.2288,0.005702
52.169,70.2069,0.005768
52.277,70.1852,0.005768
52.388,70.1630,0.005759
52.495,70.1415,0.005759
52.603,70.1200,0.005740
52.711,70.0985,0.005740
52.820,70.0766,0.005740
52.930,70.0546,0.005759
53.040,70.0327,0.005759
53.150,70.0107,0.005834
53.259,69.9888,0.005834
53.369,69.9670,0.005825
53.478,69.9450,0.005825
53.586,69.9232,0.005825
53.694,69.9018,0.005806
53.804,69.8798,0.005806
53.912,69.8581,0.005863
54.022,69.8362,0.005863
54.130,69.8145,0.005863
54.240,69.7926,0.005863
54.350,69.7706,0.005872
54.458,69.7490,0.005872
54.567,69.7271,0.005872
54.677,69.7051,0.005900
54.787,69.6833,0.005900
54.897,69.6611,0.005910
55.007,69.6392,0.005910
55.117,69.6173,0.005938
55.226,69.5954,0.005938
55.333,69.5742,0.005995
55.442,69.5584,0.005995
55.550,69.5517,0.005995
55.658,69.5515,0.005910
55.766,69.5515,0.005910
55.876,69.5515,0.005712
55.986,69.5515,0.005712
56.093,69.5542,0.005712
56.202,69.5657,0.005721
56.311,69.5857,0.005721
56.420,69.6075,0.005646
56.529,69.6294,0.005646
56.637,69.6509,0.005448
56.745,69.6725,0.005448
56.855,69.6945,0.005316
56.964,69.7162,0.005316
57.074,69.7384,0.005316
57.183,69.7601,0.005250
57.292,69.7819,0.005250
57.401,69.8037,0.005193
57.510,69.8254,0.005193
57.620,69.8475,0.005127
57.728,69.8690,0.005127
57.836,69.8908,0.005127
57.946,69.9128,0.005052
58.056,69.9346,0.005052
58.164,69.9564,0.004995
58.273,69.9781,0.004995
58.382,69.9999,0.005005
58.492,70.0218,0.005005
58.601,70.0436,0.004986
58.709,70.0653,0.004986
58.819,70.0871,0.004986
58.928,70.1091,0.004967
59.039,70.1313,0.004967
59.148,70.1530,0.004892
59.257,70.1749,0.004892
59.365,70.1964,0.004741
59.475,70.2186,0.004741
59.583,70.2401,0.004628
59.692,70.2620,0.004628
59.801,70.2837,0.004628
59.910,70.3054,0.004684
60.019,70.3272,0.004684
60.129,70.3492,0.004722
60.238,70.3710,0.004722
60.347,70.3929,0.004722
60.459,70.4153,0.004590
60.569,70.4375,0.004590
60.679,70.4592,0.004411
60.789,70.4812,0.004411
60.896,70.5027,0.004307
61.007,70.5247,0.004307
61.117,70.5468,0.004298
61.227,70.5688,0.004298
61.337,70.5908,0.004298
61.446,70.6127,0.004326
61.554,70.6342,0.004326
61.664,70.6562,0.004289
61.773,70.6780,0.004289
61.882,70.6997,0.004157
61.990,70.7215,0.004157
62.099,70.7433,0.004062
62.210,70.7653,0.004062
62.320,70.7875,0.004062
62.429,70.8092,0.003930
62.538,70.8310,0.003930
62.645,70.8525,0.003846
62.754,70.8742,0.003846
62.862,70.8960,0.003798
62.971,70.9177,0.003798
63.079,70.9393,0.003798
63.189,70.9611,0.003695
63.298,70.9830,0.003695
63.406,71.0047,0.003648
63.516,71.0266,0.003648
63.624,71.0482,0.003535
63.734,71.0701,0.003535
63.842,71.0918,0.003421
63.952,71.1137,0.003421
64.061,71.1358,0.003421
64.171,71.1575,0.003327
64.281,71.1797,0.003327
64.392,71.2019,0.003139
64.501,71.2234,0.003139
64.611,71.2456,0.002941
64.720,71.2675,0.002941
64.829,71.2892,0.002941
64.939,71.3111,0.002875
65.049,71.3333,0.002875
65.159,71.3554,0.002762
65.268,71.3770,0.002762
65.376,71.3986,0.002517
65.485,71.4204,0.002517
65.597,71.4428,0.002517
65.704,71.4642,0.002177
65.812,71.4859,0.002177
65.921,71.5077,0.001876
66.031,71.5295,0.001876
66.142,71.5518,0.001565
66.252,71.5738,0.001565
66.363,71.5960,0.001197
66.473,71.6180,0.001197
66.582,71.6399,0.001197
66.691,71.6616,0.000679
66.801,71.6836,0.000679
66.909,71.7051,-0.000085
67.017,71.7270,-0.000085
67.126,71.7484,-0.000961
67.237,71.7708,-0.000961
67.344,71.7922,-0.002168
67.454,71.8140,-0.002168
67.563,71.8361,-0.002168
67.671,71.8577,-0.003770
67.781,71.8795,-0.003770
67.891,71.9016,-0.003770
67.999,71.9232,-0.005853
68.109,71.9453,-0.008888
68.219,71.9671,-0.008888
68.326,71.9887,-0.008888
68.435,72.0105,-0.013026
68.546,72.0324,-0.013026
68.654,72.0541,-0.017918
68.762,72.0757,-0.017918
68.871,72.0976,-0.023818
68.980,72.1194,-0.023818
69.089,72.1412,-0.030755
69.200,72.1634,-0.030755
69.309,72.1852,-0.030755
69.419,72.2073,-0.038229
69.527,72.2288,-0.038229
69.636,72.2506,-0.046175
69.746,72.2725,-0.046175
69.852,72.2939,-0.054375
69.963,72.3160,-0.054375
70.073,72.3379,-0.054375
70.181,72.3597,-0.063028
70.290,72.3813,-0.063028
70.398,72.4029,-0.072623
70.507,72.4246,-0.072623
70.616,72.4467,-0.083518
70.725,72.4684,-0.083518
70.834,72.4901,-0.083518
70.944,72.5123,-0.096573
71.054,72.5332,-0.096573
71.162,72.5468,-0.112351
71.272,72.5515,-0.112351
71.381,72.5515,-0.125622
71.489,72.5515,-0.125622
71.597,72.5515,-0.127856
71.708,72.5515,-0.127856
71.816,72.5515,-0.127856
71.925,72.5515,-0.123529
72.034,72.5515,-0.123529
72.144,72.5515,-0.120325
72.255,72.5515,-0.120325
72.363,72.5515,-0.117997
72.472,72.5515,-0.117997
72.582,72.5515,-0.117997
72.691,72.5515,-0.116140
72.799,72.5515,-0.116140
72.908,72.5515,-0.114547
73.018,72.5515,-0.114547
73.127,72.5515,-0.114547
73.237,72.5515,-0.113190
73.346,72.5515,-0.111993
73.456,72.5515,-0.111993
73.564,72.5515,-0.111993
73.674,72.5515,-0.110946
73.784,72.5515,-0.110946
73.892,72.5515,-0.110013
74.001,72.5515,-0.110013
74.109,72.5515,-0.109156
74.220,72.5515,-0.109156
74.329,72.5515,-0.108430
74.440,72.5515,-0.108430
74.549,72.5515,-0.108430
74.658,72.5515,-0.107770
74.768,72.5515,-0.107770
74.877,72.5515,-0.107129
74.987,72.5515,-0.107129
75.096,72.5515,-0.106526
75.206,72.5515,-0.106526
75.315,72.5515,-0.106526
75.425,72.5515,-0.105744
75.535,72.5515,-0.105744
75.644,72.5515,-0.104104
75.754,72.5515,-0.104104
75.864,72.5515,-0.102435
75.974,72.5510,-0.102435
76.083,72.5435,-0.102435
76.193,72.5272,-0.101766
76.303,72.5052,-0.101766
76.410,72.4838,-0.092850
76.518,72.4622,-0.092850
76.627,72.4404,-0.070012
76.736,72.4186,-0.070012
76.844,72.3969,-0.042150
76.954,72.3750,-0.042150
77.064,72.3529,-0.042150
77.175,72.3307,-0.012922
77.284,72.3090,-0.012922
77.392,72.2873,0.020708
77.501,72.2656,0.020708
77.610,72.2438,0.060078
77.721,72.2216,0.060078
77.830,72.1996,0.060078
77.940,72.1779,0.105866
78.049,72.1561,0.105866
78.158,72.1341,0.158290
78.266,72.1126,0.158290
78.374,72.0911,0.218038
78.481,72.0694,0.218038
78.590,72.0477,0.285232
78.700,72.0259,0.285232
78.810,72.0038,0.285232
78.921,71.9816,0.359287
79.030,71.9598,0.359287
79.140,71.9377,0.439949
79.249,71.9161,0.439949
79.359,71.8940,0.526409
79.467,71.8726,0.526409
79.576,71.8507,0.526409
79.685,71.8288,0.618787
79.795,71.8066,0.618787
79.904,71.7850,0.716670
80.013,71.7633,0.716670
80.122,71.7415,0.819605
80.231,71.7197,0.819605
80.340,71.6977,0.819605
80.449,71.6761,0.928138
80.558,71.6543,0.928138
80.667,71.6323,1.041988
80.777,71.6104,1.041988
80.885,71.5888,1.161323
80.993,71.5674,1.161323
81.101,71.5455,1.174707
81.210,71.5239,1.174707
81.318,71.5021,1.174707
81.426,71.4808,0.962079
81.532,71.4593,0.962079
81.642,71.4373,0.684623
81.751,71.4158,0.684623
81.860,71.3938,0.322009
81.969,71.3720,0.322009
82.078,71.3503,0.322009
82.186,71.3285,0.040982
82.296,71.3068,0.040982
82.406,71.2846,0.008926
82.515,71.2628,0.008926
82.625,71.2407,0.007474
82.735,71.2190,0.007474
82.845,71.1969,0.006928
82.953,71.1752,0.006928
83.062,71.1536,0.006928
83.171,71.1317,0.006579
83.279,71.1101,0.006579
83.388,71.0882,0.006277
83.497,71.0663,0.006277
83.606,71.0446,0.006079
83.718,71.0221,0.006079
83.826,71.0007,0.006079
83.935,70.9787,0.005995
84.044,70.9570,0.005995
84.153,70.9352,0.005863
84.262,70.9134,0.005863
84.370,70.8917,0.005759
84.480,70.8700,0.005759
84.590,70.8478,0.005759
84.698,70.8262,0.005712
84.809,70.8040,0.005712
84.917,70.7825,0.005665
85.026,70.7607,0.005665
85.136,70.7388,0.005665
85.246,70.7168,0.005618
85.354,70.6948,0.005674
85.461,70.6736,0.005674
85.573,70.6513,0.005674
85.680,70.6299,0.005665
85.792,70.6074,0.005665
85.901,70.5857,0.005627
86.008,70.5643,0.005627
86.115,70.5427,0.005655
86.225,70.5207,0.005655
86.335,70.4988,0.005665
86.444,70.4772,0.005665
86.553,70.4554,0.005665
86.661,70.4337,0.005627
86.771,70.4117,0.005627
86.879,70.3899,0.005627
86.989,70.3680,0.005608
87.097,70.3465,0.005655
87.210,70.3239,0.005655
87.316,70.3026,0.005655
87.424,70.2809,0.005655
87.534,70.2590,0.005655
87.644,70.2371,0.005665
87.753,70.2152,0.005665
87.862,70.1935,0.005608
87.972,70.1715,0.005608
88.080,70.1499,0.005618
88.190,70.1278,0.005618
88.300,70.1056,0.005618
88.409,70.0842,0.005693
88.517,70.0623,0.005693
88.626,70.0407,0.005749
88.735,70.0187,0.005749
88.845,69.9970,0.005749
88.954,69.9751,0.005740
89.062,69.9533,0.005740
89.172,69.9316,0.005749
89.282,69.9094,0.005749
89.391,69.8877,0.005815
89.502,69.8654,0.005815
89.609,69.8440,0.005787
89.718,69.8223,0.005787
89.828,69.8004,0.005787
89.938,69.7783,0.005806
90.044,69.7570,0.005806
90.154,69.7352,0.005825
90.261,69.7136,0.005825
90.371,69.6916,0.005825
90.480,69.6699,0.005825
90.589,69.6480,0.005891
90.698,69.6264,0.005891
90.807,69.6044,0.005891
90.917,69.5826,0.005863
91.024,69.5610,0.005863
91.136,69.5387,0.005815
91.243,69.5184,0.005815
91.352,69.5055,0.005844
91.462,69.5015,0.005844
91.569,69.5015,0.005844
91.679,69.5015,0.005721
91.789,69.5015,0.005721
91.897,69.5021,0.005646
92.007,69.5099,0.005646
92.116,69.5268,0.005561
92.226,69.5486,0.005561
92.334,69.5703,0.005410
92.442,69.5919,0.005410
92.551,69.6139,0.005410
92.660,69.6354,0.005335
92.768,69.6573,0.005335
92.878,69.6791,0.005278
92.987,69.7009,0.005278
93.096,69.7228,0.005278
93.205,69.7446,0.005222
93.315,69.7667,0.005222
93.424,69.7884,0.005156
93.535,69.8104,0.005156
93.643,69.8321,0.005080
93.753,69.8541,0.005080
93.860,69.8755,0.005024
93.972,69.8979,0.005024
94.079,69.9193,0.005024
94.186,69.9408,0.004986
94.296,69.9627,0.004986
94.406,69.9847,0.004986
94.513,70.0061,0.004929
94.623,70.0281,0.004882
94.732,70.0499,0.004882
94.842,70.0719,0.004845
94.951,70.0938,0.004845
95.060,70.1158,0.004845
95.170,70.1374,0.004760
95.277,70.1588,0.004760
95.385,70.1805,0.004713
95.496,70.2026,0.004713
95.604,70.2243,0.004713
95.713,70.2461,0.004713
95.824,70.2685,0.004713
95.934,70.2903,0.004628
96.044,70.3122,0.004628
96.151,70.3338,0.004543
96.261,70.3556,0.004543
96.369,70.3772,0.004543
96.479,70.3992,0.004543
96.587,70.4208,0.004505
96.695,70.4426,0.004505
96.804,70.4643,0.004505
96.913,70.4860,0.004411
97.023,70.5081,0.004411
97.132,70.5298,0.004307
97.241,70.5516,0.004307
97.351,70.5737,0.004251
97.459,70.5953,0.004251
97.568,70.6171,0.004251
97.677,70.6389,0.004185
97.785,70.6606,0.004185
97.894,70.6824,0.004128
98.003,70.7040,0.004128
98.112,70.7260,0.004128
98.221,70.7479,0.004100
98.331,70.7696,0.004100
98.440,70.7916,0.003978
98.550,70.8134,0.003978
98.660,70.8355,0.003912
98.770,70.8574,0.003912
98.877,70.8790,0.003883
98.987,70.9010,0.003883
99.096,70.9226,0.003780
99.207,70.9449,0.003780
99.316,70.9667,0.003780
99.426,70.9887,0.003638
99.535,71.0105,0.003638
99.643,71.0322,0.003544
99.753,71.0540,0.003544
99.863,71.0761,0.003431
99.972,71.0979,0.003431
100.079,71.1194,0.003431
100.189,71.1412,0.003271
100.298,71.1632,0.003271
100.408,71.1850,0.003167
100.517,71.2069,0.003167
100.625,71.2285,0.003063
100.737,71.2507,0.003063
100.846,71.2725,0.002894
100.957,71.2950,0.002894
101.067,71.3169,0.002894
101.176,71.3389,0.002686
101.286,71.3607,0.002686
101.396,71.3826,0.002498
101.506,71.4045,0.002498
101.616,71.4267,0.002224
101.725,71.4485,0.002224
101.834,71.4702,0.001857
101.943,71.4921,0.001857
102.053,71.5141,0.001857
102.160,71.5355,0.001470
102.268,71.5572,0.001470
102.378,71.5790,0.001037
102.487,71.6008,0.001037
102.596,71.6227,0.000424
102.705,71.6445,0.000424
102.814,71.6662,0.000424
102.923,71.6880,-0.000339
103.033,71.7101,-0.000339
103.142,71.7319,-0.001254
103.253,71.7540,-0.001254
103.361,71.7758,-0.002592
103.469,71.7972,-0.002592
103.578,71.8191,-0.002592
103.686,71.8407,-0.004373
103.795,71.8625,-0.004373
103.904,71.8845,-0.006767
104.014,71.9062,-0.006767
104.125,71.9284,-0.006767
104.234,71.9502,-0.010000
104.344,71.9722,-0.014336
104.454,71.9941,-0.014336
104.561,72.0158,-0.014336
104.671,72.0376,-0.019859
104.782,72.0598,-0.019859
104.893,72.0819,-0.026344
105.002,72.1040,-0.026344
105.111,72.1256,-0.033602
105.220,72.1477,-0.033602
105.328,72.1691,-0.033602
105.439,72.1912,-0.041283
105.548,72.2131,-0.041283
105.658,72.2350,-0.049182
105.766,72.2567,-0.049182
105.874,72.2783,-0.057457
105.983,72.3000,-0.057457
106.093,72.3222,-0.066393
106.203,72.3441,-0.066393
106.311,72.3657,-0.066393
106.420,72.3874,-0.076421
106.529,72.4092,-0.076421
106.638,72.4312,-0.088118
106.746,72.4526,-0.088118
106.855,72.4745,-0.102115
106.964,72.4919,-0.102115
107.074,72.5006,-0.102115
107.186,72.5015,-0.117177
107.295,72.5015,-0.117177
107.404,72.5015,-0.123614
107.513,72.5015,-0.123614
107.622,72.5015,-0.120607
107.733,72.5015,-0.120607
107.844,72.5015,-0.117120
107.955,72.5015,-0.117120
108.064,72.5015,-0.117120
108.174,72.5015,-0.114594
108.285,72.5015,-0.114594
108.394,72.5015,-0.112530
108.502,72.5015,-0.112530
108.612,72.5015,-0.110739
108.724,72.5015,-0.110739
108.834,72.5015,-0.110739
108.942,72.5015,-0.109288
109.054,72.5015,-0.109288
109.164,72.5015,-0.108053
109.275,72.5015,-0.108053
109.387,72.5015,-0.108053
109.496,72.5015,-0.106978
109.607,72.5015,-0.105970
109.715,72.5015,-0.105970
109.824,72.5015,-0.105970
109.933,72.5015,-0.105093
110.042,72.5015,-0.105093
110.151,72.5015,-0.104339
110.262,72.5015,-0.104339
110.371,72.5015,-0.103547
110.479,72.5015,-0.103547
110.590,72.5015,-0.102888
110.702,72.5015,-0.102888
110.812,72.5015,-0.102888
110.922,72.5015,-0.101889
111.030,72.5015,-0.101889
111.142,72.5015,-0.100135
111.251,72.5015,-0.100135
111.361,72.5014,-0.098882
111.471,72.4953,-0.098882
111.580,72.4804,-0.097770
111.687,72.4590,-0.097770
111.796,72.4371,-0.097770
111.906,72.4154,-0.083896
112.014,72.3937,-0.083896
112.124,72.3716,-0.056911
112.234,72.3498,-0.056911
112.341,72.3285,-0.028012
112.451,72.3064,-0.028012
112.561,72.2843,-0.028012
112.670,72.2626,0.003987
112.779,72.2407,0.003987
112.889,72.2187,0.040916
112.998,72.1970,0.040916
113.108,72.1751,0.040916
113.216,72.1534,0.084141
113.326,72.1314,0.084141
113.436,72.1092,0.134632
113.544,72.0878,0.134632
113.653,72.0661,0.192109
113.762,72.0441,0.192109
113.872,72.0223,0.256362
113.981,72.0003,0.256362
114.090,71.9786,0.327636
114.198,71.9569,0.327636
114.308,71.9350,0.327636
114.416,71.9133,0.405405
114.527,71.8911,0.405405
114.635,71.8695,0.489452
114.744,71.8476,0.489452
114.853,71.8259,0.489452
114.962,71.8040,0.579417
115.073,71.7820,0.579417
115.184,71.7597,0.674896
115.293,71.7378,0.674896
115.403,71.7159,0.776003
115.512,71.6942,0.776003
115.620,71.6725,0.882576
115.730,71.6506,0.882576
115.840,71.6286,0.994559
115.948,71.6069,0.994559
116.059,71.5847,0.994559
116.170,71.5626,1.111792
116.280,71.5407,1.111792
116.388,71.5189,1.234963
116.497,71.4973,1.234963
116.606,71.4753,1.234963
116.715,71.4536,1.364195
116.825,71.4317,1.364195
116.934,71.4097,1.498752
117.043,71.3880,1.498752
117.151,71.3662,1.639030
117.261,71.3444,1.639030
117.371,71.3222,1.639030
117.481,71.3005,1.785011
117.590,71.2785,1.868181
117.699,71.2568,1.868181
117.809,71.2348,1.868181
117.917,71.2133,1.706780
118.027,71.1911,1.706780
118.134,71.1697,0.773571
118.244,71.1478,0.773571
118.354,71.1258,0.008671
118.463,71.1039,0.008671
118.572,71.0820,0.008671
118.681,71.0605,0.006504
118.790,71.0386,0.006504
118.898,71.0171,0.006174
119.008,70.9950,0.006174
119.116,70.9733,0.006032
119.227,70.9513,0.006032
119.336,70.9295,0.006032
119.443,70.9079,0.005910
119.551,70.8863,0.005910
119.662,70.8641,0.005825
119.770,70.8427,0.005825
119.879,70.8206,0.005778
119.988,70.7990,0.005778
120.096,70.7774,0.005740
120.206,70.7554,0.005740
120.314,70.7338,0.005740
120.423,70.7120,0.005721
120.534,70.6898,0.005721
120.642,70.6682,0.005731
120.753,70.6460,0.005731
120.861,70.6244,0.005693
120.971,70.6023,0.005693
121.081,70.5804,0.005693
121.188,70.5589,0.005655
121.296,70.5373,0.005655
121.408,70.5150,0.005665
121.517,70.4932,0.005665
121.626,70.4715,0.005665
121.734,70.4497,0.005665
121.844,70.4278,0.005636
121.954,70.4057,0.005636
122.062,70.3842,0.005636
122.171,70.3623,0.005599
122.280,70.3406,0.005599
122.390,70.3186,0.005646
122.500,70.2965,0.005646
122.609,70.2749,0.005684
122.717,70.2532,0.005684
122.827,70.2314,0.005684
122.935,70.2097,0.005693
123.044,70.1877,0.005693
123.153,70.1660,0.005712
123.262,70.1441,0.005712
123.371,70.1225,0.005665
123.480,70.1007,0.005665
123.590,70.0787,0.005665
123.700,70.0567,0.005655
123.808,70.0350,0.005655
123.916,70.0133,0.005749
124.025,69.9915,0.005749
124.135,69.9696,0.005797
124.244,69.9477,0.005797
124.354,69.9258,0.005731
124.464,69.9040,0.005731
124.573,69.8820,0.005731
124.682,69.8603,0.005721
124.792,69.8383,0.005721
124.902,69.8163,0.005759
125.011,69.7946,0.005759
125.118,69.7730,0.005759
125.226,69.7513,0.005759
125.335,69.7294,0.005759
125.445,69.7077,0.005787
125.553,69.6860,0.005787
125.662,69.6642,0.005825
125.773,69.6420,0.005825
125.882,69.6203,0.005834
125.991,69.5984,0.005834
126.102,69.5764,0.005891
126.209,69.5548,0.005891
126.319,69.5329,0.005891
126.428,69.5109,0.005881
126.537,69.4892,0.005881
126.646,69.4684,0.005910
126.754,69.4556,0.005910
126.863,69.4515,0.005881
126.972,69.4515,0.005881
127.081,69.4515,0.005881
127.189,69.4515,0.005712
127.299,69.4515,0.005712
127.408,69.4526,0.005636
127.518,69.4616,0.005636
127.627,69.4794,0.005495
127.736,69.5012,0.005495
127.846,69.5234,0.005401
127.954,69.5450,0.005401
128.063,69.5669,0.005401
128.172,69.5884,0.005325
128.280,69.6101,0.005325
128.390,69.6322,0.005212
128.499,69.6539,0.005212
128.607,69.6756,0.005175
128.715,69.6972,0.005175
128.825,69.7190,0.005175
128.933,69.7410,0.005146
129.044,69.7628,0.005146
129.154,69.7850,0.005146
129.264,69.8071,0.005146
129.373,69.8288,0.005043
129.483,69.8507,0.005043
129.591,69.8724,0.005043
129.700,69.8942,0.004911
129.807,69.9156,0.004911
129.917,69.9374,0.004854
130.027,69.9594,0.004854
130.136,69.9812,0.004854
130.245,70.0033,0.004864
130.356,70.0252,0.004873
130.465,70.0472,0.004873
130.576,70.0693,0.004873
130.685,70.0911,0.004835
130.795,70.1131,0.004835
130.906,70.1354,0.004788
131.016,70.1573,0.004788
131.126,70.1795,0.004788
131.236,70.2014,0.004694
131.346,70.2232,0.004637
131.454,70.2451,0.004637
131.563,70.2667,0.004637
131.674,70.2890,0.004609
131.785,70.3112,0.004609
131.894,70.3331,0.004571
132.003,70.3548,0.004571
132.112,70.3765,0.004515
132.221,70.3987,0.004515
132.330,70.4201,0.004515
132.438,70.4418,0.004326
132.548,70.4637,0.004326
132.657,70.4854,0.004251
132.769,70.5081,0.004251
132.877,70.5296,0.004279
132.985,70.5514,0.004279
133.093,70.5727,0.004251
133.204,70.5949,0.004251
133.312,70.6167,0.004251
133.421,70.6383,0.004175
133.530,70.6602,0.004175
133.640,70.6822,0.004053
133.749,70.7040,0.004053
133.859,70.7259,0.003968
133.967,70.7474,0.003968
134.077,70.7695,0.003968
134.188,70.7916,0.003912
134.296,70.8134,0.003912
134.404,70.8350,0.003912
134.513,70.8568,0.003836
134.624,70.8790,0.003780
134.735,70.9010,0.003780
134.842,70.9226,0.003751
134.951,70.9443,0.003751
135.058,70.9657,0.003751
135.167,70.9877,0.003591
135.277,71.0094,0.003591
135.386,71.0313,0.003469
135.496,71.0534,0.003469
135.606,71.0752,0.003459
135.713,71.0968,0.003459
135.823,71.1189,0.003459
135.934,71.1408,0.003308
136.042,71.1624,0.003308
136.149,71.1840,0.003158
136.259,71.2059,0.003158
136.369,71.2280,0.002978
136.478,71.2497,0.002978
136.588,71.2718,0.002978
136.695,71.2931,0.002762
136.803,71.3147,0.002762
136.913,71.3367,0.002545
137.022,71.3587,0.002545
137.131,71.3803,0.002281
137.241,71.4023,0.002281
137.349,71.4240,0.001951
137.458,71.4457,0.001951
137.567,71.4678,0.001951
137.676,71.4892,0.001546
137.785,71.5110,0.001546
137.894,71.5330,0.001140
138.004,71.5550,0.001140
138.113,71.5767,0.000603
138.221,71.5984,0.000603
138.331,71.6204,0.000603
138.440,71.6420,-0.000104
138.550,71.6641,-0.000104
138.660,71.6862,-0.001065
138.769,71.7079,-0.001065
138.877,71.7295,-0.002309
138.986,71.7514,-0.002309
139.096,71.7731,-0.004062
139.205,71.7949,-0.004062
139.312,71.8165,-0.004062
139.422,71.8386,-0.006419
139.531,71.8603,-0.006419
139.641,71.8824,-0.009491
139.748,71.9037,-0.009491
139.858,71.9257,-0.013639
139.967,71.9475,-0.013639
140.075,71.9693,-0.013639
140.184,71.9909,-0.018926
140.294,72.0130,-0.018926
140.404,72.0349,-0.025279
140.513,72.0567,-0.025279
140.623,72.0787,-0.032461
140.733,72.1005,-0.032461
140.842,72.1225,-0.040143
140.951,72.1442,-0.040143
141.059,72.1659,-0.040143
141.169,72.1880,-0.048183
141.279,72.2098,-0.048183
141.386,72.2311,-0.056505
141.495,72.2532,-0.056505
141.606,72.2752,-0.065327
141.716,72.2974,-0.065327
141.825,72.3191,-0.065327
141.936,72.3411,-0.075083
142.043,72.3628,-0.075083
142.152,72.3844,-0.086431
142.263,72.4066,-0.086431
142.372,72.4283,-0.086431
142.481,72.4442,-0.100060
142.590,72.4511,-0.114688
142.700,72.4515,-0.114688
142.810,72.4515,-0.114688
142.920,72.4515,-0.120739
143.029,72.4515,-0.120739
143.137,72.4515,-0.117591
143.247,72.4515,-0.117591
143.359,72.4515,-0.114179
143.468,72.4515,-0.114179
143.577,72.4515,-0.114179
143.687,72.4515,-0.111672
143.797,72.4515,-0.111672
143.906,72.4515,-0.109674
144.017,72.4515,-0.109674
144.127,72.4515,-0.108053
144.237,72.4515,-0.108053
144.346,72.4515,-0.106630
144.457,72.4515,-0.106630
144.564,72.4515,-0.106630
144.674,72.4515,-0.105414
144.783,72.4515,-0.105414
144.892,72.4515,-0.104349
145.002,72.4515,-0.104349
145.110,72.4515,-0.103350
145.220,72.4515,-0.103350
145.330,72.4515,-0.103350
145.440,72.4515,-0.102464
145.549,72.4515,-0.102464
145.658,72.4515,-0.101719
145.768,72.4515,-0.101719
145.878,72.4515,-0.101021
145.988,72.4515,-0.101021
146.098,72.4515,-0.100362
146.208,72.4515,-0.100362
146.318,72.4515,-0.100362
146.426,72.4515,-0.099259
146.535,72.4515,-0.099259
146.643,72.4515,-0.097600
146.754,72.4515,-0.097600
146.862,72.4492,-0.096573
146.972,72.4380,-0.096573
147.080,72.4185,-0.096573
147.188,72.3968,-0.093462
147.296,72.3752,-0.093462
147.404,72.3537,-0.076346
147.514,72.3317,-0.076346
147.622,72.3101,-0.076346
147.732,72.2881,-0.048098
147.841,72.2661,-0.018540
147.951,72.2443,-0.018540
148.060,72.2223,-0.018540
148.168,72.2006,0.015099
148.276,72.1790,0.015099
148.385,72.1575,0.054648
148.495,72.1355,0.054648
148.603,72.1139,0.101059
148.712,72.0921,0.101059
148.823,72.0699,0.101059
148.931,72.0483,0.154313
149.040,72.0266,0.154313
149.150,72.0044,0.213429
149.260,71.9826,0.213429
149.370,71.9605,0.276296
149.479,71.9386,0.276296
149.589,71.9166,0.276296
149.699,71.8948,0.335921
149.807,71.8732,0.335921
149.914,71.8517,0.397149
150.024,71.8297,0.397149
150.134,71.8077,0.450393
150.243,71.7860,0.450393
150.351,71.7643,0.450393
150.460,71.7425,0.474842
150.570,71.7205,0.474842
150.677,71.6989,0.477321
150.787,71.6771,0.477321
150.896,71.6553,0.470959
151.005,71.6333,0.470959
151.113,71.6120,0.465653
151.222,71.5900,0.465653
151.329,71.5686,0.465653
151.440,71.5465,0.461703
151.550,71.5246,0.461703
151.658,71.5030,0.449347
151.767,71.4810,0.449347
151.877,71.4592,0.418667
151.985,71.4374,0.418667
152.094,71.4157,0.228679
152.204,71.3938,0.228679
152.313,71.3718,0.228679
152.423,71.3499,0.035487
152.531,71.3284,0.035487
152.639,71.3068,0.010066
152.749,71.2848,0.010066
152.858,71.2629,0.008351
152.968,71.2409,0.008351
153.076,71.2192,0.008351
153.188,71.1970,0.007512
153.297,71.1749,0.007512
153.404,71.1536,0.007003
153.514,71.1317,0.007003
153.623,71.1098,0.006711
153.731,71.0884,0.006711
153.841,71.0664,0.006711
153.951,71.0443,0.006466
154.059,71.0226,0.006466
154.168,71.0008,0.006334
154.277,70.9791,0.006334
154.386,70.9573,0.006211
154.497,70.9351,0.006211
154.604,70.9137,0.006211
154.713,70.8919,0.006061
154.822,70.8700,0.006061
154.930,70.8486,0.005957
155.039,70.8268,0.005957
155.148,70.8049,0.005891
155.258,70.7829,0.005891
155.368,70.7611,0.005853
155.475,70.7395,0.005853
155.585,70.7174,0.005806
155.694,70.6958,0.005806
155.802,70.6740,0.005806
155.911,70.6523,0.005721
156.020,70.6306,0.005721
156.129,70.6088,0.005749
156.238,70.5868,0.005749
156.346,70.5654,0.005749
156.455,70.5435,0.005778
156.564,70.5216,0.005778
156.672,70.5001,0.005702
156.782,70.4782,0.005702
156.892,70.4562,0.005674
157.001,70.4342,0.005674
157.110,70.4127,0.005702
157.218,70.3910,0.005702
157.327,70.3693,0.005702
157.437,70.3472,0.005721
157.547,70.3250,0.005721
157.656,70.3033,0.005731
157.764,70.2817,0.005731
157.873,70.2599,0.005674
157.979,70.2387,0.005674
158.089,70.2167,0.005674
158.197,70.1953,0.005684
158.307,70.1732,0.005684
158.417,70.1511,0.005712
158.527,70.1292,0.005712
158.637,70.1070,0.005702
158.746,70.0854,0.005702
158.855,70.0636,0.005740
158.964,70.0416,0.005740
159.074,70.0197,0.005740
159.182,69.9981,0.005759
159.292,69.9761,0.005759
159.401,69.9544,0.005759
159.510,69.9324,0.005759
159.619,69.9108,0.005740
159.729,69.8888,0.005740
159.838,69.8670,0.005749
159.948,69.8449,0.005749
160.056,69.8232,0.005749
160.164,69.8018,0.005787
160.274,69.7797,0.005787
160.382,69.7581,0.005825
160.491,69.7361,0.005825
160.602,69.7142,0.005834
160.710,69.6925,0.005834
160.820,69.6707,0.005834
160.929,69.6487,0.005825
161.038,69.6271,0.005825
161.147,69.6053,0.005863
161.257,69.5832,0.005863
161.364,69.5618,0.005891
161.473,69.5399,0.005891
161.580,69.5185,0.005891
161.690,69.4963,0.005881
161.801,69.4745,0.005881
161.909,69.4529,0.005929
162.018,69.4309,0.005929
162.127,69.4126,0.005947
162.237,69.4029,0.005947
162.346,69.4015,0.005947
162.456,69.4015,0.005759
162.565,69.4015,0.005759
162.674,69.4017,0.005693
162.783,69.4075,0.005693
162.891,69.4222,0.005674
163.001,69.4437,0.005674
163.110,69.4655,0.005533
163.219,69.4876,0.005533
163.327,69.5091,0.005533
163.438,69.5314,0.005429
163.546,69.5530,0.005429
163.654,69.5743,0.005325
163.761,69.5959,0.005325
163.869,69.6176,0.005259
163.978,69.6395,0.005259
164.086,69.6609,0.005259
164.195,69.6827,0.005203
164.305,69.7049,0.005203
164.414,69.7265,0.005165
164.524,69.7484,0.005165
164.634,69.7705,0.005118
164.742,69.7922,0.005118
164.852,69.8140,0.005061
164.963,69.8361,0.005061
165.071,69.8579,0.005061
165.180,69.8798,0.005043
165.288,69.9013,0.005043
165.396,69.9229,0.004920
165.507,69.9450,0.004920
165.615,69.9666,0.004854
165.724,69.9884,0.004854
165.833,70.0102,0.004854
165.943,70.0324,0.004835
166.053,70.0541,0.004835
166.161,70.0758,0.004788
166.269,70.0974,0.004788
166.378,70.1195,0.004732
166.488,70.1412,0.004732
166.597,70.1630,0.004713
166.705,70.1849,0.004713
166.814,70.2067,0.004713
166.924,70.2285,0.004694
167.033,70.2502,0.004694
167.142,70.2722,0.004647
167.252,70.2940,0.004647
167.360,70.3158,0.004590
167.471,70.3379,0.004590
167.582,70.3601,0.004590
167.691,70.3818,0.004458
167.798,70.4031,0.004458
167.907,70.4251,0.004402
168.015,70.4467,0.004402
168.125,70.4686,0.004364
168.234,70.4905,0.004364
168.343,70.5122,0.004364
168.453,70.5342,0.004307
168.562,70.5562,0.004307
168.670,70.5776,0.004251
168.779,70.5995,0.004251
168.887,70.6211,0.004251
168.996,70.6428,0.004166
169.104,70.6646,0.004128
169.214,70.6864,0.004128
169.323,70.7082,0.004128
169.433,70.7302,0.004072
169.541,70.7519,0.004072
169.651,70.7737,0.003930
169.761,70.7959,0.003930
169.871,70.8179,0.003855
169.979,70.8395,0.003855
170.087,70.8612,0.003789
170.197,70.8830,0.003789
170.306,70.9047,0.003789
170.413,70.9263,0.003648
170.520,70.9475,0.003648
170.630,70.9696,0.003497
170.737,70.9910,0.003497
170.845,71.0126,0.003431
170.954,71.0344,0.003431
171.064,71.0564,0.003431
171.174,71.0785,0.003346
171.283,71.1003,0.003346
171.391,71.1220,0.003167
171.501,71.1437,0.003167
171.609,71.1655,0.003167
171.717,71.1870,0.002997
171.824,71.2084,0.002997
171.934,71.2306,0.002837
172.046,71.2527,0.002837
172.155,71.2747,0.002667
172.264,71.2965,0.002667
172.373,71.3183,0.002498
172.482,71.3400,0.002498
172.592,71.3620,0.002234
172.701,71.3838,0.002234
172.811,71.4057,0.002234
172.921,71.4277,0.001885
173.030,71.4498,0.001885
173.138,71.4711,0.001452
173.247,71.4929,0.001452
173.354,71.5144,0.000886
173.463,71.5362,0.000886
173.573,71.5583,0.000886
173.682,71.5800,0.000302
173.791,71.6017,0.000302
173.901,71.6238,-0.000575
174.011,71.6459,-0.000575
174.119,71.6673,-0.000575
174.228,71.6893,-0.001668
174.336,71.7107,-0.003082
174.444,71.7324,-0.003082
174.552,71.7540,-0.003082
174.662,71.7761,-0.005137
174.771,71.7978,-0.005137
174.881,71.8197,-0.007823
174.988,71.8413,-0.007823
175.097,71.8630,-0.011471
175.208,71.8851,-0.011471
175.318,71.9071,-0.011471
175.427,71.9290,-0.016249
175.535,71.9506,-0.016249
175.646,71.9727,-0.022159
175.756,71.9949,-0.022159
175.864,72.0163,-0.029040
175.973,72.0383,-0.029040
176.080,72.0596,-0.029040
176.190,72.0816,-0.036552
176.299,72.1034,-0.036552
176.408,72.1253,-0.044450
176.518,72.1474,-0.044450
176.626,72.1686,-0.052641
176.735,72.1906,-0.052641
176.844,72.2125,-0.061180
176.953,72.2341,-0.061180
177.063,72.2562,-0.061180
177.172,72.2780,-0.070521
177.283,72.3001,-0.070521
177.391,72.3219,-0.081124
177.499,72.3435,-0.081124
177.609,72.3656,-0.093538
177.718,72.3858,-0.093538
177.826,72.3981,-0.093538
177.935,72.4015,-0.107798
178.045,72.4015,-0.107798
178.154,72.4015,-0.115659
178.262,72.4015,-0.115659
178.372,72.4015,-0.113868
178.481,72.4015,-0.113868
178.592,72.4015,-0.113868
178.702,72.4015,-0.110268
178.811,72.4015,-0.110268
178.918,72.4015,-0.107723
179.027,72.4015,-0.107723
179.137,72.4015,-0.105772
179.244,72.4015,-0.105772
179.353,72.4015,-0.104179
179.462,72.4015,-0.104179
179.572,72.4015,-0.104179
179.683,72.4015,-0.102831
179.794,72.4015,-0.102831
179.904,72.4015,-0.101662
180.014,72.4015,-0.101662
180.125,72.4015,-0.101662
180.233,72.4015,-0.100635
180.341,72.4015,-0.099721
180.450,72.4015,-0.099721
180.560,72.4015,-0.099721
180.669,72.4015,-0.098910
180.779,72.4015,-0.098910
180.890,72.4015,-0.098118
181.000,72.4015,-0.098118
181.110,72.4015,-0.097412
181.219,72.4015,-0.097412
181.329,72.4015,-0.096789
181.439,72.4015,-0.096789
181.549,72.4015,-0.096789
181.657,72.4015,-0.096083
181.765,72.4015,-0.096083
181.875,72.4015,-0.094725
181.986,72.4015,-0.094725
182.095,72.4015,-0.093349
182.205,72.4014,-0.093349
182.314,72.3956,-0.093349
182.424,72.3808,-0.092859
182.532,72.3591,-0.092859
182.641,72.3377,-0.084951
182.750,72.3158,-0.084951
182.859,72.2940,-0.084951
182.968,72.2723,-0.062877
183.078,72.2501,-0.062877
183.186,72.2286,-0.033903
183.295,72.2068,-0.033903
183.405,72.1847,-0.002121
183.513,72.1632,-0.002121
183.623,72.1413,0.035204
183.732,72.1195,0.035204
183.840,72.0978,0.079211
183.949,72.0760,0.079211
184.058,72.0543,0.079211
184.168,72.0322,0.129873
184.277,72.0104,0.129873
184.385,71.9887,0.186991
184.494,71.9668,0.186991
184.603,71.9451,0.186991
184.712,71.9234,0.250405
184.822,71.9012,0.250405
184.930,71.8798,0.320426
185.037,71.8583,0.320426
185.146,71.8367,0.397450
185.255,71.8147,0.397450
185.364,71.7930,0.397450
185.474,71.7710,0.480592
185.584,71.7489,0.480592
185.692,71.7272,0.569426
185.802,71.7055,0.569426
185.910,71.6837,0.664038
186.019,71.6620,0.664038
186.130,71.6399,0.764098
186.239,71.6181,0.764098
186.348,71.5962,0.869710
186.457,71.5745,0.869710
186.566,71.5527,0.869710
186.676,71.5305,0.980770
186.783,71.5093,0.980770
186.894,71.4871,1.097758
187.002,71.4654,1.097758
187.111,71.4436,1.220410
187.221,71.4214,1.220410
187.330,71.3998,1.220410
187.439,71.3781,1.348709
187.549,71.3560,1.348709
187.658,71.3343,1.483125
187.766,71.3125,1.483125
187.875,71.2908,1.623243
187.984,71.2690,1.623243
188.092,71.2474,1.623243
188.202,71.2254,1.724085
188.312,71.2033,1.724085
188.420,71.1818,1.684168
188.529,71.1599,1.684168
188.640,71.1379,0.825364
188.750,71.1159,0.825364
188.859,71.0940,0.021471
188.969,71.0720,0.021471
189.080,71.0497,0.021471
189.187,71.0283,0.006796
189.297,71.0065,0.006796
189.407,70.9844,0.006315
189.515,70.9627,0.006315
189.624,70.9410,0.006127
189.732,70.9193,0.006127
189.841,70.8977,0.006004
189.952,70.8754,0.006004
190.061,70.8536,0.006004
190.169,70.8320,0.005957
190.278,70.8103,0.005957
190.387,70.7885,0.005910
190.499,70.7660,0.005910
190.608,70.7442,0.005825
190.718,70.7224,0.005825
190.828,70.7003,0.005825
190.937,70.6786,0.005806
191.046,70.6564,0.005806
191.154,70.6351,0.005731
191.263,70.6134,0.005731
191.372,70.5914,0.005665
191.480,70.5698,0.005665
191.590,70.5478,0.005684
191.699,70.5261,0.005684
191.808,70.5043,0.005684
191.915,70.4828,0.005693
192.025,70.4608,0.005693
192.136,70.4386,0.005684
192.246,70.4168,0.005684
192.354,70.3951,0.005655
192.464,70.3731,0.005655
192.572,70.3513,0.005655
192.683,70.3292,0.005655
192.792,70.3075,0.005655
192.898,70.2861,0.005665
193.008,70.2644,0.005665
193.116,70.2427,0.005665
193.225,70.2208,0.005646
193.335,70.1988,0.005646
193.444,70.1770,0.005674
193.554,70.1551,0.005674
193.664,70.1330,0.005684
193.773,70.1112,0.005684
193.883,70.0891,0.005665
193.993,70.0673,0.005665
194.101,70.0456,0.005627
194.212,70.0235,0.005627
194.321,70.0017,0.005627
194.431,69.9795,0.005674
194.542,69.9577,0.005674
194.651,69.9356,0.005702
194.762,69.9135,0.005702
194.872,69.8915,0.005693
194.980,69.8698,0.005693
195.089,69.8481,0.005759
195.199,69.8259,0.005759
195.309,69.8040,0.005759
195.417,69.7824,0.005759
195.524,69.7611,0.005759
195.635,69.7390,0.005768
195.744,69.7169,0.005768
195.853,69.6951,0.005797
195.963,69.6734,0.005797
196.072,69.6514,0.005797
196.179,69.6300,0.005834
196.288,69.6083,0.005834
196.397,69.5865,0.005863
196.505,69.5650,0.005863
196.614,69.5430,0.005872
196.725,69.5207,0.005872
196.834,69.4990,0.005872
196.943,69.4773,0.005844
197.052,69.4555,0.005844
197.162,69.4335,0.005863
197.270,69.4119,0.005863
197.379,69.3902,0.005881
197.488,69.3692,0.005881
197.596,69.3560,0.005834
197.705,69.3515,0.005834
197.814,69.3515,0.005834
197.923,69.3515,0.005778
198.032,69.3515,0.005778
198.142,69.3515,0.005740
198.251,69.3515,0.005740
198.360,69.3551,0.005665
198.470,69.3679,0.005665
198.580,69.3886,0.005665
198.690,69.4106,0.005457
198.798,69.4323,0.005457
198.907,69.4541,0.005401
199.014,69.4757,0.005401
199.125,69.4976,0.005448
199.234,69.5195,0.005448
199.343,69.5416,0.005335
199.453,69.5633,0.005335
199.561,69.5850,0.005335
199.669,69.6065,0.005259
199.778,69.6282,0.005259
199.886,69.6500,0.005165
199.995,69.6718,0.005165
200.104,69.6936,0.005165
200.213,69.7154,0.005071
200.323,69.7373,0.005071
200.432,69.7591,0.005080
200.542,69.7812,0.005080
200.651,69.8029,0.005052
200.759,69.8246,0.005052
200.869,69.8465,0.004986
200.978,69.8682,0.004986
201.088,69.8903,0.004948
201.197,69.9120,0.004948
201.305,69.9338,0.004948
201.414,69.9555,0.004948
201.521,69.9770,0.004948
201.630,69.9987,0.004958
201.739,70.0207,0.004958
201.849,70.0426,0.004958
201.957,70.0642,0.004732
202.066,70.0860,0.004732
202.178,70.1083,0.004826
202.285,70.1298,0.004826
202.394,70.1516,0.004826
202.503,70.1732,0.004826
202.613,70.1954,0.004552
202.723,70.2172,0.004552
202.830,70.2388,0.004552
202.940,70.2606,0.004515
203.049,70.2825,0.004515
203.158,70.3044,0.004364
203.266,70.3261,0.004364
203.374,70.3476,0.004289
203.484,70.3695,0.004289
203.593,70.3914,0.004317
203.704,70.4134,0.004317
203.813,70.4354,0.004317
203.921,70.4571,0.004373
204.030,70.4787,0.004373
204.139,70.5005,0.004317
204.248,70.5223,0.004317
204.357,70.5440,0.004317
204.465,70.5659,0.004251
204.574,70.5876,0.004251
204.683,70.6094,0.004157
204.790,70.6307,0.004157
204.901,70.6528,0.004015
205.008,70.6745,0.004015
205.117,70.6961,0.003949
205.226,70.7180,0.003949
205.336,70.7397,0.003893
205.445,70.7617,0.003893
205.554,70.7836,0.003893
205.663,70.8052,0.003817
205.772,70.8273,0.003817
205.881,70.8489,0.003723
205.990,70.8708,0.003723
206.100,70.8928,0.003591
206.209,70.9145,0.003591
206.320,70.9366,0.003591
206.428,70.9583,0.003450
206.537,70.9802,0.003450
206.648,71.0022,0.003308
206.755,71.0236,0.003308
206.864,71.0456,0.003139
206.973,71.0672,0.003139
207.081,71.0890,0.003139
207.191,71.1108,0.003044
207.300,71.1327,0.003044
207.408,71.1545,0.002931
207.518,71.1762,0.002931
207.626,71.1981,0.002715
207.734,71.2195,0.002715
207.843,71.2413,0.002479
207.952,71.2632,0.002479
208.061,71.2850,0.002479
208.170,71.3068,0.002206
208.279,71.3285,0.002206
208.390,71.3508,0.001942
208.498,71.3723,0.001942
208.606,71.3940,0.001612
208.716,71.4159,0.001612
208.826,71.4379,0.001612
208.936,71.4601,0.001112
209.045,71.4817,0.001112
209.153,71.5032,0.000537
209.264,71.5254,0.000537
209.370,71.5466,-0.000170
209.478,71.5683,-0.000170
209.588,71.5902,-0.000170
209.696,71.6118,-0.001150
209.804,71.6337,-0.001150
209.915,71.6557,-0.002488
210.023,71.6772,-0.002488
210.131,71.6988,-0.004185
210.239,71.7204,-0.004185
210.348,71.7421,-0.006475
210.456,71.7639,-0.006475
210.567,71.7861,-0.006475
210.677,71.8080,-0.009670
210.784,71.8297,-0.009670
210.894,71.8515,-0.013761
211.002,71.8732,-0.013761
211.111,71.8948,-0.018964
211.220,71.9169,-0.018964
211.329,71.9387,-0.018964
211.438,71.9604,-0.025307
211.548,71.9822,-0.025307
211.658,72.0042,-0.032499
211.767,72.0261,-0.032499
211.877,72.0479,-0.040246
211.985,72.0696,-0.040246
212.094,72.0915,-0.048267
212.203,72.1134,-0.048267
212.312,72.1353,-0.048267
212.423,72.1572,-0.056571
212.532,72.1790,-0.056571
212.643,72.2014,-0.065450
212.752,72.2232,-0.065450
212.861,72.2449,-0.075337
212.970,72.2667,-0.075337
213.079,72.2884,-0.075337
213.189,72.3104,-0.086723
213.298,72.3317,-0.086723
213.408,72.3462,-0.100126
213.516,72.3516,-0.100126
213.625,72.3516,-0.111474
