Elapsed Time (s),Position (mm),Force (N)
-0.017,73.9093,-0.140666
0.014,73.9093,-0.140666
0.045,73.9093,-0.133373
0.076,73.9093,-0.133373
0.106,73.9093,-0.133373
0.137,73.9093,-0.133373
0.171,73.9093,-0.133373
0.200,73.9093,-0.133373
0.231,73.9093,-0.133373
0.262,73.9093,-0.133373
0.296,73.9093,-0.107260
0.323,73.9093,-0.107260
0.355,73.9093,-0.107260
0.386,73.9093,-0.107260
0.420,73.9093,-0.107260
0.448,73.9093,-0.107260
0.481,73.9093,-0.107260
0.510,73.9093,-0.107260
0.542,73.9093,-0.107260
0.572,73.9093,-0.096193
0.603,73.9093,-0.096193
0.635,73.9093,-0.096193
0.665,73.9093,-0.096193
0.697,73.9093,-0.096193
0.728,73.9093,-0.096193
0.759,73.9093,-0.096193
0.789,73.9093,-0.096193
0.821,73.9093,-0.096193
0.852,73.9093,-0.090264
0.884,73.9093,-0.090264
0.916,73.9093,-0.090264
0.946,73.9093,-0.090264
0.977,73.9093,-0.090264
1.008,73.9093,-0.090264
1.040,73.9093,-0.090264
1.071,73.9093,-0.086030
1.102,73.9093,-0.086030
1.134,73.9093,-0.086030
1.165,73.9093,-0.086030
1.195,73.9093,-0.086030
1.226,73.9093,-0.086030
1.258,73.9093,-0.086030
1.288,73.9093,-0.086030
1.320,73.9093,-0.082868
1.352,73.9093,-0.082868
1.383,73.9093,-0.082868
1.415,73.9093,-0.082868
1.446,73.9093,-0.082868
1.475,73.9093,-0.082868
1.506,73.9093,-0.082868
1.538,73.9093,-0.082868
1.570,73.9093,-0.080308
1.601,73.9093,-0.080308
1.633,73.9093,-0.080308
1.664,73.9093,-0.080308
1.695,73.9093,-0.080308
1.727,73.9093,-0.080308
1.758,73.9093,-0.080308
1.789,73.9093,-0.078229
1.819,73.9093,-0.078229
1.850,73.9093,-0.078229
1.881,73.9093,-0.078229
1.912,73.9093,-0.078229
1.942,73.9093,-0.078229
1.973,73.9093,-0.078229
2.005,73.9093,-0.078229
2.037,73.9093,-0.078229
2.067,73.9093,-0.076525
2.100,73.9093,-0.076525
2.130,73.9093,-0.076525
2.160,73.9093,-0.076525
2.191,73.9093,-0.076525
2.222,73.9093,-0.076525
2.253,73.9093,-0.076525
2.285,73.9093,-0.076525
2.315,73.9093,-0.074935
2.344,73.9093,-0.074935
2.375,73.9093,-0.074935
2.407,73.9093,-0.074935
2.438,73.9093,-0.074935
2.469,73.9093,-0.074935
2.499,73.9093,-0.074935
2.531,73.9093,-0.074935
2.562,73.9093,-0.073580
2.593,73.9093,-0.073580
2.624,73.9093,-0.073580
2.655,73.9093,-0.073580
2.685,73.9093,-0.073580
2.716,73.9093,-0.073580
2.747,73.9093,-0.073580
2.780,73.9093,-0.073580
2.809,73.9093,-0.072375
2.840,73.9093,-0.072375
2.871,73.9093,-0.072375
2.902,73.9093,-0.072375
2.933,73.9093,-0.072375
2.964,73.9093,-0.072375
2.999,73.9093,-0.072375
3.028,73.9093,-0.072375
3.059,73.9093,-0.071302
3.090,73.9093,-0.071302
3.121,73.9093,-0.071302
3.151,73.9093,-0.071302
3.183,73.9093,-0.071302
3.214,73.9093,-0.071302
3.245,73.9093,-0.071302
3.276,73.9093,-0.071302
3.308,73.9093,-0.070343
3.338,73.9093,-0.070343
3.369,73.9093,-0.070343
3.402,73.9093,-0.070343
3.432,73.9093,-0.070343
3.463,73.9093,-0.070343
3.494,73.9093,-0.070343
3.524,73.9093,-0.070343
3.555,73.9093,-0.069402
3.586,73.9093,-0.069402
3.618,73.9093,-0.069402
3.649,73.9093,-0.069402
3.680,73.9093,-0.069402
3.710,73.9093,-0.069402
3.741,73.9093,-0.069402
3.773,73.9093,-0.068451
3.803,73.9093,-0.068451
3.834,73.9093,-0.068451
3.866,73.9093,-0.068451
3.897,73.9093,-0.068451
3.927,73.9093,-0.068451
3.959,73.9093,-0.068451
3.989,73.9093,-0.068451
4.020,73.9093,-0.068451
4.052,73.9093,-0.068451
4.083,73.9093,-0.067651
4.113,73.9093,-0.067651
4.145,73.9093,-0.067651
4.176,73.9092,-0.067651
4.207,73.9083,-0.067651
4.238,73.9068,-0.067651
4.268,73.9046,-0.067651
4.299,73.9016,-0.067087
4.330,73.8979,-0.067087
4.361,73.8934,-0.067087
4.392,73.8883,-0.067087
4.422,73.8826,-0.067087
4.453,73.8759,-0.067087
4.484,73.8686,-0.067087
4.516,73.8603,-0.067087
4.546,73.8517,-0.045960
4.578,73.8419,-0.045960
4.611,73.8312,-0.045960
4.639,73.8210,-0.045960
4.671,73.8091,-0.045960
4.701,73.7970,-0.045960
4.733,73.7835,-0.045960
4.764,73.7696,-0.045960
4.796,73.7546,-0.045960
4.824,73.7405,-0.023347
4.856,73.7241,-0.023347
4.885,73.7082,-0.023347
4.921,73.6880,-0.023347
4.946,73.6731,-0.023347
4.977,73.6548,-0.023347
5.008,73.6349,-0.023347
5.038,73.6150,-0.023347
5.069,73.5943,-0.012130
5.100,73.5724,-0.012130
5.130,73.5504,-0.012130
5.162,73.5263,-0.012130
5.193,73.5032,-0.012130
5.223,73.4786,-0.012130
5.254,73.4526,-0.012130
5.285,73.4272,-0.012130
5.317,73.3997,0.006691
5.349,73.3708,0.006691
5.380,73.3429,0.006691
5.411,73.3134,0.006691
5.442,73.2841,0.006691
5.473,73.2532,0.006691
5.503,73.2226,0.006691
5.534,73.1903,0.006691
5.565,73.1582,0.022707
5.597,73.1236,0.022707
5.628,73.0899,0.022707
5.659,73.0544,0.022707
5.689,73.0200,0.022707
5.720,72.9841,0.022707
5.751,72.9475,0.022707
5.783,72.9084,0.022707
5.813,72.8701,0.032946
5.846,72.8293,0.032946
5.876,72.7906,0.032946
5.906,72.7500,0.032946
5.938,72.7079,0.032946
5.969,72.6650,0.032946
6.000,72.6232,0.032946
6.032,72.5769,0.032946
6.063,72.5335,0.038987
6.093,72.4886,0.038987
6.124,72.4440,0.038987
6.157,72.3950,0.038987
6.186,72.3509,0.038987
6.217,72.3034,0.038987
6.248,72.2574,0.038987
6.280,72.2097,0.038987
6.311,72.1635,0.043909
6.344,72.1114,0.043909
6.374,72.0698,0.043909
6.405,72.0228,0.043909
6.436,71.9760,0.043909
6.469,71.9259,0.043909
6.497,71.8839,0.043909
6.528,71.8382,0.043909
6.559,71.7906,0.047391
6.592,71.7414,0.047391
6.621,71.6981,0.047391
6.652,71.6531,0.047391
6.683,71.6053,0.047391
6.713,71.5609,0.047391
6.745,71.5127,0.047391
6.775,71.4671,0.047391
6.806,71.4211,0.047391
6.835,71.3775,0.048953
6.868,71.3276,0.048953
6.899,71.2801,0.048953
6.930,71.2337,0.048953
6.962,71.1868,0.048953
6.993,71.1407,0.048953
7.023,71.0956,0.048953
7.055,71.0472,0.040578
7.085,71.0021,0.040578
7.117,70.9538,0.040578
7.148,70.9078,0.040578
7.180,70.8593,0.040578
7.211,70.8137,0.040578
7.243,70.7654,0.040578
7.273,70.7210,0.040578
7.304,70.6738,0.020477
7.336,70.6263,0.020477
7.367,70.5796,0.020477
7.397,70.5345,0.020477
7.429,70.4862,0.020477
7.459,70.4411,0.020477
7.491,70.3935,0.020477
7.522,70.3476,0.020477
7.553,70.3009,0.008940
7.584,70.2564,0.008940
7.614,70.2120,0.008940
7.645,70.1669,0.008940
7.676,70.1260,0.008940
7.707,70.0834,0.008940
7.738,70.0410,0.008940
7.770,69.9977,0.008940
7.800,69.9593,0.008940
7.831,69.9190,0.008272
7.861,69.8815,0.008272
7.892,69.8426,0.008272
7.924,69.8047,0.008272
7.955,69.7683,0.008272
7.987,69.7312,0.008272
8.019,69.6950,0.008272
8.050,69.6597,0.007933
8.081,69.6265,0.007933
8.112,69.5927,0.007933
8.143,69.5614,0.007933
8.175,69.5289,0.007933
8.205,69.4983,0.007933
8.237,69.4676,0.007933
8.268,69.4379,0.007933
8.299,69.4095,0.007876
8.330,69.3811,0.007876
8.360,69.3549,0.007876
8.391,69.3285,0.007876
8.423,69.3027,0.007876
8.453,69.2778,0.007876
8.484,69.2539,0.007876
8.514,69.2306,0.007876
8.546,69.2076,0.007876
8.577,69.1847,0.007773
8.609,69.1627,0.007773
8.640,69.1424,0.007773
8.670,69.1232,0.007773
8.701,69.1038,0.007773
8.732,69.0851,0.007773
8.763,69.0675,0.007773
8.794,69.0504,0.007773
8.825,69.0339,0.007754
8.857,69.0183,0.007754
8.888,69.0030,0.007754
8.919,68.9892,0.007754
8.949,68.9761,0.007754
8.982,68.9630,0.007754
9.012,68.9513,0.007754
9.043,68.9399,0.007754
9.074,68.9294,0.007688
9.106,68.9191,0.007688
9.136,68.9108,0.007688
9.166,68.9027,0.007688
9.199,68.8946,0.007688
9.228,68.8881,0.007688
9.260,68.8820,0.007688
9.290,68.8765,0.007528
9.324,68.8717,0.007528
9.351,68.8682,0.007528
9.382,68.8650,0.007528
9.413,68.8624,0.007528
9.444,68.8607,0.007528
9.475,68.8597,0.007528
9.506,68.8593,0.007528
9.537,68.8593,0.007528
9.569,68.8593,0.007491
9.599,68.8593,0.007491
9.630,68.8593,0.007491
9.661,68.8597,0.007491
9.692,68.8608,0.007491
9.722,68.8625,0.007491
9.753,68.8650,0.007491
9.784,68.8682,0.007491
9.815,68.8722,0.007453
9.846,68.8770,0.007453
9.878,68.8825,0.007453
9.909,68.8889,0.007453
9.940,68.8958,0.007453
9.971,68.9035,0.007453
10.003,68.9121,0.007453
10.035,68.9213,0.007453
10.065,68.9311,0.007312
10.098,68.9420,0.007312
10.127,68.9531,0.007312
10.158,68.9650,0.007312
10.190,68.9782,0.007312
10.221,68.9915,0.007312
10.253,69.0066,0.007312
10.283,69.0209,0.007312
10.321,69.0405,0.007133
10.360,69.0612,0.007133
10.391,69.0786,0.007133
10.423,69.0972,0.007133
10.454,69.1166,0.007133
10.485,69.1364,0.007133
10.516,69.1568,0.007133
10.547,69.1778,0.007030
10.578,69.1997,0.007030
10.608,69.2214,0.007030
10.639,69.2453,0.007030
10.672,69.2701,0.007030
10.702,69.2945,0.007030
10.733,69.3199,0.007030
10.764,69.3465,0.007030
10.794,69.3726,0.006823
10.825,69.4004,0.006823
10.856,69.4287,0.006823
10.889,69.4591,0.006823
10.920,69.4892,0.006823
10.951,69.5212,0.006823
10.981,69.5504,0.006823
11.012,69.5820,0.006823
11.044,69.6171,0.006550
11.075,69.6491,0.006550
11.106,69.6846,0.006550
11.137,69.7184,0.006550
11.168,69.7541,0.006550
11.199,69.7916,0.006550
11.230,69.8284,0.006550
11.261,69.8665,0.006550
11.292,69.9046,0.006286
11.322,69.9433,0.006286
11.353,69.9831,0.006286
11.384,70.0233,0.006286
11.414,70.0649,0.006286
11.446,70.1076,0.006286
11.477,70.1505,0.006286
11.507,70.1939,0.006286
11.539,70.2388,0.006286
11.570,70.2837,0.005966
11.600,70.3291,0.005966
11.631,70.3751,0.005966
11.662,70.4226,0.005966
11.693,70.4681,0.005966
11.724,70.5154,0.005966
11.755,70.5604,0.005966
11.787,70.6089,0.005966
11.817,70.6547,0.005627
11.848,70.7019,0.005627
11.880,70.7487,0.005627
11.911,70.7953,0.005627
11.942,70.8413,0.005627
11.975,70.8928,0.005627
12.004,70.9351,0.005627
12.036,70.9821,0.005627
12.066,71.0277,0.005204
12.097,71.0752,0.005204
12.128,71.1220,0.005204
12.160,71.1679,0.005204
12.190,71.2129,0.005204
12.221,71.2610,0.005204
12.252,71.3070,0.005204
12.283,71.3538,0.005204
12.315,71.4007,0.004649
12.345,71.4464,0.004649
12.377,71.4932,0.004649
12.408,71.5407,0.004649
12.439,71.5861,0.004649
12.470,71.6337,0.004649
12.500,71.6781,0.004649
12.531,71.7254,0.004649
12.561,71.7701,0.003896
12.592,71.8159,0.003896
12.624,71.8641,0.003896
12.655,71.9123,0.003896
12.687,71.9594,0.003896
12.723,72.0132,0.003896
12.749,72.0515,0.003896
12.780,72.0980,0.003896
12.811,72.1449,0.003896
12.841,72.1902,0.002654
12.872,72.2360,0.002654
12.903,72.2832,0.002654
12.933,72.3287,0.002654
12.965,72.3764,0.002654
12.995,72.4208,0.002654
13.027,72.4670,0.002654
13.058,72.5117,0.000292
13.089,72.5569,0.000292
13.121,72.5997,0.000292
13.153,72.6466,0.000292
13.182,72.6831,0.000292
13.213,72.7245,0.000292
13.244,72.7646,0.000292
13.280,72.8114,0.000292
13.306,72.8438,-0.004630
13.337,72.8818,-0.004630
13.368,72.9181,-0.004630
13.398,72.9543,-0.004630
13.430,72.9911,-0.004630
13.460,73.0244,-0.004630
13.491,73.0594,-0.004630
13.522,73.0941,-0.004630
13.553,73.1261,-0.014473
13.584,73.1592,-0.014473
13.615,73.1902,-0.014473
13.646,73.2211,-0.014473
13.676,73.2504,-0.014473
13.707,73.2801,-0.014473
13.739,73.3086,-0.014473
13.769,73.3367,-0.014473
13.801,73.3637,-0.030781
13.832,73.3909,-0.030781
13.864,73.4173,-0.030781
13.895,73.4418,-0.030781
13.926,73.4662,-0.030781
13.958,73.4910,-0.030781
13.987,73.5123,-0.030781
14.018,73.5345,-0.030781
14.049,73.5554,-0.052218
14.079,73.5758,-0.052218
14.111,73.5963,-0.052218
14.142,73.6155,-0.052218
14.173,73.6338,-0.052218
14.205,73.6524,-0.052218
14.235,73.6686,-0.052218
14.265,73.6848,-0.052218
14.296,73.6998,-0.075321
14.326,73.7146,-0.075321
14.360,73.7301,-0.075321
14.388,73.7417,-0.075321
14.419,73.7549,-0.075321
14.450,73.7665,-0.075321
14.482,73.7782,-0.075321
14.513,73.7889,-0.075321
14.544,73.7985,-0.075321
14.574,73.8073,-0.100823
14.607,73.8161,-0.100823
14.636,73.8233,-0.100823
14.668,73.8303,-0.100823
14.698,73.8362,-0.100823
14.730,73.8419,-0.100823
14.760,73.8463,-0.100823
14.792,73.8505,-0.100823
14.821,73.8536,-0.132790
14.853,73.8562,-0.132790
14.884,73.8579,-0.132790
14.915,73.8589,-0.132790
14.945,73.8593,-0.132790
14.976,73.8593,-0.132790
15.007,73.8593,-0.132790
15.044,73.8593,-0.132790
15.086,73.8593,-0.141448
15.116,73.8593,-0.141448
15.147,73.8593,-0.141448
15.179,73.8593,-0.141448
15.210,73.8593,-0.141448
15.240,73.8593,-0.141448
15.271,73.8593,-0.141448
15.303,73.8593,-0.141448
15.335,73.8593,-0.118204
15.368,73.8593,-0.118204
15.400,73.8593,-0.118204
15.430,73.8593,-0.118204
15.460,73.8593,-0.118204
15.492,73.8593,-0.118204
15.523,73.8593,-0.118204
15.554,73.8593,-0.118204
15.584,73.8593,-0.099788
15.615,73.8593,-0.099788
15.647,73.8593,-0.099788
15.679,73.8593,-0.099788
15.710,73.8593,-0.099788
15.741,73.8593,-0.099788
15.774,73.8593,-0.099788
15.802,73.8593,-0.099788
15.833,73.8593,-0.092542
15.867,73.8593,-0.092542
15.895,73.8593,-0.092542
15.926,73.8593,-0.092542
15.958,73.8593,-0.092542
15.989,73.8593,-0.092542
16.020,73.8593,-0.092542
16.051,73.8593,-0.092542
16.082,73.8593,-0.087780
16.113,73.8593,-0.087780
16.142,73.8593,-0.087780
16.175,73.8593,-0.087780
16.207,73.8593,-0.087780
16.238,73.8593,-0.087780
16.270,73.8593,-0.087780
16.300,73.8593,-0.084204
16.332,73.8593,-0.084204
16.363,73.8593,-0.084204
16.395,73.8593,-0.084204
16.426,73.8593,-0.084204
16.458,73.8593,-0.084204
16.489,73.8593,-0.084204
16.520,73.8593,-0.084204
16.551,73.8593,-0.084204
16.582,73.8593,-0.081437
16.612,73.8593,-0.081437
16.642,73.8593,-0.081437
16.673,73.8593,-0.081437
16.703,73.8593,-0.081437
16.733,73.8593,-0.081437
16.765,73.8593,-0.081437
16.795,73.8593,-0.079198
16.830,73.8593,-0.079198
16.858,73.8593,-0.079198
16.888,73.8593,-0.079198
16.919,73.8593,-0.079198
16.953,73.8593,-0.079198
16.981,73.8593,-0.079198
17.012,73.8593,-0.079198
17.042,73.8593,-0.079198
17.073,73.8593,-0.077288
17.104,73.8593,-0.077288
17.134,73.8593,-0.077288
17.166,73.8593,-0.077288
17.197,73.8593,-0.077288
17.229,73.8593,-0.077288
17.265,73.8593,-0.077288
17.291,73.8593,-0.077288
17.322,73.8593,-0.075631
17.352,73.8593,-0.075631
17.385,73.8593,-0.075631
17.414,73.8593,-0.075631
17.445,73.8593,-0.075631
17.475,73.8593,-0.075631
17.505,73.8593,-0.075631
17.537,73.8593,-0.074173
17.567,73.8593,-0.074173
17.598,73.8593,-0.074173
17.630,73.8593,-0.074173
17.661,73.8593,-0.074173
17.692,73.8593,-0.074173
17.723,73.8593,-0.074173
17.750,73.8593,-0.074173
17.785,73.8593,-0.072930
17.816,73.8593,-0.072930
17.846,73.8593,-0.072930
17.878,73.8593,-0.072930
17.908,73.8593,-0.072930
17.939,73.8593,-0.072930
17.971,73.8593,-0.072930
18.001,73.8593,-0.072930
18.032,73.8593,-0.071820
18.063,73.8593,-0.071820
18.093,73.8593,-0.071820
18.124,73.8593,-0.071820
18.156,73.8593,-0.071820
18.186,73.8593,-0.071820
18.217,73.8593,-0.071820
18.247,73.8593,-0.071820
18.278,73.8593,-0.071820
18.310,73.8593,-0.070813
18.341,73.8593,-0.070813
18.372,73.8593,-0.070813
18.402,73.8593,-0.070813
18.433,73.8593,-0.070813
18.465,73.8593,-0.070813
18.497,73.8593,-0.070813
18.526,73.8593,-0.070813
18.558,73.8593,-0.070813
18.588,73.8593,-0.069891
18.621,73.8593,-0.069891
18.650,73.8593,-0.069891
18.683,73.8593,-0.069891
18.712,73.8593,-0.069891
18.743,73.8593,-0.069891
18.773,73.8593,-0.069891
18.805,73.8593,-0.069891
18.835,73.8593,-0.068931
18.866,73.8593,-0.068931
18.897,73.8593,-0.068931
18.929,73.8593,-0.068931
18.960,73.8593,-0.068931
18.991,73.8593,-0.068931
19.022,73.8593,-0.068931
19.053,73.8593,-0.068065
19.084,73.8593,-0.068065
19.115,73.8593,-0.068065
19.145,73.8593,-0.068065
19.176,73.8593,-0.068065
19.207,73.8593,-0.068065
19.238,73.8593,-0.068065
19.269,73.8591,-0.068065
19.301,73.8581,-0.067322
19.332,73.8562,-0.067322
19.363,73.8538,-0.067322
19.395,73.8505,-0.067322
19.425,73.8467,-0.067322
19.456,73.8419,-0.067322
19.488,73.8366,-0.067322
19.520,73.8303,-0.067322
19.550,73.8236,-0.049038
19.584,73.8150,-0.049038
19.612,73.8076,-0.049038
19.643,73.7983,-0.049038
19.675,73.7886,-0.049038
19.707,73.7776,-0.049038
19.738,73.7664,-0.049038
19.768,73.7549,-0.049038
19.799,73.7420,-0.028777
19.829,73.7291,-0.028777
19.860,73.7146,-0.028777
19.891,73.7001,-0.028777
19.922,73.6846,-0.028777
19.954,73.6681,-0.028777
19.983,73.6522,-0.028777
20.013,73.6347,-0.028777
20.044,73.6156,-0.017842
20.075,73.5967,-0.017842
20.107,73.5765,-0.017842
20.137,73.5569,-0.017842
20.169,73.5342,-0.017842
20.201,73.5117,-0.017842
20.235,73.4861,-0.017842
20.263,73.4652,-0.017842
20.294,73.4415,-0.017842
20.324,73.4167,0.000423
20.355,73.3911,0.000423
20.385,73.3657,0.000423
20.416,73.3382,0.000423
20.447,73.3110,0.000423
20.478,73.2820,0.000423
20.508,73.2526,0.000423
20.539,73.2224,0.000423
20.570,73.1931,0.017861
20.600,73.1613,0.017861
20.630,73.1309,0.017861
20.662,73.0962,0.017861
20.692,73.0638,0.017861
20.723,73.0301,0.017861
20.755,72.9939,0.017861
20.786,72.9585,0.017861
20.817,72.9212,0.030029
20.847,72.8849,0.030029
20.878,72.8473,0.030029
20.910,72.8073,0.030029
20.940,72.7690,0.030029
20.971,72.7292,0.030029
21.002,72.6885,0.030029
21.033,72.6460,0.030029
21.065,72.6031,0.036898
21.094,72.5620,0.036898
21.125,72.5185,0.036898
21.157,72.4727,0.036898
21.187,72.4288,0.036898
21.218,72.3833,0.036898
21.250,72.3356,0.036898
21.281,72.2884,0.041942
21.312,72.2413,0.041942
21.343,72.1949,0.041942
21.373,72.1511,0.041942
21.404,72.1031,0.041942
21.438,72.0524,0.041942
21.465,72.0123,0.041942
21.495,71.9662,0.041942
21.527,71.9185,0.041942
21.559,71.8712,0.046064
21.589,71.8252,0.046064
21.621,71.7777,0.046064
21.652,71.7314,0.046064
21.684,71.6841,0.046064
21.714,71.6383,0.046064
21.746,71.5908,0.046064
21.776,71.5461,0.046064
21.807,71.4985,0.048285
21.837,71.4537,0.048285
21.868,71.4076,0.048285
21.899,71.3596,0.048285
21.930,71.3146,0.048285
21.961,71.2687,0.048285
21.992,71.2223,0.048285
22.022,71.1759,0.048285
22.054,71.1279,0.047682
22.084,71.0838,0.047682
22.114,71.0376,0.047682
22.146,70.9913,0.047682
22.177,70.9443,0.047682
22.208,70.8985,0.047682
22.238,70.8515,0.047682
22.269,70.8057,0.047682
22.300,70.7592,0.047682
22.331,70.7127,0.028335
22.362,70.6664,0.028335
22.393,70.6196,0.028335
22.424,70.5733,0.028335
22.456,70.5254,0.028335
22.486,70.4799,0.028335
22.517,70.4329,0.028335
22.549,70.3857,0.028335
22.579,70.3399,0.009448
22.611,70.2928,0.009448
22.640,70.2485,0.009448
22.667,70.2098,0.009448
22.703,70.1576,0.009448
22.734,70.1138,0.009448
22.766,70.0705,0.009448
22.801,70.0215,0.008375
22.828,69.9859,0.008375
22.858,69.9450,0.008375
22.889,69.9059,0.008375
22.924,69.8591,0.008375
22.951,69.8277,0.008375
22.982,69.7889,0.008375
23.013,69.7523,0.008375
23.043,69.7162,0.008375
23.074,69.6801,0.008055
23.106,69.6442,0.008055
23.136,69.6103,0.008055
23.168,69.5754,0.008055
23.199,69.5429,0.008055
23.230,69.5108,0.008055
23.261,69.4792,0.008055
23.291,69.4483,0.007905
23.323,69.4169,0.007905
23.355,69.3879,0.007905
23.386,69.3589,0.007905
23.417,69.3310,0.007905
23.447,69.3045,0.007905
23.478,69.2780,0.007905
23.508,69.2533,0.007905
23.540,69.2277,0.007905
23.570,69.2041,0.007801
23.602,69.1793,0.007801
23.632,69.1572,0.007801
23.663,69.1350,0.007801
23.693,69.1140,0.007801
23.724,69.0931,0.007801
23.758,69.0720,0.007801
23.788,69.0529,0.007801
23.819,69.0352,0.007745
23.853,69.0153,0.007745
23.880,69.0006,0.007745
23.911,68.9843,0.007745
23.942,68.9687,0.007745
23.972,68.9542,0.007745
24.003,68.9397,0.007745
24.035,68.9264,0.007745
24.066,68.9137,0.007745
24.097,68.9016,0.007679
24.129,68.8903,0.007679
24.159,68.8800,0.007679
24.190,68.8701,0.007679
24.224,68.8603,0.007679
24.251,68.8530,0.007679
24.284,68.8450,0.007679
24.309,68.8395,0.007679
24.344,68.8324,0.007566
24.375,68.8269,0.007566
24.406,68.8222,0.007566
24.437,68.8182,0.007566
24.468,68.8150,0.007566
24.500,68.8124,0.007566
24.531,68.8107,0.007566
24.562,68.8097,0.007481
24.592,68.8093,0.007481
24.623,68.8093,0.007481
24.654,68.8093,0.007481
24.686,68.8093,0.007481
24.716,68.8094,0.007481
24.748,68.8103,0.007481
24.778,68.8119,0.007481
24.810,68.8143,0.007481
24.840,68.8173,0.007481
24.871,68.8210,0.007481
24.903,68.8257,0.007481
24.934,68.8309,0.007481
24.966,68.8371,0.007481
24.997,68.8437,0.007481
25.028,68.8514,0.007340
25.058,68.8592,0.007340
25.089,68.8680,0.007340
25.120,68.8775,0.007340
25.150,68.8876,0.007340
25.181,68.8989,0.007340
25.212,68.9103,0.007340
25.243,68.9230,0.007340
25.274,68.9357,0.007340
25.307,68.9515,0.007199
25.336,68.9645,0.007199
25.367,68.9802,0.007199
25.397,68.9957,0.007199
25.427,69.0121,0.007199
25.459,69.0297,0.007199
25.489,69.0476,0.007199
25.523,69.0687,0.007199
25.550,69.0859,0.007095
25.581,69.1062,0.007095
25.611,69.1268,0.007095
25.643,69.1491,0.007095
25.672,69.1706,0.007095
25.704,69.1943,0.007095
25.735,69.2181,0.007095
25.765,69.2429,0.007095
25.796,69.2682,0.006860
25.828,69.2943,0.006860
25.860,69.3228,0.006860
25.890,69.3498,0.006860
25.921,69.3777,0.006860
25.951,69.4062,0.006860
25.982,69.4366,0.006860
26.013,69.4675,0.006860
26.045,69.4990,0.006634
26.075,69.5305,0.006634
26.107,69.5631,0.006634
26.137,69.5971,0.006634
26.168,69.6310,0.006634
26.200,69.6662,0.006634
26.232,69.7024,0.006634
26.262,69.7385,0.006634
26.294,69.7766,0.006634
26.325,69.8139,0.006390
26.356,69.8532,0.006390
26.386,69.8917,0.006390
26.419,69.9327,0.006390
26.448,69.9709,0.006390
26.478,70.0119,0.006390
26.509,70.0540,0.006390
26.540,70.0977,0.006070
26.571,70.1408,0.006070
26.605,70.1898,0.006070
26.633,70.2304,0.006070
26.665,70.2773,0.006070
26.695,70.3236,0.006070
26.725,70.3684,0.006070
26.758,70.4164,0.006070
26.787,70.4597,0.005674
26.819,70.5081,0.005674
26.850,70.5547,0.005674
26.880,70.6013,0.005674
26.913,70.6491,0.005674
26.943,70.6957,0.005674
26.977,70.7464,0.005674
27.004,70.7866,0.005674
27.035,70.8325,0.005674
27.066,70.8794,0.005345
27.098,70.9281,0.005345
27.129,70.9745,0.005345
27.160,71.0200,0.005345
27.191,71.0662,0.005345
27.222,71.1122,0.005345
27.253,71.1598,0.005345
27.284,71.2055,0.004865
27.314,71.2513,0.004865
27.345,71.2980,0.004865
27.376,71.3445,0.004865
27.408,71.3912,0.004865
27.439,71.4385,0.004865
27.470,71.4851,0.004865
27.501,71.5314,0.004865
27.532,71.5776,0.004865
27.563,71.6253,0.004150
27.594,71.6707,0.004150
27.625,71.7175,0.004150
27.656,71.7638,0.004150
27.688,71.8114,0.004150
27.719,71.8589,0.004150
27.749,71.9040,0.004150
27.780,71.9505,0.004150
27.811,71.9965,0.003115
27.842,72.0434,0.003115
27.873,72.0895,0.003115
27.904,72.1365,0.003115
27.937,72.1849,0.003115
27.966,72.2303,0.003115
27.998,72.2775,0.003115
28.027,72.3207,0.001157
28.058,72.3667,0.001157
28.089,72.4123,0.001157
28.121,72.4583,0.001157
28.152,72.5020,0.001157
28.183,72.5453,0.001157
28.214,72.5874,0.001157
28.246,72.6310,0.001157
28.276,72.6713,0.001157
28.307,72.7113,0.001157
28.338,72.7512,-0.002889
28.372,72.7942,-0.002889
28.400,72.8279,-0.002889
28.434,72.8687,-0.002889
28.464,72.9046,-0.002889
28.495,72.9400,-0.002889
28.526,72.9751,-0.002889
28.557,73.0100,-0.002889
28.587,73.0432,-0.011161
28.618,73.0757,-0.011161
28.649,73.1075,-0.011161
28.680,73.1395,-0.011161
28.711,73.1700,-0.011161
28.741,73.2002,-0.011161
28.773,73.2294,-0.011161
28.803,73.2587,-0.011161
28.835,73.2863,-0.025747
28.865,73.3137,-0.025747
28.897,73.3398,-0.025747
28.928,73.3663,-0.025747
28.959,73.3911,-0.025747
28.991,73.4162,-0.025747
29.022,73.4395,-0.025747
29.054,73.4635,-0.046186
29.085,73.4850,-0.046186
29.114,73.5056,-0.046186
29.146,73.5268,-0.046186
29.177,73.5465,-0.046186
29.208,73.5661,-0.046186
29.240,73.5845,-0.046186
29.271,73.6021,-0.046186
29.301,73.6191,-0.069119
29.332,73.6353,-0.069119
29.366,73.6522,-0.069119
29.394,73.6655,-0.069119
29.425,73.6797,-0.069119
29.459,73.6945,-0.069119
29.488,73.7059,-0.069119
29.521,73.7189,-0.069119
29.550,73.7292,-0.069119
29.580,73.7393,-0.093078
29.612,73.7494,-0.093078
29.646,73.7592,-0.093078
29.674,73.7667,-0.093078
29.705,73.7740,-0.093078
29.736,73.7809,-0.093078
29.769,73.7874,-0.093078
29.797,73.7922,-0.124810
29.829,73.7969,-0.124810
29.860,73.8008,-0.124810
29.891,73.8040,-0.124810
29.924,73.8065,-0.124810
29.954,73.8081,-0.124810
29.990,73.8092,-0.124810
30.017,73.8093,-0.124810
30.048,73.8093,-0.124810
30.079,73.8093,-0.145400
30.110,73.8093,-0.145400
30.141,73.8093,-0.145400
30.172,73.8093,-0.145400
30.203,73.8093,-0.145400
30.234,73.8093,-0.145400
30.265,73.8093,-0.145400
30.297,73.8093,-0.145400
30.328,73.8093,-0.127078
30.359,73.8093,-0.127078
30.390,73.8093,-0.127078
30.422,73.8093,-0.127078
30.452,73.8093,-0.127078
30.483,73.8093,-0.127078
30.514,73.8093,-0.127078
30.544,73.8093,-0.127078
30.576,73.8093,-0.102244
30.607,73.8093,-0.102244
30.638,73.8093,-0.102244
30.669,73.8093,-0.102244
30.701,73.8093,-0.102244
30.732,73.8093,-0.102244
30.762,73.8093,-0.102244
30.794,73.8093,-0.093953
30.826,73.8093,-0.093953
30.856,73.8093,-0.093953
30.886,73.8093,-0.093953
30.918,73.8093,-0.093953
30.949,73.8093,-0.093953
30.981,73.8093,-0.093953
31.010,73.8093,-0.093953
31.042,73.8093,-0.088768
31.075,73.8093,-0.088768
31.103,73.8093,-0.088768
31.134,73.8093,-0.088768
31.165,73.8093,-0.088768
31.195,73.8093,-0.088768
31.226,73.8093,-0.088768
31.259,73.8093,-0.088768
31.287,73.8093,-0.084919
31.318,73.8093,-0.084919
31.350,73.8093,-0.084919
31.382,73.8093,-0.084919
31.412,73.8093,-0.084919
31.443,73.8093,-0.084919
31.474,73.8093,-0.084919
31.505,73.8093,-0.084919
31.535,73.8093,-0.081946
31.566,73.8093,-0.081946
31.598,73.8093,-0.081946
31.629,73.8093,-0.081946
31.659,73.8093,-0.081946
31.690,73.8093,-0.081946
31.721,73.8093,-0.081946
31.751,73.8093,-0.081946
31.782,73.8093,-0.079537
31.816,73.8093,-0.079537
31.845,73.8093,-0.079537
31.876,73.8093,-0.079537
31.906,73.8093,-0.079537
31.939,73.8093,-0.079537
31.968,73.8093,-0.079537
31.999,73.8093,-0.079537
32.031,73.8093,-0.077542
32.064,73.8093,-0.077542
32.093,73.8093,-0.077542
32.124,73.8093,-0.077542
32.155,73.8093,-0.077542
32.185,73.8093,-0.077542
32.217,73.8093,-0.077542
32.248,73.8093,-0.077542
32.279,73.8093,-0.077542
32.310,73.8093,-0.075904
32.341,73.8093,-0.075904
32.372,73.8093,-0.075904
32.402,73.8093,-0.075904
32.433,73.8093,-0.075904
32.463,73.8093,-0.075904
32.496,73.8093,-0.075904
32.525,73.8093,-0.074493
32.556,73.8093,-0.074493
32.588,73.8093,-0.074493
32.619,73.8093,-0.074493
32.649,73.8093,-0.074493
32.681,73.8093,-0.074493
32.712,73.8093,-0.074493
32.743,73.8093,-0.074493
32.775,73.8093,-0.074493
32.806,73.8093,-0.073185
32.837,73.8093,-0.073185
32.867,73.8093,-0.073185
32.898,73.8093,-0.073185
32.929,73.8093,-0.073185
32.961,73.8093,-0.073185
32.992,73.8093,-0.073185
33.022,73.8093,-0.073185
33.054,73.8093,-0.071971
33.085,73.8093,-0.071971
33.116,73.8093,-0.071971
33.148,73.8093,-0.071971
33.179,73.8093,-0.071971
33.209,73.8093,-0.071971
33.240,73.8093,-0.071971
33.271,73.8093,-0.071971
33.302,73.8093,-0.071971
33.333,73.8093,-0.070945
33.363,73.8093,-0.070945
33.394,73.8093,-0.070945
33.430,73.8093,-0.070945
33.472,73.8093,-0.070945
33.503,73.8093,-0.070945
33.534,73.8093,-0.070945
33.565,73.8093,-0.070945
33.597,73.8093,-0.070013
33.628,73.8093,-0.070013
33.659,73.8093,-0.070013
33.690,73.8093,-0.070013
33.723,73.8093,-0.070013
33.752,73.8093,-0.070013
33.786,73.8093,-0.070013
33.815,73.8093,-0.070013
33.849,73.8093,-0.069072
33.878,73.8093,-0.069072
33.912,73.8093,-0.069072
33.943,73.8093,-0.069072
33.971,73.8093,-0.069072
34.002,73.8093,-0.069072
34.034,73.8093,-0.069072
34.061,73.8093,-0.069072
34.092,73.8093,-0.068178
34.123,73.8093,-0.068178
34.153,73.8093,-0.068178
34.184,73.8093,-0.068178
34.215,73.8093,-0.068178
34.247,73.8093,-0.068178
34.277,73.8091,-0.068178
34.308,73.8082,-0.067378
34.340,73.8065,-0.067378
34.371,73.8040,-0.067378
34.406,73.8003,-0.067378
34.433,73.7972,-0.067378
34.463,73.7926,-0.067378
34.495,73.7872,-0.067378
34.526,73.7812,-0.067378
34.556,73.7745,-0.050026
34.587,73.7672,-0.050026
34.617,73.7591,-0.050026
34.648,73.7502,-0.050026
34.679,73.7407,-0.050026
34.710,73.7301,-0.050026
34.741,73.7193,-0.050026
34.772,73.7074,-0.050026
34.802,73.6953,-0.029953
34.833,73.6821,-0.029953
34.864,73.6682,-0.029953
34.895,73.6529,-0.029953
34.926,73.6377,-0.029953
34.956,73.6224,-0.029953
34.987,73.6053,-0.029953
35.018,73.5877,-0.029953
35.048,73.5698,-0.018501
35.080,73.5506,-0.018501
35.110,73.5311,-0.018501
35.145,73.5081,-0.018501
35.172,73.4895,-0.018501
35.204,73.4671,-0.018501
35.235,73.4440,-0.018501
35.265,73.4211,-0.018501
35.296,73.3977,-0.000499
35.325,73.3736,-0.000499
35.356,73.3487,-0.000499
35.387,73.3223,-0.000499
35.419,73.2943,-0.000499
35.449,73.2675,-0.000499
35.481,73.2389,-0.000499
35.511,73.2100,-0.000499
35.542,73.1803,0.016986
35.574,73.1487,0.016986
35.604,73.1185,0.016986
35.635,73.0863,0.016986
35.667,73.0519,0.016986
35.696,73.0208,0.016986
35.728,72.9857,0.016986
35.758,72.9515,0.016986
35.789,72.9157,0.016986
35.821,72.8784,0.029285
35.851,72.8432,0.029285
35.882,72.8050,0.029285
35.914,72.7650,0.029285
35.944,72.7270,0.029285
35.975,72.6857,0.029285
36.006,72.6454,0.029285
36.037,72.6036,0.029285
36.068,72.5621,0.036070
36.099,72.5192,0.036070
36.130,72.4757,0.036070
36.162,72.4294,0.036070
36.192,72.3867,0.036070
36.227,72.3332,0.036070
36.255,72.2935,0.036070
36.285,72.2471,0.036070
36.317,72.2004,0.040794
36.348,72.1534,0.040794
36.379,72.1061,0.040794
36.410,72.0602,0.040794
36.440,72.0146,0.040794
36.472,71.9673,0.040794
36.504,71.9191,0.040794
36.535,71.8731,0.040794
36.566,71.8267,0.040794
36.597,71.7797,0.044784
36.628,71.7338,0.044784
36.659,71.6869,0.044784
36.689,71.6419,0.044784
36.720,71.5943,0.044784
36.752,71.5473,0.044784
36.784,71.4988,0.044784
36.814,71.4530,0.044784
36.842,71.4113,0.047193
36.877,71.3587,0.047193
36.909,71.3110,0.047193
36.940,71.2635,0.047193
36.971,71.2172,0.047193
37.002,71.1707,0.047193
37.034,71.1243,0.047193
37.066,71.0757,0.046610
37.097,71.0300,0.046610
37.129,70.9817,0.046610
37.159,70.9361,0.046610
37.189,70.8913,0.046610
37.220,70.8444,0.046610
37.251,70.7979,0.046610
37.282,70.7512,0.046610
37.314,70.7033,0.046610
37.345,70.6579,0.027723
37.375,70.6121,0.027723
37.406,70.5651,0.027723
37.438,70.5175,0.027723
37.468,70.4727,0.027723
37.499,70.4266,0.027723
37.530,70.3808,0.027723
37.560,70.3343,0.009420
37.591,70.2877,0.009420
37.622,70.2413,0.009420
37.652,70.1966,0.009420
37.685,70.1496,0.009420
37.715,70.1055,0.009420
37.745,70.0629,0.009420
37.776,70.0193,0.009420
37.807,69.9770,0.009420
37.838,69.9358,0.008366
37.869,69.8953,0.008366
37.900,69.8556,0.008366
37.931,69.8151,0.008366
37.962,69.7766,0.008366
37.994,69.7365,0.008366
38.024,69.7003,0.008366
38.056,69.6631,0.008027
38.089,69.6243,0.008027
38.119,69.5914,0.008027
38.152,69.5540,0.008027
38.181,69.5225,0.008027
38.212,69.4896,0.008027
38.242,69.4582,0.008027
38.273,69.4273,0.008027
38.305,69.3953,0.008027
38.335,69.3658,0.007886
38.366,69.3373,0.007886
38.397,69.3083,0.007886
38.429,69.2791,0.007886
38.460,69.2526,0.007886
38.490,69.2263,0.007886
38.521,69.2010,0.007886
38.553,69.1751,0.007886
38.583,69.1516,0.007801
38.614,69.1287,0.007801
38.645,69.1054,0.007801
38.677,69.0823,0.007801
38.708,69.0615,0.007801
38.739,69.0411,0.007801
38.771,69.0203,0.007801
38.801,69.0018,0.007782
38.832,68.9831,0.007782
38.862,68.9660,0.007782
38.893,68.9487,0.007782
38.925,68.9324,0.007782
38.956,68.9168,0.007782
38.986,68.9026,0.007782
39.018,68.8881,0.007782
39.048,68.8752,0.007679
39.079,68.8624,0.007679
39.110,68.8507,0.007679
39.144,68.8383,0.007679
39.173,68.8289,0.007679
39.204,68.8190,0.007679
39.234,68.8102,0.007679
39.265,68.8020,0.007679
39.296,68.7943,0.007575
39.333,68.7865,0.007575
39.373,68.7788,0.007575
39.405,68.7740,0.007575
39.436,68.7695,0.007575
39.468,68.7660,0.007575
39.499,68.7633,0.007575
39.529,68.7613,0.007575
39.560,68.7600,0.007575
39.592,68.7593,0.007528
39.622,68.7593,0.007528
39.655,68.7593,0.007528
39.685,68.7593,0.007528
39.716,68.7593,0.007528
39.748,68.7593,0.007528
39.777,68.7596,0.007528
39.809,68.7606,0.007557
39.840,68.7623,0.007557
39.871,68.7647,0.007557
39.902,68.7679,0.007557
39.933,68.7717,0.007557
39.964,68.7765,0.007557
39.995,68.7818,0.007557
40.026,68.7877,0.007557
40.057,68.7946,0.007557
40.088,68.8021,0.007453
40.119,68.8102,0.007453
40.151,68.8195,0.007453
40.181,68.8289,0.007453
40.212,68.8393,0.007453
40.243,68.8504,0.007453
40.273,68.8622,0.007453
40.305,68.8751,0.007246
40.336,68.8883,0.007246
40.368,68.9027,0.007246
40.399,68.9177,0.007246
40.430,68.9333,0.007246
40.461,68.9496,0.007246
40.493,68.9670,0.007246
40.524,68.9856,0.007246
40.555,69.0032,0.007142
40.585,69.0221,0.007142
40.615,69.0416,0.007142
40.646,69.0620,0.007142
40.677,69.0835,0.007142
40.711,69.1086,0.007142
40.739,69.1283,0.007142
40.770,69.1519,0.007142
40.801,69.1766,0.006973
40.833,69.2016,0.006973
40.864,69.2275,0.006973
40.898,69.2565,0.006973
40.925,69.2806,0.006973
40.956,69.3084,0.006973
40.988,69.3373,0.006973
41.019,69.3669,0.006973
41.051,69.3978,0.006813
41.081,69.4288,0.006813
41.112,69.4602,0.006813
41.143,69.4922,0.006813
41.176,69.5268,0.006813
41.205,69.5587,0.006813
41.236,69.5928,0.006813
41.269,69.6309,0.006813
41.298,69.6642,0.006813
41.329,69.7014,0.006559
41.360,69.7380,0.006559
41.391,69.7763,0.006559
41.422,69.8153,0.006559
41.453,69.8548,0.006559
41.485,69.8958,0.006559
41.517,69.9378,0.006559
41.547,69.9797,0.006201
41.578,70.0215,0.006201
41.609,70.0641,0.006201
41.640,70.1087,0.006201
41.671,70.1534,0.006201
41.702,70.1995,0.006201
41.736,70.2499,0.006201
41.764,70.2916,0.006201
41.794,70.3373,0.006201
41.825,70.3844,0.005825
41.857,70.4309,0.005825
41.888,70.4781,0.005825
41.919,70.5234,0.005825
41.949,70.5706,0.005825
41.980,70.6158,0.005825
42.013,70.6657,0.005825
42.043,70.7111,0.005467
42.075,70.7575,0.005467
42.105,70.8020,0.005467
42.136,70.8490,0.005467
42.167,70.8965,0.005467
42.198,70.9429,0.005467
42.227,70.9866,0.005467
42.258,71.0328,0.005467
42.289,71.0793,0.005006
42.320,71.1247,0.005006
42.351,71.1710,0.005006
42.381,71.2181,0.005006
42.413,71.2649,0.005006
42.444,71.3117,0.005006
42.474,71.3565,0.005006
42.505,71.4043,0.005006
42.537,71.4500,0.005006
42.568,71.4965,0.004348
42.600,71.5453,0.004348
42.631,71.5917,0.004348
42.661,71.6383,0.004348
42.693,71.6851,0.004348
42.724,71.7321,0.004348
42.754,71.7774,0.004348
42.786,71.8245,0.004348
42.819,71.8741,0.003463
42.849,71.9196,0.003463
42.880,71.9645,0.003463
42.911,72.0114,0.003463
42.941,72.0574,0.003463
42.973,72.1046,0.003463
43.003,72.1499,0.003463
43.033,72.1962,0.003463
43.064,72.2419,0.001882
43.095,72.2887,0.001882
43.127,72.3346,0.001882
43.159,72.3814,0.001882
43.192,72.4289,0.001882
43.220,72.4686,0.001882
43.251,72.5113,0.001882
43.282,72.5538,-0.001543
43.314,72.5961,-0.001543
43.344,72.6354,-0.001543
43.375,72.6765,-0.001543
43.405,72.7143,-0.001543
43.437,72.7534,-0.001543
43.468,72.7917,-0.001543
43.498,72.8281,-0.001543
43.529,72.8638,-0.001543
43.560,72.9000,-0.008658
43.591,72.9352,-0.008658
43.622,72.9689,-0.008658
43.653,73.0023,-0.008658
43.686,73.0384,-0.008658
43.715,73.0679,-0.008658
43.746,73.0993,-0.008658
43.778,73.1305,-0.021625
43.809,73.1606,-0.021625
43.840,73.1893,-0.021625
43.870,73.2175,-0.021625
43.902,73.2456,-0.021625
43.934,73.2737,-0.021625
43.965,73.2998,-0.021625
43.996,73.3255,-0.021625
44.031,73.3530,-0.021625
44.059,73.3750,-0.021625
44.089,73.3977,-0.040813
44.119,73.4191,-0.040813
44.150,73.4417,-0.040813
44.182,73.4633,-0.040813
44.212,73.4830,-0.040813
44.242,73.5021,-0.040813
44.279,73.5249,-0.040813
44.320,73.5480,-0.063501
44.352,73.5662,-0.063501
44.381,73.5816,-0.063501
44.411,73.5966,-0.063501
44.442,73.6118,-0.063501
44.473,73.6260,-0.063501
44.504,73.6394,-0.063501
44.535,73.6523,-0.063501
44.567,73.6650,-0.086783
44.598,73.6761,-0.086783
44.629,73.6870,-0.086783
44.659,73.6965,-0.086783
44.691,73.7060,-0.086783
44.722,73.7144,-0.086783
44.753,73.7221,-0.086783
44.784,73.7291,-0.116858
44.814,73.7350,-0.116858
44.844,73.7406,-0.116858
44.876,73.7456,-0.116858
44.906,73.7497,-0.116858
44.938,73.7530,-0.116858
44.969,73.7557,-0.116858
44.999,73.7576,-0.116858
45.033,73.7590,-0.116858
45.063,73.7593,-0.116858
45.095,73.7593,-0.144289
45.125,73.7593,-0.144289
45.159,73.7593,-0.144289
45.188,73.7593,-0.144289
45.218,73.7593,-0.144289
45.249,73.7593,-0.144289
45.280,73.7593,-0.144289
45.310,73.7593,-0.144289
45.343,73.7593,-0.132301
45.373,73.7593,-0.132301
45.403,73.7593,-0.132301
45.435,73.7593,-0.132301
45.465,73.7593,-0.132301
45.497,73.7593,-0.132301
45.527,73.7593,-0.132301
45.559,73.7593,-0.104954
45.589,73.7593,-0.104954
45.620,73.7593,-0.104954
45.651,73.7593,-0.104954
45.681,73.7593,-0.104954
45.712,73.7593,-0.104954
45.743,73.7593,-0.104954
45.775,73.7593,-0.104954
45.804,73.7593,-0.104954
45.837,73.7593,-0.095158
45.868,73.7593,-0.095158
45.900,73.7593,-0.095158
45.932,73.7593,-0.095158
45.962,73.7593,-0.095158
45.993,73.7593,-0.095158
46.023,73.7593,-0.095158
46.054,73.7593,-0.095158
46.085,73.7593,-0.089512
46.116,73.7593,-0.089512
46.147,73.7593,-0.089512
46.179,73.7593,-0.089512
46.210,73.7593,-0.089512
46.241,73.7593,-0.089512
46.273,73.7593,-0.089512
46.304,73.7593,-0.085456
46.335,73.7593,-0.085456
46.366,73.7593,-0.085456
46.397,73.7593,-0.085456
46.428,73.7593,-0.085456
46.459,73.7593,-0.085456
46.490,73.7593,-0.085456
46.521,73.7593,-0.085456
46.552,73.7593,-0.082331
46.583,73.7593,-0.082331
46.614,73.7593,-0.082331
46.645,73.7593,-0.082331
46.676,73.7593,-0.082331
46.707,73.7593,-0.082331
46.738,73.7593,-0.082331
46.769,73.7593,-0.082331
46.800,73.7593,-0.079800
46.831,73.7593,-0.079800
46.862,73.7593,-0.079800
46.894,73.7593,-0.079800
46.924,73.7593,-0.079800
46.957,73.7593,-0.079800
46.988,73.7593,-0.079800
47.019,73.7593,-0.079800
47.050,73.7593,-0.077692
47.080,73.7593,-0.077692
47.112,73.7593,-0.077692
47.143,73.7593,-0.077692
47.172,73.7593,-0.077692
47.205,73.7593,-0.077692
47.236,73.7593,-0.077692
47.266,73.7593,-0.077692
47.298,73.7593,-0.075923
47.328,73.7593,-0.075923
47.361,73.7593,-0.075923
47.389,73.7593,-0.075923
47.421,73.7593,-0.075923
47.452,73.7593,-0.075923
47.483,73.7593,-0.075923
47.513,73.7593,-0.075923
47.545,73.7593,-0.075923
47.576,73.7593,-0.074417
47.607,73.7593,-0.074417
47.638,73.7593,-0.074417
47.668,73.7593,-0.074417
47.699,73.7593,-0.074417
47.730,73.7593,-0.074417
47.764,73.7593,-0.074417
47.793,73.7593,-0.074417
47.826,73.7593,-0.073100
47.856,73.7593,-0.073100
47.887,73.7593,-0.073100
47.918,73.7593,-0.073100
47.949,73.7593,-0.073100
47.980,73.7593,-0.073100
48.010,73.7593,-0.073100
48.042,73.7593,-0.073100
48.073,73.7593,-0.071933
48.104,73.7593,-0.071933
48.135,73.7593,-0.071933
48.166,73.7593,-0.071933
48.198,73.7593,-0.071933
48.228,73.7593,-0.071933
48.257,73.7593,-0.071933
48.291,73.7593,-0.070926
48.321,73.7593,-0.070926
48.353,73.7593,-0.070926
48.384,73.7593,-0.070926
48.414,73.7593,-0.070926
48.445,73.7593,-0.070926
48.477,73.7593,-0.070926
48.508,73.7593,-0.070926
48.540,73.7593,-0.069976
48.570,73.7593,-0.069976
48.601,73.7593,-0.069976
48.632,73.7593,-0.069976
48.663,73.7593,-0.069976
48.694,73.7593,-0.069976
48.724,73.7593,-0.069976
48.756,73.7593,-0.069976
48.787,73.7593,-0.069976
48.818,73.7593,-0.069053
48.849,73.7593,-0.069053
48.881,73.7593,-0.069053
48.912,73.7593,-0.069053
48.943,73.7593,-0.069053
48.973,73.7593,-0.069053
49.004,73.7593,-0.069053
49.035,73.7593,-0.068103
49.066,73.7593,-0.068103
49.098,73.7593,-0.068103
49.130,73.7593,-0.068103
49.162,73.7593,-0.068103
49.193,73.7593,-0.068103
49.224,73.7593,-0.068103
49.256,73.7593,-0.068103
49.286,73.7593,-0.067265
49.318,73.7593,-0.067265
49.348,73.7593,-0.067265
49.379,73.7593,-0.067265
49.411,73.7593,-0.067265
49.442,73.7588,-0.067265
49.473,73.7576,-0.067265
49.503,73.7556,-0.067265
49.534,73.7530,-0.067265
49.565,73.7495,-0.067265
49.596,73.7453,-0.066729
49.629,73.7404,-0.066729
49.659,73.7347,-0.066729
49.690,73.7285,-0.066729
49.723,73.7208,-0.066729
49.751,73.7137,-0.066729
49.784,73.7046,-0.066729
49.812,73.6963,-0.066729
49.844,73.6863,-0.045283
49.875,73.6756,-0.045283
49.906,73.6641,-0.045283
49.937,73.6519,-0.045283
49.968,73.6389,-0.045283
50.000,73.6251,-0.045283
50.030,73.6110,-0.045283
50.063,73.5951,-0.022368
50.093,73.5800,-0.022368
50.124,73.5633,-0.022368
50.154,73.5465,-0.022368
50.185,73.5289,-0.022368
50.215,73.5104,-0.022368
50.247,73.4903,-0.022368
50.278,73.4706,-0.011292
50.312,73.4478,-0.011292
50.339,73.4287,-0.011292
50.370,73.4064,-0.011292
50.401,73.3838,-0.011292
50.431,73.3602,-0.011292
50.462,73.3363,-0.011292
50.493,73.3107,-0.011292
50.523,73.2856,-0.011292
50.555,73.2584,0.007350
50.585,73.2319,0.007350
50.621,73.1983,0.007350
50.648,73.1746,0.007350
50.679,73.1448,0.007350
50.710,73.1145,0.007350
50.741,73.0834,0.007350
50.772,73.0505,0.023281
50.803,73.0192,0.023281
50.835,72.9846,0.023281
50.866,72.9512,0.023281
50.896,72.9162,0.023281
50.928,72.8811,0.023281
50.960,72.8444,0.023281
50.991,72.8068,0.023281
51.021,72.7703,0.023281
51.052,72.7323,0.023281
51.083,72.6931,0.033426
51.114,72.6529,0.033426
51.145,72.6126,0.033426
51.177,72.5698,0.033426
51.208,72.5289,0.033426
51.242,72.4809,0.033426
51.271,72.4411,0.033426
51.302,72.3969,0.033426
51.332,72.3533,0.039364
51.368,72.3008,0.039364
51.395,72.2606,0.039364
51.426,72.2131,0.039364
51.457,72.1665,0.039364
51.488,72.1201,0.039364
51.519,72.0739,0.039364
51.551,72.0260,0.044106
51.584,71.9766,0.044106
51.612,71.9341,0.044106
51.643,71.8873,0.044106
51.674,71.8401,0.044106
51.706,71.7917,0.044106
51.736,71.7482,0.044106
51.767,71.7010,0.044106
51.799,71.6539,0.044106
51.834,71.6011,0.047306
51.861,71.5613,0.047306
51.895,71.5097,0.047306
51.923,71.4666,0.047306
51.954,71.4210,0.047306
51.985,71.3751,0.047306
52.017,71.3266,0.047306
52.045,71.2846,0.047306
52.076,71.2370,0.048896
52.108,71.1906,0.048896
52.138,71.1441,0.048896
52.169,71.0992,0.048896
52.200,71.0513,0.048896
52.232,71.0052,0.048896
52.264,70.9559,0.048896
52.295,70.9104,0.039674
52.326,70.8624,0.039674
52.358,70.8159,0.039674
52.389,70.7685,0.039674
52.417,70.7268,0.039674
52.449,70.6792,0.039674
52.480,70.6325,0.039674
52.511,70.5861,0.039674
52.542,70.5386,0.019583
52.573,70.4928,0.019583
52.604,70.4451,0.019583
52.636,70.3983,0.019583
52.668,70.3506,0.019583
52.698,70.3043,0.019583
52.728,70.2592,0.019583
52.760,70.2130,0.019583
52.790,70.1671,0.008959
52.822,70.1207,0.008959
52.850,70.0798,0.008959
52.880,70.0355,0.008959
52.912,69.9926,0.008959
52.942,69.9492,0.008959
52.974,69.9074,0.008959
53.004,69.8659,0.008959
53.036,69.8253,0.008959
53.066,69.7853,0.008356
53.097,69.7468,0.008356
53.128,69.7082,0.008356
53.159,69.6708,0.008356
53.190,69.6340,0.008356
53.221,69.5977,0.008356
53.252,69.5611,0.008356
53.284,69.5256,0.008356
53.314,69.4929,0.008027
53.345,69.4596,0.008027
53.377,69.4251,0.008027
53.407,69.3946,0.008027
53.438,69.3631,0.008027
53.469,69.3323,0.008027
53.500,69.3033,0.008027
53.531,69.2739,0.007905
53.562,69.2455,0.007905
53.593,69.2188,0.007905
53.623,69.1914,0.007905
53.655,69.1651,0.007905
53.686,69.1401,0.007905
53.716,69.1155,0.007905
53.748,69.0911,0.007905
53.780,69.0677,0.007905
53.811,69.0445,0.007839
53.841,69.0240,0.007839
53.874,69.0016,0.007839
53.905,68.9817,0.007839
53.937,68.9610,0.007839
53.968,68.9420,0.007839
53.999,68.9242,0.007839
54.030,68.9069,0.007839
54.062,68.8901,0.007754
54.094,68.8738,0.007754
54.124,68.8589,0.007754
54.155,68.8443,0.007754
54.186,68.8311,0.007754
54.217,68.8181,0.007754
54.247,68.8061,0.007754
54.279,68.7946,0.007754
54.309,68.7839,0.007679
54.340,68.7738,0.007679
54.372,68.7643,0.007679
54.404,68.7551,0.007679
54.432,68.7483,0.007679
54.463,68.7412,0.007679
54.494,68.7347,0.007679
54.524,68.7291,0.007679
54.555,68.7242,0.007679
54.586,68.7198,0.007585
54.618,68.7163,0.007585
54.648,68.7134,0.007585
54.680,68.7113,0.007585
54.711,68.7100,0.007585
54.742,68.7094,0.007585
54.773,68.7094,0.007585
54.804,68.7094,0.007528
54.836,68.7094,0.007528
54.865,68.7094,0.007528
54.897,68.7094,0.007528
54.928,68.7094,0.007528
54.959,68.7097,0.007528
54.991,68.7110,0.007528
55.022,68.7128,0.007528
55.053,68.7153,0.007528
55.084,68.7188,0.007528
55.115,68.7229,0.007528
55.147,68.7277,0.007528
55.178,68.7334,0.007528
55.210,68.7396,0.007528
55.240,68.7464,0.007528
55.272,68.7544,0.007528
55.303,68.7628,0.007528
55.334,68.7722,0.007481
55.364,68.7820,0.007481
55.394,68.7920,0.007481
55.425,68.8030,0.007481
55.455,68.8149,0.007481
55.486,68.8278,0.007481
55.518,68.8418,0.007481
55.549,68.8561,0.007284
55.581,68.8713,0.007284
55.611,68.8865,0.007284
55.642,68.9030,0.007284
55.673,68.9199,0.007284
55.708,68.9404,0.007284
55.736,68.9572,0.007284
55.768,68.9770,0.007284
55.797,68.9966,0.007086
55.829,69.0174,0.007086
55.859,69.0389,0.007086
55.890,69.0603,0.007086
55.921,69.0830,0.007086
55.952,69.1072,0.007086
55.983,69.1314,0.007086
56.014,69.1570,0.007086
56.045,69.1825,0.006964
56.077,69.2103,0.006964
56.107,69.2363,0.006964
56.138,69.2649,0.006964
56.169,69.2933,0.006964
56.200,69.3231,0.006964
56.231,69.3528,0.006964
56.262,69.3839,0.006964
56.293,69.4159,0.006728
56.323,69.4472,0.006728
56.354,69.4807,0.006728
56.385,69.5141,0.006728
56.415,69.5486,0.006728
56.446,69.5832,0.006728
56.476,69.6181,0.006728
56.507,69.6549,0.006728
56.539,69.6930,0.006728
56.569,69.7303,0.006418
56.600,69.7683,0.006418
56.630,69.8076,0.006418
56.662,69.8480,0.006418
56.691,69.8884,0.006418
56.722,69.9293,0.006418
56.754,69.9723,0.006418
56.785,70.0157,0.006079
56.816,70.0595,0.006079
56.847,70.1052,0.006079
56.878,70.1503,0.006079
56.909,70.1969,0.006079
56.939,70.2419,0.006079
56.970,70.2887,0.006079
57.000,70.3332,0.006079
57.031,70.3806,0.006079
57.062,70.4260,0.005693
57.094,70.4745,0.005693
57.125,70.5205,0.005693
57.155,70.5661,0.005693
57.186,70.6122,0.005693
57.218,70.6597,0.005693
57.248,70.7060,0.005693
57.280,70.7539,0.005693
57.311,70.7994,0.005251
57.342,70.8464,0.005251
57.375,70.8961,0.005251
57.403,70.9387,0.005251
57.438,70.9895,0.005251
57.465,71.0300,0.005251
57.496,71.0780,0.005251
57.527,71.1238,0.005251
57.558,71.1695,0.004780
57.589,71.2169,0.004780
57.623,71.2678,0.004780
57.651,71.3104,0.004780
57.682,71.3563,0.004780
57.713,71.4028,0.004780
57.744,71.4485,0.004780
57.775,71.4954,0.004159
57.805,71.5414,0.004159
57.835,71.5855,0.004159
57.867,71.6341,0.004159
57.897,71.6786,0.004159
57.929,71.7267,0.004159
57.959,71.7722,0.004159
57.990,71.8190,0.004159
58.021,71.8643,0.004159
58.052,71.9116,0.003143
58.082,71.9560,0.003143
58.112,72.0014,0.003143
58.143,72.0481,0.003143
58.174,72.0942,0.003143
58.205,72.1407,0.003143
58.235,72.1856,0.003143
58.266,72.2320,0.003143
58.296,72.2774,0.001063
58.327,72.3210,0.001063
58.359,72.3679,0.001063
58.389,72.4100,0.001063
58.420,72.4550,0.001063
58.451,72.4953,0.001063
58.482,72.5378,0.001063
58.514,72.5793,0.001063
58.544,72.6197,0.001063
58.576,72.6594,-0.003284
58.606,72.6966,-0.003284
58.637,72.7344,-0.003284
58.667,72.7705,-0.003284
58.699,72.8082,-0.003284
58.729,72.8432,-0.003284
58.765,72.8852,-0.003284
58.791,72.9124,-0.011942
58.821,72.9465,-0.011942
58.853,72.9791,-0.011942
58.885,73.0126,-0.011942
58.915,73.0435,-0.011942
58.946,73.0744,-0.011942
58.977,73.1039,-0.011942
59.008,73.1339,-0.011942
59.039,73.1622,-0.026942
59.071,73.1903,-0.026942
59.101,73.2169,-0.026942
59.133,73.2437,-0.026942
59.164,73.2696,-0.026942
59.195,73.2945,-0.026942
59.229,73.3214,-0.026942
59.258,73.3426,-0.026942
59.288,73.3652,-0.047513
59.320,73.3874,-0.047513
59.350,73.4086,-0.047513
59.382,73.4298,-0.047513
59.413,73.4494,-0.047513
59.444,73.4686,-0.047513
59.475,73.4867,-0.047513
59.505,73.5044,-0.047513
59.535,73.5206,-0.047513
59.567,73.5373,-0.047513
59.597,73.5520,-0.070427
59.628,73.5667,-0.070427
59.659,73.5807,-0.070427
59.690,73.5944,-0.070427
59.721,73.6068,-0.070427
59.753,73.6189,-0.070427
59.784,73.6299,-0.094687
59.814,73.6400,-0.094687
59.845,73.6500,-0.094687
59.877,73.6591,-0.094687
59.908,73.6673,-0.094687
59.939,73.6746,-0.094687
59.971,73.6818,-0.094687
60.002,73.6878,-0.094687
60.035,73.6932,-0.094687
60.064,73.6973,-0.126504
60.094,73.7012,-0.126504
60.126,73.7043,-0.126504
60.156,73.7066,-0.126504
60.190,73.7084,-0.126504
60.219,73.7091,-0.126504
60.252,73.7094,-0.126504
60.281,73.7094,-0.126504
60.312,73.7094,-0.143687
60.344,73.7094,-0.143687
60.377,73.7094,-0.143687
60.405,73.7094,-0.143687
60.436,73.7094,-0.143687
60.468,73.7094,-0.143687
60.499,73.7094,-0.143687
60.529,73.7094,-0.143687
60.560,73.7094,-0.123737
60.591,73.7094,-0.123737
60.625,73.7094,-0.123737
60.652,73.7094,-0.123737
60.684,73.7094,-0.123737
60.715,73.7094,-0.123737
60.747,73.7094,-0.123737
60.778,73.7094,-0.123737
60.809,73.7094,-0.100738
60.840,73.7094,-0.100738
60.874,73.7094,-0.100738
60.902,73.7094,-0.100738
60.933,73.7094,-0.100738
60.964,73.7094,-0.100738
60.995,73.7094,-0.100738
61.026,73.7094,-0.100738
61.057,73.7094,-0.092768
61.088,73.7094,-0.092768
61.124,73.7094,-0.092768
61.150,73.7094,-0.092768
61.182,73.7094,-0.092768
61.213,73.7094,-0.092768
61.244,73.7094,-0.092768
61.274,73.7094,-0.092768
61.305,73.7094,-0.087761
61.336,73.7094,-0.087761
61.366,73.7094,-0.087761
61.397,73.7094,-0.087761
61.428,73.7094,-0.087761
61.459,73.7094,-0.087761
61.490,73.7094,-0.087761
61.522,73.7094,-0.087761
61.554,73.7094,-0.084044
61.584,73.7094,-0.084044
61.615,73.7094,-0.084044
61.646,73.7094,-0.084044
61.680,73.7094,-0.084044
61.711,73.7094,-0.084044
61.740,73.7094,-0.084044
61.772,73.7094,-0.084044
61.803,73.7094,-0.081089
61.833,73.7094,-0.081089
61.864,73.7094,-0.081089
61.895,73.7094,-0.081089
61.927,73.7094,-0.081089
61.957,73.7094,-0.081089
61.988,73.7094,-0.081089
62.020,73.7094,-0.081089
62.045,73.7094,-0.081089
62.083,73.7094,-0.078756
62.112,73.7094,-0.078756
62.144,73.7094,-0.078756
62.177,73.7094,-0.078756
62.206,73.7094,-0.078756
62.240,73.7094,-0.078756
62.268,73.7094,-0.078756
62.301,73.7094,-0.076817
62.330,73.7094,-0.076817
62.362,73.7094,-0.076817
62.392,73.7094,-0.076817
62.424,73.7094,-0.076817
62.454,73.7094,-0.076817
62.486,73.7094,-0.076817
62.516,73.7094,-0.076817
62.547,73.7094,-0.076817
62.577,73.7094,-0.075180
62.609,73.7094,-0.075180
62.640,73.7094,-0.075180
62.672,73.7094,-0.075180
62.702,73.7094,-0.075180
62.733,73.7094,-0.075180
62.764,73.7094,-0.075180
62.796,73.7094,-0.073768
62.827,73.7094,-0.073768
62.860,73.7094,-0.073768
62.888,73.7094,-0.073768
62.920,73.7094,-0.073768
62.951,73.7094,-0.073768
62.982,73.7094,-0.073768
63.013,73.7094,-0.073768
63.044,73.7094,-0.072460
63.076,73.7094,-0.072460
63.105,73.7094,-0.072460
63.136,73.7094,-0.072460
63.166,73.7094,-0.072460
63.197,73.7094,-0.072460
63.228,73.7094,-0.072460
63.262,73.7094,-0.072460
63.296,73.7094,-0.072460
63.336,73.7094,-0.071312
63.367,73.7094,-0.071312
63.399,73.7094,-0.071312
63.429,73.7094,-0.071312
63.460,73.7094,-0.071312
63.492,73.7094,-0.071312
63.523,73.7094,-0.070352
63.554,73.7094,-0.070352
63.586,73.7094,-0.070352
63.618,73.7094,-0.070352
63.648,73.7094,-0.070352
63.679,73.7094,-0.070352
63.710,73.7094,-0.070352
63.742,73.7094,-0.070352
63.772,73.7094,-0.070352
63.802,73.7094,-0.069420
63.834,73.7094,-0.069420
63.866,73.7094,-0.069420
63.898,73.7094,-0.069420
63.930,73.7094,-0.069420
63.960,73.7094,-0.069420
63.992,73.7094,-0.069420
64.022,73.7094,-0.069420
64.052,73.7094,-0.068489
64.086,73.7094,-0.068489
64.114,73.7094,-0.068489
64.147,73.7094,-0.068489
64.175,73.7094,-0.068489
64.209,73.7094,-0.068489
64.239,73.7094,-0.068489
64.267,73.7094,-0.068489
64.299,73.7094,-0.068489
64.331,73.7094,-0.067604
64.362,73.7094,-0.067604
64.395,73.7094,-0.067604
64.425,73.7094,-0.067604
64.456,73.7094,-0.067604
64.488,73.7094,-0.067604
64.519,73.7092,-0.067604
64.549,73.7086,-0.066823
64.582,73.7070,-0.066823
64.613,73.7049,-0.066823
64.644,73.7019,-0.066823
64.675,73.6982,-0.066823
64.707,73.6936,-0.066823
64.736,73.6889,-0.066823
64.767,73.6832,-0.066823
64.798,73.6765,-0.066823
64.828,73.6694,-0.050402
64.860,73.6611,-0.050402
64.890,73.6527,-0.050402
64.921,73.6431,-0.050402
64.952,73.6331,-0.050402
64.984,73.6218,-0.050402
65.015,73.6101,-0.050402
65.045,73.5984,-0.050402
65.077,73.5845,-0.030424
65.106,73.5719,-0.030424
65.138,73.5568,-0.030424
65.168,73.5421,-0.030424
65.202,73.5246,-0.030424
65.231,73.5094,-0.030424
65.261,73.4919,-0.030424
65.291,73.4741,-0.030424
65.322,73.4554,-0.018190
65.353,73.4360,-0.018190
65.385,73.4155,-0.018190
65.416,73.3945,-0.018190
65.449,73.3704,-0.018190
65.478,73.3498,-0.018190
65.510,73.3261,-0.018190
65.540,73.3029,-0.000292
65.571,73.2776,-0.000292
65.604,73.2505,-0.000292
65.633,73.2258,-0.000292
65.664,73.1996,-0.000292
65.695,73.1717,-0.000292
65.727,73.1423,-0.000292
65.757,73.1148,-0.000292
65.788,73.0842,-0.000292
65.819,73.0540,0.017014
65.852,73.0213,0.017014
65.881,72.9909,0.017014
65.912,72.9575,0.017014
65.944,72.9238,0.017014
65.975,72.8897,0.017014
66.005,72.8552,0.017014
66.038,72.8178,0.017014
66.068,72.7823,0.017014
66.100,72.7446,0.029191
66.130,72.7073,0.029191
66.162,72.6682,0.029191
66.192,72.6306,0.029191
66.223,72.5899,0.029191
66.253,72.5507,0.029191
66.284,72.5093,0.029191
66.315,72.4668,0.029191
66.347,72.4226,0.036108
66.378,72.3791,0.036108
66.410,72.3328,0.036108
66.441,72.2889,0.036108
66.472,72.2425,0.036108
66.504,72.1952,0.036108
66.533,72.1514,0.036108
66.564,72.1040,0.036108
66.595,72.0570,0.041058
66.627,72.0102,0.041058
66.657,71.9647,0.041058
66.689,71.9181,0.041058
66.725,71.8623,0.041058
66.751,71.8249,0.041058
66.783,71.7761,0.041058
66.813,71.7314,0.045132
66.845,71.6833,0.045132
66.875,71.6379,0.045132
66.906,71.5903,0.045132
66.938,71.5423,0.045132
66.969,71.4975,0.045132
67.000,71.4514,0.045132
67.030,71.4048,0.045132
67.062,71.3574,0.047494
67.092,71.3112,0.047494
67.123,71.2663,0.047494
67.155,71.2184,0.047494
67.185,71.1732,0.047494
67.216,71.1255,0.047494
67.247,71.0807,0.047494
67.278,71.0336,0.047494
67.309,70.9870,0.046638
67.339,70.9425,0.046638
67.370,70.8948,0.046638
67.401,70.8501,0.046638
67.431,70.8025,0.046638
67.462,70.7572,0.046638
67.493,70.7102,0.046638
67.524,70.6643,0.046638
67.556,70.6170,0.027610
67.586,70.5721,0.027610
67.617,70.5254,0.027610
67.648,70.4792,0.027610
67.678,70.4337,0.027610
67.710,70.3840,0.027610
67.740,70.3405,0.027610
67.771,70.2940,0.027610
67.802,70.2486,0.009382
67.832,70.2020,0.009382
67.863,70.1566,0.009382
67.894,70.1095,0.009382
67.925,70.0646,0.009382
67.956,70.0199,0.009382
67.987,69.9749,0.009382
68.019,69.9301,0.009382
68.050,69.8883,0.009382
68.081,69.8453,0.008394
68.113,69.8037,0.008394
68.143,69.7645,0.008394
68.174,69.7245,0.008394
68.205,69.6853,0.008394
68.237,69.6468,0.008394
68.267,69.6101,0.008394
68.299,69.5724,0.008055
68.330,69.5366,0.008055
68.360,69.5012,0.008055
68.391,69.4666,0.008055
68.422,69.4324,0.008055
68.453,69.4000,0.008055
68.484,69.3677,0.008055
68.514,69.3363,0.008055
68.545,69.3053,0.007886
68.577,69.2738,0.007886
68.608,69.2448,0.007886
68.640,69.2150,0.007886
68.670,69.1878,0.007886
68.702,69.1596,0.007886
68.732,69.1338,0.007886
68.764,69.1071,0.007886
68.794,69.0825,0.007801
68.827,69.0561,0.007801
68.856,69.0345,0.007801
68.887,69.0115,0.007801
68.917,68.9901,0.007801
68.948,68.9684,0.007801
68.979,68.9480,0.007801
69.009,68.9281,0.007801
69.041,68.9077,0.007735
69.072,68.8897,0.007735
69.103,68.8718,0.007735
69.134,68.8541,0.007735
69.165,68.8375,0.007735
69.196,68.8221,0.007735
69.228,68.8063,0.007735
69.258,68.7929,0.007735
69.289,68.7789,0.007735
69.322,68.7654,0.007688
69.351,68.7541,0.007688
69.383,68.7425,0.007688
69.415,68.7317,0.007688
69.447,68.7213,0.007688
69.476,68.7128,0.007688
69.507,68.7043,0.007688
69.542,68.6956,0.007651
69.570,68.6895,0.007651
69.601,68.6831,0.007651
69.632,68.6777,0.007651
69.662,68.6729,0.007651
69.694,68.6688,0.007651
69.725,68.6655,0.007651
69.756,68.6628,0.007651
69.788,68.6610,0.007575
69.820,68.6597,0.007575
69.849,68.6594,0.007575
69.880,68.6594,0.007575
69.911,68.6594,0.007575
69.942,68.6594,0.007575
69.973,68.6594,0.007575
70.005,68.6594,0.007575
70.035,68.6594,0.007575
70.066,68.6594,0.007547
70.097,68.6597,0.007547
70.128,68.6609,0.007547
70.159,68.6626,0.007547
70.190,68.6651,0.007547
70.220,68.6684,0.007547
70.254,68.6729,0.007547
70.282,68.6771,0.007547
70.316,68.6832,0.007481
70.345,68.6888,0.007481
70.375,68.6955,0.007481
70.406,68.7033,0.007481
70.440,68.7125,0.007481
70.469,68.7205,0.007481
70.499,68.7302,0.007481
70.530,68.7406,0.007481
70.561,68.7521,0.007302
70.592,68.7638,0.007302
70.622,68.7762,0.007302
70.654,68.7898,0.007302
70.684,68.8036,0.007302
70.715,68.8187,0.007302
70.746,68.8342,0.007302
70.776,68.8501,0.007302
70.807,68.8670,0.007218
70.837,68.8844,0.007218
70.869,68.9035,0.007218
70.900,68.9229,0.007218
70.935,68.9455,0.007218
70.962,68.9630,0.007218
70.994,68.9847,0.007218
71.024,69.0068,0.007218
71.056,69.0308,0.007067
71.086,69.0529,0.007067
71.118,69.0783,0.007067
71.148,69.1024,0.007067
71.180,69.1289,0.007067
71.211,69.1551,0.007067
71.242,69.1829,0.007067
71.272,69.2102,0.007067
71.304,69.2388,0.006804
71.334,69.2676,0.006804
71.365,69.2987,0.006804
71.396,69.3286,0.006804
71.426,69.3596,0.006804
71.458,69.3921,0.006804
71.489,69.4256,0.006804
71.520,69.4593,0.006804
71.551,69.4937,0.006804
71.583,69.5308,0.006550
71.614,69.5654,0.006550
71.645,69.6023,0.006550
71.676,69.6399,0.006550
71.706,69.6770,0.006550
71.739,69.7175,0.006550
71.769,69.7561,0.006550
71.800,69.7965,0.006550
71.831,69.8372,0.006550
71.862,69.8803,0.006296
71.893,69.9226,0.006296
71.926,69.9676,0.006296
71.955,70.0099,0.006296
71.987,70.0560,0.006296
72.018,70.1003,0.006296
72.054,70.1545,0.006296
72.079,70.1937,0.006296
72.110,70.2392,0.005966
72.141,70.2854,0.005966
72.174,70.3348,0.005966
72.203,70.3783,0.005966
72.234,70.4242,0.005966
72.265,70.4714,0.005966
72.296,70.5186,0.005966
72.327,70.5644,0.005590
72.358,70.6101,0.005590
72.388,70.6558,0.005590
72.419,70.7028,0.005590
72.450,70.7478,0.005590
72.481,70.7951,0.005590
72.512,70.8405,0.005590
72.542,70.8870,0.005590
72.573,70.9326,0.005110
72.603,70.9785,0.005110
72.635,71.0262,0.005110
72.666,71.0725,0.005110
72.697,71.1186,0.005110
72.727,71.1659,0.005110
72.759,71.2119,0.005110
72.789,71.2582,0.005110
72.820,71.3041,0.004545
72.856,71.3579,0.004545
72.898,71.4205,0.004545
72.928,71.4648,0.004545
72.958,71.5108,0.004545
72.990,71.5578,0.004545
73.021,71.6049,0.004545
73.052,71.6522,0.004545
73.083,71.6991,0.003783
73.114,71.7440,0.003783
73.144,71.7912,0.003783
73.176,71.8376,0.003783
73.207,71.8834,0.003783
73.238,71.9301,0.003783
73.268,71.9761,0.003783
73.301,72.0246,0.002371
73.331,72.0696,0.002371
73.362,72.1163,0.002371
73.393,72.1632,0.002371
73.423,72.2084,0.002371
73.455,72.2548,0.002371
73.486,72.3003,0.002371
73.516,72.3431,0.002371
73.547,72.3860,0.002371
73.579,72.4293,-0.000489
73.609,72.4707,-0.000489
73.642,72.5139,-0.000489
73.672,72.5547,-0.000489
73.705,72.5959,-0.000489
73.733,72.6312,-0.000489
73.764,72.6691,-0.000489
73.795,72.7070,-0.006324
73.827,72.7445,-0.006324
73.857,72.7805,-0.006324
73.888,72.8154,-0.006324
73.920,72.8514,-0.006324
73.950,72.8841,-0.006324
73.982,72.9186,-0.006324
74.012,72.9506,-0.006324
74.044,72.9827,-0.017503
74.075,73.0133,-0.017503
74.105,73.0426,-0.017503
74.136,73.0730,-0.017503
74.167,73.1016,-0.017503
74.200,73.1310,-0.017503
74.230,73.1573,-0.017503
74.262,73.1854,-0.017503
74.293,73.2110,-0.035195
74.327,73.2398,-0.035195
74.355,73.2611,-0.035195
74.387,73.2848,-0.035195
74.417,73.3072,-0.035195
74.453,73.3334,-0.035195
74.479,73.3514,-0.035195
74.509,73.3716,-0.035195
74.540,73.3920,-0.035195
74.571,73.4108,-0.057319
74.602,73.4297,-0.057319
74.633,73.4478,-0.057319
74.664,73.4647,-0.057319
74.696,73.4814,-0.057319
74.725,73.4964,-0.057319
74.756,73.5114,-0.057319
74.787,73.5258,-0.080449
74.819,73.5396,-0.080449
74.850,73.5526,-0.080449
74.882,73.5650,-0.080449
74.912,73.5760,-0.080449
74.943,73.5866,-0.080449
74.974,73.5965,-0.080449
75.004,73.6057,-0.080449
75.035,73.6142,-0.108172
75.066,73.6217,-0.108172
75.097,73.6287,-0.108172
75.128,73.6352,-0.108172
75.159,73.6408,-0.108172
75.190,73.6456,-0.108172
75.222,73.6497,-0.108172
75.252,73.6531,-0.108172
75.283,73.6558,-0.108172
75.314,73.6576,-0.139208
75.345,73.6589,-0.139208
75.375,73.6594,-0.139208
75.408,73.6594,-0.139208
75.438,73.6594,-0.139208
75.469,73.6594,-0.139208
75.500,73.6594,-0.139208
75.531,73.6594,-0.139208
75.562,73.6594,-0.136244
75.593,73.6594,-0.136244
75.624,73.6594,-0.136244
75.655,73.6594,-0.136244
75.686,73.6594,-0.136244
75.718,73.6594,-0.136244
75.750,73.6594,-0.136244
75.781,73.6594,-0.136244
75.812,73.6594,-0.109452
75.844,73.6594,-0.109452
75.874,73.6594,-0.109452
75.906,73.6594,-0.109452
75.938,73.6594,-0.109452
75.969,73.6594,-0.109452
75.999,73.6594,-0.109452
76.031,73.6594,-0.096588
76.062,73.6594,-0.096588
76.093,73.6594,-0.096588
76.124,73.6594,-0.096588
76.155,73.6594,-0.096588
76.188,73.6594,-0.096588
76.218,73.6594,-0.096588
76.249,73.6594,-0.096588
76.280,73.6594,-0.096588
76.311,73.6594,-0.090293
76.342,73.6594,-0.090293
76.374,73.6594,-0.090293
76.405,73.6594,-0.090293
76.437,73.6594,-0.090293
76.466,73.6594,-0.090293
76.499,73.6594,-0.090293
76.528,73.6594,-0.090293
76.559,73.6594,-0.085898
76.591,73.6594,-0.085898
76.621,73.6594,-0.085898
76.654,73.6594,-0.085898
76.684,73.6594,-0.085898
76.715,73.6594,-0.085898
76.746,73.6594,-0.085898
76.777,73.6594,-0.085898
76.808,73.6594,-0.085898
76.839,73.6594,-0.082510
76.871,73.6594,-0.082510
76.901,73.6594,-0.082510
76.934,73.6594,-0.082510
76.962,73.6594,-0.082510
76.994,73.6594,-0.082510
77.028,73.6594,-0.082510
77.056,73.6594,-0.082510
77.086,73.6594,-0.079838
77.118,73.6594,-0.079838
77.148,73.6594,-0.079838
77.180,73.6594,-0.079838
77.211,73.6594,-0.079838
77.241,73.6594,-0.079838
77.273,73.6594,-0.079838
77.304,73.6594,-0.077739
77.334,73.6594,-0.077739
77.370,73.6594,-0.077739
77.397,73.6594,-0.077739
77.427,73.6594,-0.077739
77.458,73.6594,-0.077739
77.488,73.6594,-0.077739
77.521,73.6594,-0.077739
77.550,73.6594,-0.077739
77.581,73.6594,-0.075970
77.613,73.6594,-0.075970
77.643,73.6594,-0.075970
77.675,73.6594,-0.075970
77.706,73.6594,-0.075970
77.738,73.6594,-0.075970
77.768,73.6594,-0.075970
77.799,73.6594,-0.075970
77.830,73.6594,-0.074380
77.862,73.6594,-0.074380
77.892,73.6594,-0.074380
77.926,73.6594,-0.074380
77.954,73.6594,-0.074380
77.985,73.6594,-0.074380
78.016,73.6594,-0.074380
78.047,73.6594,-0.074380
78.077,73.6594,-0.073015
78.108,73.6594,-0.073015
78.139,73.6594,-0.073015
78.171,73.6594,-0.073015
78.202,73.6594,-0.073015
78.234,73.6594,-0.073015
78.263,73.6594,-0.073015
78.294,73.6594,-0.073015
78.325,73.6594,-0.071820
78.357,73.6594,-0.071820
78.388,73.6594,-0.071820
78.418,73.6594,-0.071820
78.449,73.6594,-0.071820
78.479,73.6594,-0.071820
78.510,73.6594,-0.071820
78.542,73.6594,-0.071820
78.573,73.6594,-0.070776
78.604,73.6594,-0.070776
78.635,73.6594,-0.070776
78.667,73.6594,-0.070776
78.698,73.6594,-0.070776
78.729,73.6594,-0.070776
78.761,73.6594,-0.070776
78.790,73.6594,-0.069816
78.822,73.6594,-0.069816
78.853,73.6594,-0.069816
78.883,73.6594,-0.069816
78.915,73.6594,-0.069816
78.946,73.6594,-0.069816
78.977,73.6594,-0.069816
79.009,73.6594,-0.069816
79.039,73.6594,-0.069816
79.070,73.6594,-0.068875
79.106,73.6594,-0.068875
79.132,73.6594,-0.068875
79.164,73.6594,-0.068875
79.195,73.6594,-0.068875
79.226,73.6594,-0.068875
79.258,73.6594,-0.068875
79.289,73.6594,-0.068875
79.320,73.6594,-0.067905
79.352,73.6594,-0.067905
79.383,73.6594,-0.067905
79.415,73.6594,-0.067905
79.446,73.6594,-0.067905
79.478,73.6594,-0.067905
79.509,73.6594,-0.067905
79.540,73.6594,-0.067905
79.570,73.6594,-0.067040
79.602,73.6594,-0.067040
79.632,73.6594,-0.067040
79.663,73.6594,-0.067040
79.694,73.6594,-0.067040
79.725,73.6591,-0.067040
79.757,73.6581,-0.067040
79.787,73.6564,-0.067040
79.819,73.6539,-0.066466
79.850,73.6507,-0.066466
79.882,73.6467,-0.066466
79.912,73.6420,-0.066466
79.938,73.6377,-0.066466
79.975,73.6304,-0.066466
80.007,73.6235,-0.066466
80.036,73.6161,-0.066466
80.067,73.6078,-0.066466
80.098,73.5991,-0.043250
80.129,73.5893,-0.043250
80.160,73.5789,-0.043250
80.190,73.5680,-0.043250
80.220,73.5564,-0.043250
80.251,73.5439,-0.043250
80.282,73.5306,-0.021766
80.313,73.5166,-0.021766
80.343,73.5017,-0.021766
80.375,73.4862,-0.021766
80.406,73.4695,-0.021766
80.437,73.4531,-0.021766
80.468,73.4349,-0.021766
80.498,73.4172,-0.021766
80.530,73.3977,-0.021766
80.561,73.3777,-0.014276
80.593,73.3564,-0.014276
80.623,73.3362,-0.014276
80.656,73.3125,-0.014276
80.685,73.2914,-0.014276
80.717,73.2657,-0.014276
80.746,73.2438,-0.014276
80.778,73.2187,-0.014276
80.809,73.1929,0.004178
80.840,73.1668,0.004178
80.870,73.1393,0.004178
80.901,73.1122,0.004178
80.932,73.0833,0.004178
80.963,73.0545,0.004178
80.994,73.0243,0.004178
81.025,72.9940,0.004178
81.056,72.9619,0.020835
81.087,72.9296,0.020835
81.117,72.8978,0.020835
81.148,72.8643,0.020835
81.179,72.8303,0.020835
81.212,72.7928,0.020835
81.242,72.7587,0.020835
81.272,72.7221,0.020835
81.303,72.6849,0.031995
81.334,72.6473,0.031995
81.365,72.6083,0.031995
81.396,72.5686,0.031995
81.427,72.5287,0.031995
81.458,72.4880,0.031995
81.489,72.4463,0.031995
81.520,72.4036,0.031995
81.551,72.3607,0.031995
81.582,72.3157,0.038413
81.613,72.2713,0.038413
81.644,72.2264,0.038413
81.676,72.1800,0.038413
81.707,72.1323,0.038413
81.738,72.0860,0.038413
81.769,72.0394,0.038413
81.800,71.9939,0.043316
81.831,71.9475,0.043316
81.862,71.9004,0.043316
81.893,71.8535,0.043316
81.923,71.8088,0.043316
81.955,71.7619,0.043316
81.987,71.7142,0.043316
82.016,71.6689,0.043316
82.047,71.6223,0.046911
82.083,71.5695,0.046911
82.109,71.5295,0.046911
82.140,71.4830,0.046911
82.171,71.4368,0.046911
82.202,71.3895,0.046911
82.233,71.3439,0.046911
82.265,71.2950,0.046911
82.293,71.2527,0.048812
82.324,71.2073,0.048812
82.356,71.1568,0.048812
82.386,71.1149,0.048812
82.417,71.0677,0.048812
82.447,71.0226,0.048812
82.479,70.9751,0.048812
82.509,70.9291,0.048812
82.546,70.8741,0.045132
82.588,70.8117,0.045132
82.619,70.7653,0.045132
82.649,70.7199,0.045132
82.681,70.6724,0.045132
82.712,70.6259,0.045132
82.742,70.5802,0.045132
82.774,70.5330,0.045132
82.805,70.4855,0.025192
82.836,70.4389,0.025192
82.871,70.3879,0.025192
82.897,70.3478,0.025192
82.928,70.3022,0.025192
82.958,70.2556,0.025192
82.990,70.2084,0.025192
83.022,70.1614,0.025192
83.056,70.1087,0.025192
83.083,70.0696,0.009166
83.115,70.0224,0.009166
83.145,69.9782,0.009166
83.178,69.9304,0.009166
83.209,69.8887,0.009166
83.237,69.8485,0.009166
83.269,69.8055,0.009166
83.299,69.7659,0.008432
83.330,69.7247,0.008432
83.361,69.6852,0.008432
83.393,69.6449,0.008432
83.423,69.6072,0.008432
83.457,69.5652,0.008432
83.486,69.5324,0.008432
83.516,69.4968,0.008432
83.547,69.4617,0.008093
83.578,69.4266,0.008093
83.608,69.3927,0.008093
83.638,69.3605,0.008093
83.669,69.3276,0.008093
83.700,69.2961,0.008093
83.731,69.2645,0.008093
83.762,69.2348,0.008093
83.793,69.2042,0.007933
83.824,69.1757,0.007933
83.857,69.1442,0.007933
83.885,69.1201,0.007933
83.917,69.0923,0.007933
83.947,69.0669,0.007933
83.979,69.0411,0.007933
84.010,69.0157,0.007933
84.041,68.9919,0.007839
84.072,68.9692,0.007839
84.103,68.9466,0.007839
84.134,68.9250,0.007839
84.164,68.9044,0.007839
84.197,68.8826,0.007839
84.225,68.8651,0.007839
84.256,68.8465,0.007839
84.287,68.8279,0.007839
84.319,68.8102,0.007773
84.349,68.7934,0.007773
84.380,68.7777,0.007773
84.412,68.7623,0.007773
84.443,68.7478,0.007773
84.473,68.7338,0.007773
84.505,68.7203,0.007773
84.538,68.7070,0.007773
84.568,68.6963,0.007773
84.599,68.6853,0.007726
84.630,68.6750,0.007726
84.661,68.6658,0.007726
84.691,68.6573,0.007726
84.722,68.6493,0.007726
84.753,68.6420,0.007726
84.785,68.6354,0.007726
84.814,68.6297,0.007641
84.848,68.6244,0.007641
84.878,68.6202,0.007641
84.906,68.6168,0.007641
84.939,68.6139,0.007641
84.969,68.6117,0.007641
85.001,68.6101,0.007641
85.031,68.6095,0.007566
85.064,68.6094,0.007566
85.094,68.6094,0.007566
85.124,68.6094,0.007566
85.157,68.6094,0.007566
85.187,68.6094,0.007566
85.218,68.6094,0.007566
85.248,68.6100,0.007566
85.279,68.6114,0.007566
85.310,68.6134,0.007566
85.341,68.6161,0.007585
85.373,68.6198,0.007585
85.404,68.6240,0.007585
85.434,68.6287,0.007585
85.468,68.6352,0.007585
85.496,68.6409,0.007585
85.529,68.6486,0.007585
85.559,68.6563,0.007585
85.592,68.6651,0.007453
85.622,68.6743,0.007453
85.653,68.6846,0.007453
85.684,68.6953,0.007453
85.715,68.7069,0.007453
85.745,68.7189,0.007453
85.776,68.7318,0.007453
85.808,68.7458,0.007453
85.839,68.7600,0.007265
85.870,68.7753,0.007265
85.901,68.7911,0.007265
85.932,68.8083,0.007265
85.963,68.8249,0.007265
85.994,68.8435,0.007265
86.025,68.8622,0.007265
86.056,68.8815,0.007265
86.087,68.9023,0.007114
86.118,68.9237,0.007114
86.150,68.9457,0.007114
86.181,68.9681,0.007114
86.212,68.9908,0.007114
86.243,69.0148,0.007114
86.274,69.0393,0.007114
86.305,69.0648,0.006983
86.336,69.0918,0.006983
86.368,69.1189,0.006983
86.402,69.1495,0.006983
86.430,69.1744,0.006983
86.461,69.2041,0.006983
86.492,69.2340,0.006983
86.523,69.2635,0.006983
86.554,69.2955,0.006785
86.585,69.3272,0.006785
86.618,69.3623,0.006785
86.647,69.3936,0.006785
86.680,69.4301,0.006785
86.709,69.4621,0.006785
86.740,69.4975,0.006785
86.774,69.5378,0.006785
86.801,69.5705,0.006785
86.832,69.6075,0.006540
86.864,69.6471,0.006540
86.894,69.6853,0.006540
86.925,69.7255,0.006540
86.956,69.7675,0.006540
86.987,69.8071,0.006540
87.018,69.8505,0.006211
87.050,69.8935,0.006211
87.081,69.9369,0.006211
87.111,69.9815,0.006211
87.142,70.0252,0.006211
87.174,70.0742,0.006211
87.205,70.1193,0.006211
87.235,70.1646,0.006211
87.267,70.2131,0.006211
87.298,70.2590,0.005740
87.329,70.3054,0.005740
87.361,70.3533,0.005740
87.392,70.3995,0.005740
87.422,70.4448,0.005740
87.454,70.4923,0.005740
87.484,70.5377,0.005740
87.515,70.5856,0.005740
87.545,70.6292,0.005740
87.576,70.6762,0.005336
87.607,70.7214,0.005336
87.638,70.7688,0.005336
87.668,70.8137,0.005336
87.701,70.8653,0.005336
87.730,70.9069,0.005336
87.764,70.9584,0.005336
87.793,71.0009,0.005336
87.826,71.0527,0.004922
87.855,71.0943,0.004922
87.886,71.1405,0.004922
87.917,71.1878,0.004922
87.948,71.2350,0.004922
87.980,71.2812,0.004922
88.012,71.3310,0.004922
88.041,71.3745,0.004922
88.073,71.4203,0.004922
88.103,71.4676,0.004272
88.134,71.5123,0.004272
88.164,71.5581,0.004272
88.195,71.6039,0.004272
88.227,71.6542,0.004272
88.257,71.6963,0.004272
88.291,71.7498,0.003294
88.319,71.7906,0.003294
88.351,71.8377,0.003294
88.382,71.8851,0.003294
88.413,71.9302,0.003294
88.444,71.9789,0.003294
88.475,72.0249,0.003294
88.507,72.0713,0.003294
88.539,72.1205,0.001440
88.569,72.1646,0.001440
88.600,72.2094,0.001440
88.630,72.2538,0.001440
88.660,72.2972,0.001440
88.691,72.3408,0.001440
88.722,72.3821,0.001440
88.754,72.4251,0.001440
88.784,72.4657,0.001440
88.816,72.5062,-0.002456
88.847,72.5474,-0.002456
88.879,72.5873,-0.002456
88.911,72.6263,-0.002456
88.942,72.6640,-0.002456
88.972,72.6989,-0.002456
89.002,72.7349,-0.002456
89.039,72.7758,-0.002456
89.080,72.8214,-0.010380
89.111,72.8557,-0.010380
89.142,72.8883,-0.010380
89.173,72.9201,-0.010380
89.204,72.9513,-0.010380
89.235,72.9821,-0.010380
89.266,73.0121,-0.010380
89.297,73.0408,-0.024495
89.328,73.0698,-0.024495
89.359,73.0971,-0.024495
89.392,73.1267,-0.024495
89.421,73.1504,-0.024495
89.453,73.1761,-0.024495
89.484,73.2007,-0.024495
89.515,73.2253,-0.024495
89.546,73.2485,-0.044549
89.576,73.2703,-0.044549
89.608,73.2934,-0.044549
89.639,73.3136,-0.044549
89.670,73.3339,-0.044549
89.701,73.3542,-0.044549
89.732,73.3725,-0.044549
89.762,73.3904,-0.044549
89.792,73.4075,-0.067388
89.823,73.4242,-0.067388
89.854,73.4402,-0.067388
89.887,73.4564,-0.067388
89.917,73.4704,-0.067388
89.948,73.4844,-0.067388
89.979,73.4977,-0.067388
90.013,73.5110,-0.067388
90.042,73.5218,-0.091168
90.073,73.5331,-0.091168
90.107,73.5439,-0.091168
90.134,73.5523,-0.091168
90.165,73.5613,-0.091168
90.197,73.5692,-0.091168
90.228,73.5765,-0.091168
90.260,73.5832,-0.091168
90.295,73.5899,-0.122401
90.321,73.5940,-0.122401
90.355,73.5989,-0.122401
90.384,73.6021,-0.122401
90.415,73.6051,-0.122401
90.447,73.6072,-0.122401
90.478,73.6087,-0.122401
90.508,73.6093,-0.122401
90.540,73.6094,-0.144167
90.571,73.6094,-0.144167
90.602,73.6094,-0.144167
90.631,73.6094,-0.144167
90.662,73.6094,-0.144167
