Elapsed Time (s),Position (mm),Force (N)
-0.008,67.6594,-0.485774
0.023,67.6594,-0.485774
0.054,67.6594,-0.485774
0.085,67.6594,-0.485774
0.116,67.6594,-0.485774
0.147,67.6594,-0.485774
0.178,67.6594,-0.485774
0.210,67.6594,-0.485774
0.241,67.6594,-0.311465
0.273,67.6594,-0.311465
0.303,67.6594,-0.311465
0.335,67.6594,-0.311465
0.368,67.6594,-0.311465
0.397,67.6594,-0.311465
0.429,67.6594,-0.311465
0.461,67.6594,-0.235551
0.491,67.6594,-0.235551
0.522,67.6594,-0.235551
0.553,67.6594,-0.235551
0.583,67.6594,-0.235551
0.614,67.6594,-0.235551
0.645,67.6594,-0.235551
0.677,67.6594,-0.235551
0.707,67.6594,-0.235551
0.738,67.6594,-0.207725
0.769,67.6594,-0.207725
0.800,67.6594,-0.207725
0.831,67.6594,-0.207725
0.862,67.6594,-0.207725
0.893,67.6594,-0.207725
0.925,67.6594,-0.207725
0.955,67.6594,-0.207725
0.986,67.6594,-0.193158
1.017,67.6594,-0.193158
1.049,67.6594,-0.193158
1.080,67.6594,-0.193158
1.112,67.6594,-0.193158
1.142,67.6594,-0.193158
1.172,67.6594,-0.193158
1.203,67.6594,-0.193158
1.234,67.6594,-0.183710
1.265,67.6594,-0.183710
1.300,67.6594,-0.183710
1.328,67.6594,-0.183710
1.359,67.6594,-0.183710
1.391,67.6594,-0.183710
1.422,67.6594,-0.183710
1.453,67.6594,-0.183710
1.483,67.6594,-0.183710
1.514,67.6594,-0.183710
1.545,67.6594,-0.176915
1.576,67.6594,-0.176915
1.607,67.6594,-0.176915
1.638,67.6594,-0.176915
1.669,67.6594,-0.176915
1.701,67.6594,-0.176915
1.732,67.6594,-0.176915
1.763,67.6594,-0.171617
1.793,67.6594,-0.171617
1.824,67.6594,-0.171617
1.856,67.6594,-0.171617
1.887,67.6594,-0.171617
1.918,67.6594,-0.171617
1.949,67.6594,-0.171617
1.980,67.6594,-0.171617
2.011,67.6594,-0.167383
2.042,67.6594,-0.167383
2.073,67.6594,-0.167383
2.103,67.6594,-0.167383
2.136,67.6594,-0.167383
2.166,67.6594,-0.167383
2.197,67.6594,-0.167383
2.228,67.6594,-0.163863
2.263,67.6594,-0.163863
2.289,67.6594,-0.163863
2.319,67.6594,-0.163863
2.351,67.6594,-0.163863
2.381,67.6594,-0.163863
2.412,67.6594,-0.163863
2.444,67.6594,-0.163863
2.475,67.6594,-0.160786
2.506,67.6594,-0.160786
2.537,67.6594,-0.160786
2.569,67.6594,-0.160786
2.598,67.6594,-0.160786
2.629,67.6594,-0.160786
2.661,67.6594,-0.160786
2.694,67.6594,-0.160786
2.723,67.6594,-0.158207
2.754,67.6594,-0.158207
2.784,67.6594,-0.158207
2.815,67.6594,-0.158207
2.846,67.6594,-0.158207
2.878,67.6594,-0.158207
2.911,67.6594,-0.158207
2.941,67.6594,-0.158207
2.972,67.6594,-0.155958
3.004,67.6594,-0.155958
3.034,67.6594,-0.155958
3.064,67.6594,-0.155958
3.095,67.6594,-0.155958
3.127,67.6594,-0.155958
3.157,67.6594,-0.155958
3.189,67.6594,-0.155958
3.219,67.6594,-0.153841
3.250,67.6594,-0.153841
3.281,67.6594,-0.153841
3.311,67.6594,-0.153841
3.345,67.6594,-0.153841
3.373,67.6594,-0.153841
3.404,67.6594,-0.153841
3.434,67.6594,-0.153841
3.466,67.6594,-0.153841
3.497,67.6594,-0.151921
3.528,67.6594,-0.151921
3.560,67.6594,-0.151921
3.595,67.6594,-0.151921
3.622,67.6594,-0.151921
3.653,67.6594,-0.151921
3.684,67.6594,-0.151921
3.715,67.6594,-0.151921
3.746,67.6594,-0.149559
3.777,67.6594,-0.149559
3.807,67.6594,-0.149559
3.839,67.6594,-0.149559
3.870,67.6594,-0.149559
3.901,67.6594,-0.149559
3.932,67.6594,-0.149559
3.964,67.6594,-0.146623
3.994,67.6594,-0.146623
4.025,67.6594,-0.146623
4.055,67.6594,-0.146623
4.086,67.6594,-0.146623
4.117,67.6594,-0.146623
4.148,67.6586,-0.146623
4.179,67.6573,-0.146623
4.209,67.6553,-0.146623
4.241,67.6523,-0.143555
4.273,67.6487,-0.143555
4.305,67.6441,-0.143555
4.336,67.6390,-0.143555
4.367,67.6332,-0.143555
4.398,67.6268,-0.143555
4.430,67.6193,-0.143555
4.461,67.6113,0.099891
4.492,67.6023,0.099891
4.521,67.5936,0.099891
4.552,67.5836,0.099891
4.583,67.5727,0.099891
4.614,67.5610,0.099891
4.649,67.5473,0.099891
4.676,67.5358,0.099891
4.707,67.5217,0.099891
4.740,67.5066,0.176962
4.765,67.4944,0.176962
4.800,67.4761,0.176962
4.832,67.4591,0.176962
4.863,67.4416,0.176962
4.895,67.4230,0.176962
4.925,67.4041,0.176962
4.957,67.3843,0.011716
4.989,67.3632,0.011716
5.022,67.3409,0.011716
5.050,67.3210,0.011716
5.081,67.2982,0.011716
5.112,67.2755,0.011716
5.143,67.2512,0.011716
5.177,67.2239,0.011716
5.204,67.2012,0.011716
5.236,67.1752,0.021832
5.266,67.1481,0.021832
5.298,67.1202,0.021832
5.329,67.0920,0.021832
5.359,67.0631,0.021832
5.391,67.0328,0.021832
5.423,67.0012,0.021832
5.454,66.9696,0.021832
5.487,66.9357,0.041679
5.517,66.9022,0.041679
5.549,66.8701,0.041679
5.582,66.8333,0.041679
5.611,66.8004,0.041679
5.643,66.7636,0.041679
5.673,66.7285,0.041679
5.704,66.6909,0.041679
5.735,66.6522,0.056396
5.766,66.6151,0.056396
5.798,66.5737,0.056396
5.828,66.5347,0.056396
5.859,66.4933,0.056396
5.891,66.4514,0.056396
5.921,66.4101,0.056396
5.952,66.3682,0.056396
5.983,66.3241,0.064329
6.013,66.2815,0.064329
6.043,66.2373,0.064329
6.074,66.1919,0.064329
6.105,66.1454,0.064329
6.136,66.0977,0.064329
6.167,66.0525,0.064329
6.198,66.0054,0.064329
6.229,65.9595,0.067727
6.259,65.9131,0.067727
6.290,65.8680,0.067727
6.320,65.8223,0.067727
6.351,65.7763,0.067727
6.382,65.7289,0.067727
6.413,65.6827,0.067727
6.444,65.6354,0.067727
6.475,65.5899,0.068555
6.506,65.5423,0.068555
6.537,65.4976,0.068555
6.568,65.4500,0.068555
6.599,65.4041,0.068555
6.630,65.3563,0.068555
6.661,65.3105,0.068555
6.692,65.2649,0.068555
6.724,65.2174,0.068225
6.754,65.1707,0.068225
6.786,65.1240,0.068225
6.817,65.0756,0.068225
6.848,65.0309,0.068225
6.879,64.9836,0.068225
6.910,64.9378,0.068225
6.942,64.8893,0.068225
6.972,64.8440,0.068225
7.003,64.7982,0.071302
7.034,64.7524,0.071302
7.065,64.7035,0.071302
7.096,64.6580,0.071302
7.127,64.6112,0.071302
7.160,64.5629,0.071302
7.192,64.5154,0.071302
7.221,64.4704,0.079395
7.253,64.4231,0.079395
7.283,64.3777,0.079395
7.318,64.3250,0.079395
7.344,64.2864,0.079395
7.376,64.2392,0.079395
7.406,64.1937,0.079395
7.442,64.1392,0.079395
7.469,64.0993,0.079395
7.500,64.0519,0.084637
7.531,64.0076,0.084637
7.562,63.9620,0.084637
7.593,63.9192,0.084637
7.624,63.8748,0.084637
7.655,63.8323,0.084637
7.686,63.7908,0.084637
7.717,63.7505,0.051484
7.747,63.7113,0.051484
7.777,63.6728,0.051484
7.807,63.6343,0.051484
7.838,63.5952,0.051484
7.870,63.5578,0.051484
7.900,63.5211,0.051484
7.931,63.4854,0.051484
7.962,63.4495,0.015998
7.993,63.4158,0.015998
8.024,63.3804,0.015998
8.055,63.3487,0.015998
8.086,63.3158,0.015998
8.118,63.2838,0.015998
8.149,63.2533,0.015998
8.181,63.2217,0.015998
8.211,63.1930,0.015998
8.242,63.1646,0.013673
8.273,63.1362,0.013673
8.305,63.1080,0.013673
8.336,63.0814,0.013673
8.367,63.0554,0.013673
8.397,63.0313,0.013673
8.428,63.0069,0.013673
8.459,62.9832,0.013033
8.490,62.9604,0.013033
8.520,62.9383,0.013033
8.551,62.9173,0.013033
8.581,62.8966,0.013033
8.612,62.8767,0.013033
8.643,62.8574,0.013033
8.675,62.8385,0.013033
8.705,62.8210,0.013033
8.736,62.8037,0.012676
8.770,62.7855,0.012676
8.800,62.7709,0.012676
8.834,62.7544,0.012676
8.862,62.7415,0.012676
8.894,62.7277,0.012676
8.925,62.7144,0.012676
8.956,62.7027,0.012676
8.987,62.6912,0.012393
9.018,62.6809,0.012393
9.050,62.6709,0.012393
9.080,62.6617,0.012393
9.111,62.6534,0.012393
9.142,62.6459,0.012393
9.173,62.6392,0.012393
9.203,62.6330,0.012393
9.235,62.6274,0.012186
9.266,62.6225,0.012186
9.297,62.6186,0.012186
9.330,62.6151,0.012186
9.361,62.6126,0.012186
9.392,62.6108,0.012186
9.423,62.6098,0.012186
9.454,62.6094,0.012186
9.484,62.6094,0.012026
9.517,62.6094,0.012026
9.545,62.6094,0.012026
9.576,62.6094,0.012026
9.607,62.6094,0.012026
9.638,62.6099,0.012026
9.669,62.6110,0.012026
9.700,62.6129,0.012026
9.730,62.6155,0.011914
9.761,62.6188,0.011914
9.792,62.6229,0.011914
9.823,62.6276,0.011914
9.854,62.6332,0.011914
9.888,62.6401,0.011914
9.917,62.6466,0.011914
9.948,62.6544,0.011914
9.979,62.6626,0.011707
10.010,62.6721,0.011707
10.041,62.6818,0.011707
10.072,62.6927,0.011707
10.104,62.7044,0.011707
10.134,62.7159,0.011707
10.166,62.7293,0.011707
10.197,62.7430,0.011707
10.229,62.7573,0.011443
10.259,62.7722,0.011443
10.291,62.7881,0.011443
10.322,62.8046,0.011443
10.352,62.8215,0.011443
10.383,62.8393,0.011443
10.414,62.8583,0.011443
10.445,62.8781,0.011443
10.476,62.8979,0.011189
10.507,62.9188,0.011189
10.538,62.9404,0.011189
10.569,62.9619,0.011189
10.600,62.9852,0.011189
10.631,63.0091,0.011189
10.665,63.0363,0.011189
10.693,63.0587,0.011189
10.726,63.0864,0.010765
10.756,63.1121,0.010765
10.788,63.1400,0.010765
10.820,63.1689,0.010765
10.850,63.1975,0.010765
10.881,63.2279,0.010765
10.912,63.2575,0.010765
10.943,63.2883,0.010765
10.974,63.3202,0.010229
11.005,63.3523,0.010229
11.037,63.3869,0.010229
11.068,63.4209,0.010229
11.098,63.4552,0.010229
11.130,63.4911,0.010229
11.161,63.5283,0.010229
11.192,63.5641,0.010229
11.222,63.6007,0.009570
11.254,63.6399,0.009570
11.287,63.6834,0.009570
11.316,63.7190,0.009570
11.347,63.7603,0.009570
11.379,63.8022,0.009570
11.410,63.8444,0.009570
11.441,63.8877,0.009570
11.471,63.9285,0.008714
11.501,63.9728,0.008714
11.532,64.0184,0.008714
11.563,64.0623,0.008714
11.593,64.1081,0.008714
11.624,64.1537,0.008714
11.654,64.2005,0.008714
11.686,64.2466,0.008714
11.718,64.2952,0.008714
11.747,64.3389,0.008714
11.778,64.3855,0.007585
11.809,64.4314,0.007585
11.839,64.4764,0.007585
11.870,64.5243,0.007585
11.901,64.5692,0.007585
11.932,64.6155,0.007585
11.963,64.6621,0.007585
11.994,64.7092,0.006220
12.025,64.7552,0.006220
12.056,64.8024,0.006220
12.086,64.8475,0.006220
12.118,64.8940,0.006220
12.148,64.9404,0.006220
12.179,64.9867,0.006220
12.210,65.0335,0.006220
12.241,65.0788,0.004366
12.272,65.1263,0.004366
12.303,65.1721,0.004366
12.334,65.2192,0.004366
12.365,65.2660,0.004366
12.396,65.3129,0.004366
12.428,65.3591,0.004366
12.459,65.4066,0.001637
12.491,65.4546,0.001637
12.521,65.5009,0.001637
12.552,65.5463,0.001637
12.583,65.5930,0.001637
12.613,65.6366,0.001637
12.643,65.6839,0.001637
12.674,65.7286,0.001637
12.706,65.7765,-0.002889
12.736,65.8228,-0.002889
12.766,65.8671,-0.002889
12.797,65.9131,-0.002889
12.828,65.9614,-0.002889
12.860,66.0084,-0.002889
12.891,66.0546,-0.002889
12.922,66.1015,-0.002889
12.954,66.1480,-0.002889
12.985,66.1947,-0.011067
13.015,66.2393,-0.011067
13.046,66.2828,-0.011067
13.077,66.3272,-0.011067
13.108,66.3694,-0.011067
13.141,66.4131,-0.011067
13.171,66.4541,-0.011067
13.203,66.4963,-0.011067
13.235,66.5382,-0.024928
13.264,66.5740,-0.024928
13.297,66.6160,-0.024928
13.325,66.6485,-0.024928
13.358,66.6872,-0.024928
13.385,66.7193,-0.024928
13.416,66.7559,-0.024928
13.447,66.7898,-0.045659
13.481,66.8282,-0.045659
13.511,66.8597,-0.045659
13.544,66.8950,-0.045659
13.573,66.9235,-0.045659
13.603,66.9553,-0.045659
13.634,66.9849,-0.045659
13.665,67.0154,-0.045659
13.696,67.0435,-0.045659
13.727,67.0726,-0.074097
13.757,67.0989,-0.074097
13.788,67.1261,-0.074097
13.818,67.1508,-0.074097
13.850,67.1773,-0.074097
13.881,67.2022,-0.074097
13.914,67.2280,-0.074097
13.942,67.2487,-0.074097
13.973,67.2719,-0.112426
14.004,67.2931,-0.112426
14.038,67.3162,-0.112426
14.067,67.3349,-0.112426
14.099,67.3556,-0.112426
14.129,67.3736,-0.112426
14.163,67.3938,-0.112426
14.191,67.4092,-0.112426
14.224,67.4270,-0.179522
14.253,67.4416,-0.179522
14.283,67.4570,-0.179522
14.314,67.4711,-0.179522
14.346,67.4854,-0.179522
14.377,67.4983,-0.179522
14.407,67.5103,-0.179522
14.438,67.5220,-0.179522
14.468,67.5325,-0.301349
14.499,67.5432,-0.301349
14.531,67.5526,-0.301349
14.562,67.5613,-0.301349
14.593,67.5693,-0.301349
14.624,67.5767,-0.301349
14.655,67.5831,-0.301349
14.685,67.5888,-0.301349
14.716,67.5940,-0.301349
14.749,67.5986,-0.463923
14.778,67.6020,-0.463923
14.809,67.6049,-0.463923
14.842,67.6072,-0.463923
14.873,67.6086,-0.463923
14.904,67.6093,-0.463923
14.935,67.6094,-0.463923
14.966,67.6094,-0.551091
15.000,67.6094,-0.551091
15.028,67.6094,-0.551091
15.058,67.6094,-0.551091
15.089,67.6094,-0.551091
15.120,67.6094,-0.551091
15.151,67.6094,-0.551091
15.184,67.6094,-0.551091
15.213,67.6094,-0.435070
15.244,67.6094,-0.435070
15.274,67.6094,-0.435070
15.305,67.6094,-0.435070
15.336,67.6094,-0.435070
15.367,67.6094,-0.435070
15.399,67.6094,-0.435070
15.433,67.6094,-0.435070
15.460,67.6094,-0.435070
15.492,67.6094,-0.278482
15.523,67.6094,-0.278482
15.553,67.6094,-0.278482
15.584,67.6094,-0.278482
15.615,67.6094,-0.278482
15.646,67.6094,-0.278482
15.677,67.6094,-0.278482
15.707,67.6094,-0.224522
15.739,67.6094,-0.224522
15.768,67.6094,-0.224522
15.799,67.6094,-0.224522
15.832,67.6094,-0.224522
15.862,67.6094,-0.224522
15.893,67.6094,-0.224522
15.924,67.6094,-0.224522
15.956,67.6094,-0.224522
15.986,67.6094,-0.202154
16.020,67.6094,-0.202154
16.048,67.6094,-0.202154
16.080,67.6094,-0.202154
16.111,67.6094,-0.202154
16.142,67.6094,-0.202154
16.173,67.6094,-0.202154
16.205,67.6094,-0.202154
16.235,67.6094,-0.202154
16.267,67.6094,-0.189685
16.299,67.6094,-0.189685
16.329,67.6094,-0.189685
16.360,67.6094,-0.189685
16.391,67.6094,-0.189685
16.422,67.6094,-0.189685
16.456,67.6094,-0.189685
16.485,67.6094,-0.189685
16.517,67.6094,-0.181348
16.548,67.6094,-0.181348
16.582,67.6094,-0.181348
16.610,67.6094,-0.181348
16.641,67.6094,-0.181348
16.673,67.6094,-0.181348
16.703,67.6094,-0.181348
16.734,67.6094,-0.181348
16.769,67.6094,-0.175108
16.796,67.6094,-0.175108
16.829,67.6094,-0.175108
16.857,67.6094,-0.175108
16.888,67.6094,-0.175108
16.918,67.6094,-0.175108
16.949,67.6094,-0.175108
16.980,67.6094,-0.170243
17.011,67.6094,-0.170243
17.042,67.6094,-0.170243
17.074,67.6094,-0.170243
17.104,67.6094,-0.170243
17.135,67.6094,-0.170243
17.166,67.6094,-0.170243
17.197,67.6094,-0.170243
17.228,67.6094,-0.170243
17.260,67.6094,-0.170243
17.291,67.6094,-0.166225
17.322,67.6094,-0.166225
17.354,67.6094,-0.166225
17.384,67.6094,-0.166225
17.415,67.6094,-0.166225
17.446,67.6094,-0.166225
17.476,67.6094,-0.162800
17.507,67.6094,-0.162800
17.538,67.6094,-0.162800
17.570,67.6094,-0.162800
17.604,67.6094,-0.162800
17.631,67.6094,-0.162800
17.662,67.6094,-0.162800
17.693,67.6094,-0.162800
17.725,67.6094,-0.160033
17.755,67.6094,-0.160033
17.786,67.6094,-0.160033
17.817,67.6094,-0.160033
17.850,67.6094,-0.160033
17.880,67.6094,-0.160033
17.911,67.6094,-0.160033
17.942,67.6094,-0.160033
17.972,67.6094,-0.160033
18.003,67.6094,-0.157530
18.034,67.6094,-0.157530
18.065,67.6094,-0.157530
18.096,67.6094,-0.157530
18.127,67.6094,-0.157530
18.158,67.6094,-0.157530
18.188,67.6094,-0.157530
18.219,67.6094,-0.157530
18.251,67.6094,-0.157530
18.282,67.6094,-0.155271
18.314,67.6094,-0.155271
18.344,67.6094,-0.155271
18.375,67.6094,-0.155271
18.406,67.6094,-0.155271
18.437,67.6094,-0.155271
18.468,67.6094,-0.155271
18.499,67.6094,-0.153361
18.533,67.6094,-0.153361
18.560,67.6094,-0.153361
18.591,67.6094,-0.153361
18.622,67.6094,-0.153361
18.654,67.6094,-0.153361
18.685,67.6094,-0.153361
18.715,67.6094,-0.153361
18.747,67.6094,-0.151121
18.777,67.6094,-0.151121
18.808,67.6094,-0.151121
18.839,67.6094,-0.151121
18.870,67.6094,-0.151121
18.901,67.6094,-0.151121
18.932,67.6094,-0.151121
18.963,67.6094,-0.148345
18.997,67.6094,-0.148345
19.025,67.6094,-0.148345
19.055,67.6094,-0.148345
19.087,67.6094,-0.148345
19.118,67.6094,-0.148345
19.149,67.6094,-0.148345
19.180,67.6094,-0.148345
19.212,67.6094,-0.148345
19.242,67.6089,-0.148345
19.273,67.6078,-0.145325
19.307,67.6057,-0.145325
19.334,67.6033,-0.145325
19.365,67.6000,-0.145325
19.396,67.5959,-0.145325
19.428,67.5909,-0.145325
19.459,67.5856,-0.113894
19.490,67.5791,-0.113894
19.522,67.5719,-0.113894
19.553,67.5642,-0.113894
19.585,67.5554,-0.113894
19.616,67.5460,-0.113894
19.647,67.5361,-0.113894
19.678,67.5254,-0.113894
19.709,67.5139,-0.113894
19.741,67.5016,0.006145
19.772,67.4883,0.006145
19.802,67.4758,0.006145
19.834,67.4612,0.006145
19.864,67.4462,0.006145
19.897,67.4298,0.006145
19.926,67.4137,0.006145
19.959,67.3953,0.006145
19.988,67.3785,0.006145
20.019,67.3596,0.050976
20.051,67.3403,0.050976
20.082,67.3198,0.050976
20.111,67.2998,0.050976
20.143,67.2780,0.050976
20.173,67.2565,0.050976
20.204,67.2337,0.050976
20.235,67.2102,0.014398
20.272,67.1803,0.014398
20.312,67.1475,0.014398
20.343,67.1211,0.014398
20.375,67.0936,0.014398
20.406,67.0662,0.014398
20.436,67.0380,0.014398
20.468,67.0085,0.033623
20.500,66.9770,0.033623
20.530,66.9472,0.033623
20.562,66.9141,0.033623
20.593,66.8827,0.033623
20.625,66.8490,0.033623
20.655,66.8153,0.033623
20.686,66.7823,0.033623
20.717,66.7467,0.051098
20.753,66.7050,0.051098
20.780,66.6741,0.051098
20.811,66.6353,0.051098
20.842,66.5979,0.051098
20.879,66.5527,0.051098
20.905,66.5191,0.051098
20.936,66.4790,0.051098
20.966,66.4399,0.051098
20.996,66.3982,0.061694
21.028,66.3559,0.061694
21.059,66.3116,0.061694
21.090,66.2688,0.061694
21.122,66.2224,0.061694
21.152,66.1779,0.061694
21.183,66.1308,0.061694
21.214,66.0854,0.066673
21.245,66.0391,0.066673
21.275,65.9932,0.066673
21.312,65.9399,0.066673
21.353,65.8773,0.066673
21.383,65.8323,0.066673
21.417,65.7813,0.066673
21.445,65.7402,0.066673
21.476,65.6925,0.068461
21.506,65.6467,0.068461
21.537,65.6016,0.068461
21.568,65.5543,0.068461
21.602,65.5029,0.068461
21.635,65.4541,0.068461
21.661,65.4158,0.068461
21.693,65.3672,0.068461
21.723,65.3218,0.068178
21.754,65.2765,0.068178
21.784,65.2310,0.068178
21.816,65.1835,0.068178
21.847,65.1356,0.068178
21.877,65.0910,0.068178
21.910,65.0427,0.068178
21.940,64.9976,0.068178
21.971,64.9492,0.069213
22.003,64.9022,0.069213
22.034,64.8562,0.069213
22.065,64.8098,0.069213
22.096,64.7627,0.069213
22.126,64.7175,0.069213
22.157,64.6710,0.069213
22.189,64.6230,0.069213
22.221,64.5759,0.075415
22.250,64.5308,0.075415
22.282,64.4825,0.075415
22.313,64.4365,0.075415
22.344,64.3907,0.075415
22.374,64.3460,0.075415
22.405,64.2997,0.075415
22.436,64.2527,0.075415
22.467,64.2048,0.075415
22.499,64.1589,0.083959
22.531,64.1102,0.083959
22.562,64.0642,0.083959
22.592,64.0177,0.083959
22.623,63.9731,0.083959
22.654,63.9276,0.083959
22.689,63.8781,0.083959
22.715,63.8402,0.083959
22.747,63.7974,0.058965
22.779,63.7536,0.058965
22.811,63.7112,0.058965
22.844,63.6672,0.058965
22.872,63.6315,0.058965
22.903,63.5923,0.058965
22.935,63.5540,0.058965
22.965,63.5164,0.022434
22.996,63.4797,0.022434
23.027,63.4441,0.022434
23.057,63.4102,0.022434
23.088,63.3746,0.022434
23.123,63.3359,0.022434
23.149,63.3081,0.022434
23.180,63.2756,0.022434
23.211,63.2440,0.014238
23.243,63.2118,0.014238
23.274,63.1801,0.014238
23.305,63.1510,0.014238
23.336,63.1217,0.014238
23.367,63.0943,0.014238
23.397,63.0667,0.014238
23.428,63.0410,0.014238
23.459,63.0148,0.014238
23.489,62.9899,0.013297
23.520,62.9653,0.013297
23.552,62.9404,0.013297
23.583,62.9176,0.013297
23.613,62.8956,0.013297
23.646,62.8726,0.013297
23.676,62.8522,0.013297
23.706,62.8321,0.013297
23.736,62.8137,0.012836
23.767,62.7943,0.012836
23.799,62.7757,0.012836
23.830,62.7586,0.012836
23.861,62.7418,0.012836
23.892,62.7258,0.012836
23.924,62.7106,0.012836
23.955,62.6957,0.012836
23.986,62.6821,0.012497
24.017,62.6689,0.012497
24.049,62.6565,0.012497
24.080,62.6451,0.012497
24.111,62.6343,0.012497
24.142,62.6241,0.012497
24.172,62.6150,0.012497
24.202,62.6064,0.012497
24.233,62.5987,0.012497
24.264,62.5915,0.012262
24.294,62.5852,0.012262
24.326,62.5794,0.012262
24.356,62.5743,0.012262
24.387,62.5701,0.012262
24.419,62.5664,0.012262
24.450,62.5636,0.012262
24.480,62.5614,0.012074
24.512,62.5600,0.012074
24.543,62.5593,0.012074
24.574,62.5593,0.012074
24.605,62.5593,0.012074
24.636,62.5593,0.012074
24.667,62.5593,0.012074
24.698,62.5593,0.012074
24.729,62.5593,0.011895
24.761,62.5598,0.011895
24.791,62.5610,0.011895
24.821,62.5629,0.011895
24.853,62.5656,0.011895
24.885,62.5691,0.011895
24.916,62.5733,0.011895
24.947,62.5781,0.011895
24.981,62.5843,0.011895
25.009,62.5903,0.011772
25.041,62.5974,0.011772
25.071,62.6049,0.011772
25.102,62.6136,0.011772
25.133,62.6228,0.011772
25.165,62.6331,0.011772
25.196,62.6435,0.011772
25.227,62.6554,0.011772
25.260,62.6683,0.011603
25.289,62.6801,0.011603
25.319,62.6938,0.011603
25.351,62.7081,0.011603
25.382,62.7236,0.011603
25.413,62.7391,0.011603
25.445,62.7566,0.011603
25.476,62.7732,0.011603
25.506,62.7915,0.011274
25.537,62.8098,0.011274
25.568,62.8294,0.011274
25.600,62.8497,0.011274
25.629,62.8695,0.011274
25.660,62.8912,0.011274
25.692,62.9139,0.011274
25.724,62.9379,0.011274
25.756,62.9624,0.010916
25.784,62.9849,0.010916
25.818,63.0123,0.010916
25.850,63.0395,0.010916
25.880,63.0654,0.010916
25.913,63.0944,0.010916
25.940,63.1195,0.010916
25.971,63.1480,0.010483
26.002,63.1777,0.010483
26.033,63.2089,0.010483
26.064,63.2389,0.010483
26.099,63.2748,0.010483
26.125,63.3023,0.010483
26.157,63.3372,0.010483
26.188,63.3713,0.010483
26.220,63.4070,0.009928
26.251,63.4420,0.009928
26.283,63.4798,0.009928
26.313,63.5154,0.009928
26.345,63.5541,0.009928
26.375,63.5918,0.009928
26.407,63.6318,0.009928
26.437,63.6702,0.009928
26.468,63.7108,0.009928
26.499,63.7521,0.009175
26.531,63.7949,0.009175
26.562,63.8377,0.009175
26.593,63.8810,0.009175
26.624,63.9263,0.009175
26.654,63.9693,0.009175
26.686,64.0154,0.009175
26.716,64.0615,0.009175
26.747,64.1077,0.008178
26.778,64.1552,0.008178
26.809,64.2005,0.008178
26.840,64.2477,0.008178
26.871,64.2937,0.008178
26.901,64.3399,0.008178
26.932,64.3864,0.008178
26.964,64.4336,0.008178
26.995,64.4789,0.006983
27.025,64.5255,0.006983
27.056,64.5714,0.006983
27.087,64.6191,0.006983
27.118,64.6643,0.006983
27.149,64.7106,0.006983
27.179,64.7560,0.006983
27.210,64.8031,0.006983
27.241,64.8476,0.005392
27.271,64.8949,0.005392
27.303,64.9424,0.005392
27.340,64.9973,0.005392
27.380,65.0571,0.005392
27.411,65.1031,0.005392
27.441,65.1495,0.005392
27.473,65.1964,0.003124
27.504,65.2431,0.003124
27.535,65.2889,0.003124
27.565,65.3351,0.003124
27.596,65.3809,0.003124
27.627,65.4282,0.003124
27.659,65.4751,0.003124
27.690,65.5220,0.003124
27.720,65.5667,-0.000395
27.752,65.6153,-0.000395
27.783,65.6622,-0.000395
27.814,65.7075,-0.000395
27.845,65.7551,-0.000395
27.876,65.8015,-0.000395
27.908,65.8496,-0.000395
27.938,65.8948,-0.000395
27.970,65.9430,-0.000395
28.001,65.9900,-0.006531
28.032,66.0348,-0.006531
28.064,66.0830,-0.006531
28.095,66.1290,-0.006531
28.126,66.1739,-0.006531
28.156,66.2181,-0.006531
28.187,66.2615,-0.006531
28.219,66.3053,-0.017475
28.250,66.3484,-0.017475
28.281,66.3891,-0.017475
28.312,66.4313,-0.017475
28.343,66.4711,-0.017475
28.374,66.5108,-0.017475
28.405,66.5485,-0.017475
28.436,66.5871,-0.017475
28.467,66.6249,-0.017475
28.498,66.6615,-0.017475
28.530,66.6974,-0.034706
28.560,66.7312,-0.034706
28.591,66.7664,-0.034706
28.622,66.7999,-0.034706
28.654,66.8337,-0.034706
28.685,66.8654,-0.034706
28.717,66.8976,-0.059361
28.747,66.9279,-0.059361
28.779,66.9590,-0.059361
28.810,66.9880,-0.059361
28.841,67.0172,-0.059361
28.872,67.0438,-0.059361
28.904,67.0720,-0.059361
28.935,67.0988,-0.059361
28.966,67.1238,-0.092401
28.997,67.1486,-0.092401
29.028,67.1727,-0.092401
29.059,67.1964,-0.092401
29.090,67.2187,-0.092401
29.121,67.2408,-0.092401
29.152,67.2614,-0.092401
29.183,67.2825,-0.092401
29.213,67.3016,-0.141391
29.244,67.3200,-0.141391
29.274,67.3379,-0.141391
29.306,67.3559,-0.141391
29.336,67.3725,-0.141391
29.367,67.3883,-0.141391
29.398,67.4036,-0.141391
29.429,67.4186,-0.141391
29.460,67.4324,-0.141391
29.491,67.4457,-0.141391
29.522,67.4582,-0.235711
29.554,67.4704,-0.235711
29.585,67.4815,-0.235711
29.616,67.4917,-0.235711
29.647,67.5012,-0.235711
29.678,67.5099,-0.235711
29.709,67.5181,-0.235711
29.739,67.5256,-0.383850
29.774,67.5329,-0.383850
29.801,67.5380,-0.383850
29.832,67.5432,-0.383850
29.863,67.5476,-0.383850
29.894,67.5513,-0.383850
29.925,67.5543,-0.383850
29.957,67.5567,-0.383850
29.987,67.5583,-0.532458
30.018,67.5592,-0.532458
30.048,67.5593,-0.532458
30.079,67.5593,-0.532458
30.109,67.5593,-0.532458
30.140,67.5593,-0.532458
30.170,67.5593,-0.532458
30.201,67.5593,-0.532458
30.233,67.5593,-0.499880
30.263,67.5593,-0.499880
30.294,67.5593,-0.499880
30.325,67.5593,-0.499880
30.356,67.5593,-0.499880
30.391,67.5593,-0.499880
30.418,67.5593,-0.499880
30.449,67.5593,-0.499880
30.479,67.5593,-0.332064
30.511,67.5593,-0.332064
30.541,67.5593,-0.332064
30.574,67.5593,-0.332064
30.604,67.5593,-0.332064
30.635,67.5593,-0.332064
30.666,67.5593,-0.332064
30.697,67.5593,-0.332064
30.728,67.5593,-0.240059
30.759,67.5593,-0.240059
30.789,67.5593,-0.240059
30.821,67.5593,-0.240059
30.851,67.5593,-0.240059
30.883,67.5593,-0.240059
30.912,67.5593,-0.240059
30.944,67.5593,-0.240059
30.974,67.5593,-0.209071
31.004,67.5593,-0.209071
31.035,67.5593,-0.209071
31.072,67.5593,-0.209071
31.098,67.5593,-0.209071
31.129,67.5593,-0.209071
31.160,67.5593,-0.209071
31.191,67.5593,-0.209071
31.222,67.5593,-0.209071
31.252,67.5593,-0.193609
31.282,67.5593,-0.193609
31.313,67.5593,-0.193609
31.344,67.5593,-0.193609
31.375,67.5593,-0.193609
31.406,67.5593,-0.193609
31.436,67.5593,-0.193609
31.467,67.5593,-0.183992
31.498,67.5593,-0.183992
31.529,67.5593,-0.183992
31.560,67.5593,-0.183992
31.590,67.5593,-0.183992
31.621,67.5593,-0.183992
31.652,67.5593,-0.183992
31.684,67.5593,-0.183992
31.714,67.5593,-0.183992
31.745,67.5593,-0.177028
31.776,67.5593,-0.177028
31.807,67.5593,-0.177028
31.838,67.5593,-0.177028
31.869,67.5593,-0.177028
31.899,67.5593,-0.177028
31.930,67.5593,-0.177028
31.961,67.5593,-0.171683
31.992,67.5593,-0.171683
32.023,67.5593,-0.171683
32.056,67.5593,-0.171683
32.086,67.5593,-0.171683
32.117,67.5593,-0.171683
32.147,67.5593,-0.171683
32.181,67.5593,-0.171683
32.209,67.5593,-0.171683
32.240,67.5593,-0.167373
32.272,67.5593,-0.167373
32.305,67.5593,-0.167373
32.333,67.5593,-0.167373
32.364,67.5593,-0.167373
32.395,67.5593,-0.167373
32.427,67.5593,-0.167373
32.457,67.5593,-0.163816
32.489,67.5593,-0.163816
32.519,67.5593,-0.163816
32.550,67.5593,-0.163816
32.580,67.5593,-0.163816
32.616,67.5593,-0.163816
32.643,67.5593,-0.163816
32.674,67.5593,-0.163816
32.705,67.5593,-0.160739
32.734,67.5593,-0.160739
32.767,67.5593,-0.160739
32.798,67.5593,-0.160739
32.829,67.5593,-0.160739
32.859,67.5593,-0.160739
32.891,67.5593,-0.160739
32.922,67.5593,-0.160739
32.953,67.5593,-0.160739
32.984,67.5593,-0.158038
33.015,67.5593,-0.158038
33.046,67.5593,-0.158038
33.077,67.5593,-0.158038
33.112,67.5593,-0.158038
33.141,67.5593,-0.158038
33.172,67.5593,-0.158038
33.202,67.5593,-0.155714
33.233,67.5593,-0.155714
33.264,67.5593,-0.155714
33.294,67.5593,-0.155714
33.320,67.5593,-0.155714
33.356,67.5593,-0.155714
33.386,67.5593,-0.155714
33.420,67.5593,-0.155714
33.449,67.5593,-0.155714
33.481,67.5593,-0.153681
33.511,67.5593,-0.153681
33.542,67.5593,-0.153681
33.573,67.5593,-0.153681
33.605,67.5593,-0.153681
33.636,67.5593,-0.153681
33.667,67.5593,-0.153681
33.698,67.5593,-0.151630
33.731,67.5593,-0.151630
33.760,67.5593,-0.151630
33.791,67.5593,-0.151630
33.821,67.5593,-0.151630
33.852,67.5593,-0.151630
33.883,67.5593,-0.151630
33.917,67.5593,-0.151630
33.946,67.5593,-0.151630
33.976,67.5593,-0.149098
34.008,67.5593,-0.149098
34.038,67.5593,-0.149098
34.069,67.5593,-0.149098
34.102,67.5593,-0.149098
34.130,67.5593,-0.149098
34.161,67.5593,-0.149098
34.192,67.5593,-0.149098
34.223,67.5593,-0.149098
34.253,67.5593,-0.146059
34.284,67.5592,-0.146059
34.315,67.5583,-0.146059
34.346,67.5567,-0.146059
34.377,67.5543,-0.146059
34.408,67.5513,-0.146059
34.439,67.5475,-0.146059
34.470,67.5430,-0.146059
34.501,67.5380,-0.146059
34.532,67.5319,-0.138427
34.562,67.5254,-0.138427
34.593,67.5181,-0.138427
34.624,67.5100,-0.138427
34.655,67.5011,-0.138427
34.685,67.4918,-0.138427
34.717,67.4813,-0.138427
34.747,67.4706,0.093624
34.779,67.4587,0.093624
34.810,67.4459,0.093624
34.841,67.4327,0.093624
34.872,67.4190,0.093624
34.904,67.4040,0.093624
34.935,67.3886,0.093624
34.965,67.3724,0.093624
34.996,67.3559,0.162103
35.027,67.3383,0.162103
35.058,67.3202,0.162103
35.090,67.3007,0.162103
35.120,67.2810,0.162103
35.151,67.2610,0.162103
35.184,67.2382,0.162103
35.214,67.2174,0.011330
35.244,67.1943,0.011330
35.275,67.1715,0.011330
35.306,67.1472,0.011330
35.338,67.1221,0.011330
35.369,67.0967,0.011330
35.400,67.0705,0.011330
35.431,67.0433,0.011330
35.462,67.0147,0.028758
35.493,66.9865,0.028758
35.524,66.9579,0.028758
35.554,66.9284,0.028758
35.586,66.8971,0.028758
35.616,66.8662,0.028758
35.647,66.8341,0.028758
35.678,66.8018,0.028758
35.709,66.7685,0.047306
35.739,66.7347,0.047306
35.772,66.6973,0.047306
35.800,66.6655,0.047306
35.833,66.6259,0.047306
35.862,66.5918,0.047306
35.895,66.5505,0.047306
35.925,66.5145,0.047306
35.956,66.4737,0.047306
35.986,66.4358,0.059483
36.018,66.3935,0.059483
36.048,66.3535,0.059483
36.080,66.3094,0.059483
36.111,66.2673,0.059483
36.142,66.2222,0.059483
36.174,66.1782,0.059483
36.204,66.1328,0.059483
36.235,66.0880,0.065732
36.266,66.0404,0.065732
36.297,65.9949,0.065732
36.328,65.9471,0.065732
36.360,65.9003,0.065732
36.389,65.8559,0.065732
36.421,65.8091,0.065732
36.452,65.7627,0.065732
36.483,65.7148,0.068282
36.515,65.6683,0.068282
36.546,65.6213,0.068282
36.577,65.5742,0.068282
36.607,65.5294,0.068282
36.639,65.4823,0.068282
36.670,65.4359,0.068282
36.701,65.3884,0.068282
36.732,65.3426,0.068282
36.763,65.2955,0.068319
36.797,65.2445,0.068319
36.825,65.2022,0.068319
36.856,65.1552,0.068319
36.887,65.1091,0.068319
36.919,65.0615,0.068319
36.950,65.0152,0.068319
36.982,64.9674,0.068564
37.012,64.9211,0.068564
37.043,64.8750,0.068564
37.076,64.8258,0.068564
37.105,64.7829,0.068564
37.137,64.7333,0.068564
37.167,64.6900,0.068564
37.198,64.6431,0.068564
37.229,64.5950,0.073448
37.261,64.5494,0.073448
37.291,64.5029,0.073448
37.322,64.4573,0.073448
37.353,64.4095,0.073448
37.384,64.3632,0.073448
37.415,64.3169,0.073448
37.446,64.2714,0.073448
37.477,64.2245,0.073448
37.508,64.1780,0.082115
37.538,64.1333,0.082115
37.572,64.0818,0.082115
37.599,64.0410,0.082115
37.631,63.9932,0.082115
37.662,63.9486,0.082115
37.693,63.9020,0.082115
37.723,63.8588,0.082115
37.754,63.8134,0.069872
37.786,63.7694,0.069872
37.817,63.7277,0.069872
37.848,63.6867,0.069872
37.880,63.6444,0.069872
37.910,63.6053,0.069872
37.940,63.5665,0.069872
37.971,63.5280,0.034357
38.002,63.4891,0.034357
38.034,63.4508,0.034357
38.066,63.4128,0.034357
38.095,63.3797,0.034357
38.126,63.3447,0.034357
38.156,63.3106,0.034357
38.187,63.2764,0.034357
38.220,63.2417,0.014727
38.249,63.2116,0.014727
38.281,63.1795,0.014727
38.312,63.1478,0.014727
38.343,63.1185,0.014727
38.373,63.0887,0.014727
38.405,63.0601,0.014727
38.435,63.0324,0.014727
38.466,63.0058,0.014727
38.497,62.9796,0.013438
38.527,62.9545,0.013438
38.559,62.9287,0.013438
38.590,62.9041,0.013438
38.621,62.8808,0.013438
38.652,62.8578,0.013438
38.682,62.8360,0.013438
38.717,62.8115,0.013438
38.745,62.7932,0.013438
38.777,62.7727,0.012892
38.807,62.7539,0.012892
38.839,62.7345,0.012892
38.869,62.7178,0.012892
38.900,62.7007,0.012892
38.931,62.6848,0.012892
38.962,62.6685,0.012638
38.994,62.6534,0.012638
39.024,62.6398,0.012638
39.056,62.6259,0.012638
39.087,62.6136,0.012638
39.117,62.6016,0.012638
39.149,62.5902,0.012638
39.180,62.5799,0.012638
39.211,62.5699,0.012393
39.242,62.5610,0.012393
39.273,62.5526,0.012393
39.303,62.5451,0.012393
39.335,62.5382,0.012393
39.365,62.5322,0.012393
39.397,62.5265,0.012393
39.428,62.5220,0.012393
39.460,62.5180,0.012168
39.491,62.5149,0.012168
39.523,62.5123,0.012168
39.554,62.5105,0.012168
39.585,62.5095,0.012168
39.615,62.5093,0.012168
39.647,62.5093,0.012168
39.677,62.5093,0.012168
39.709,62.5093,0.011998
39.739,62.5093,0.011998
39.770,62.5093,0.011998
39.802,62.5097,0.011998
39.832,62.5107,0.011998
39.866,62.5126,0.011998
39.894,62.5149,0.011998
39.926,62.5182,0.011998
39.956,62.5222,0.011904
39.988,62.5269,0.011904
40.019,62.5324,0.011904
40.050,62.5386,0.011904
40.080,62.5453,0.011904
40.111,62.5530,0.011904
40.142,62.5611,0.011904
40.173,62.5704,0.011904
40.204,62.5802,0.011678
40.235,62.5905,0.011678
40.266,62.6019,0.011678
40.296,62.6134,0.011678
40.327,62.6263,0.011678
40.358,62.6395,0.011678
40.389,62.6539,0.011678
40.421,62.6685,0.011678
40.452,62.6845,0.011678
40.483,62.7007,0.011330
40.513,62.7173,0.011330
40.545,62.7356,0.011330
40.575,62.7534,0.011330
40.606,62.7726,0.011330
40.637,62.7924,0.011330
40.670,62.8146,0.011330
40.699,62.8344,0.011330
40.729,62.8564,0.011330
40.761,62.8795,0.011057
40.793,62.9041,0.011057
40.824,62.9283,0.011057
40.854,62.9533,0.011057
40.887,62.9801,0.011057
40.916,63.0050,0.011057
40.947,63.0326,0.011057
40.978,63.0601,0.011057
41.009,63.0892,0.010634
41.040,63.1181,0.010634
41.071,63.1488,0.010634
41.103,63.1798,0.010634
41.134,63.2120,0.010634
41.165,63.2444,0.010634
41.197,63.2782,0.010634
41.230,63.3136,0.010634
41.259,63.3475,0.010069
41.291,63.3830,0.010069
41.323,63.4209,0.010069
41.353,63.4550,0.010069
41.384,63.4938,0.010069
41.414,63.5309,0.010069
41.448,63.5727,0.010069
41.476,63.6078,0.010069
41.507,63.6482,0.009392
41.537,63.6895,0.009392
41.569,63.7324,0.009392
41.598,63.7716,0.009392
41.629,63.8150,0.009392
41.660,63.8599,0.009392
41.692,63.9042,0.009392
41.723,63.9514,0.009392
41.753,63.9957,0.008479
41.785,64.0435,0.008479
41.816,64.0891,0.008479
41.847,64.1364,0.008479
41.878,64.1816,0.008479
41.909,64.2281,0.008479
41.946,64.2841,0.008479
41.986,64.3445,0.007246
42.017,64.3922,0.007246
42.049,64.4389,0.007246
42.079,64.4851,0.007246
42.110,64.5306,0.007246
42.142,64.5788,0.007246
42.174,64.6264,0.007246
42.203,64.6700,0.007246
42.234,64.7157,0.005778
42.264,64.7627,0.005778
42.296,64.8099,0.005778
42.329,64.8597,0.005778
42.358,64.9015,0.005778
42.389,64.9482,0.005778
42.419,64.9944,0.005778
42.450,65.0410,0.005778
42.482,65.0889,0.003736
42.514,65.1362,0.003736
42.543,65.1809,0.003736
42.574,65.2275,0.003736
42.606,65.2745,0.003736
42.636,65.3202,0.003736
42.668,65.3680,0.003736
42.701,65.4180,0.003736
42.729,65.4604,0.000452
42.760,65.5061,0.000452
42.794,65.5583,0.000452
42.824,65.6019,0.000452
42.855,65.6476,0.000452
42.886,65.6947,0.000452
42.917,65.7401,0.000452
42.948,65.7887,-0.004988
42.979,65.8351,-0.004988
43.009,65.8798,-0.004988
43.040,65.9260,-0.004988
43.071,65.9718,-0.004988
43.102,66.0179,-0.004988
43.134,66.0659,-0.004988
43.164,66.1103,-0.004988
43.195,66.1547,-0.004988
43.232,66.2069,-0.004988
43.272,66.2640,-0.014803
43.304,66.3059,-0.014803
43.334,66.3480,-0.014803
43.366,66.3881,-0.014803
43.396,66.4268,-0.014803
43.427,66.4664,-0.014803
43.457,66.5041,-0.014803
43.489,66.5430,-0.030744
43.519,66.5795,-0.030744
43.550,66.6152,-0.030744
43.581,66.6507,-0.030744
43.611,66.6854,-0.030744
43.642,66.7195,-0.030744
43.673,66.7533,-0.030744
43.704,66.7854,-0.030744
43.737,66.8201,-0.053837
43.767,66.8504,-0.053837
43.799,66.8814,-0.053837
43.831,66.9120,-0.053837
43.861,66.9407,-0.053837
43.893,66.9704,-0.053837
43.923,66.9962,-0.053837
43.954,67.0245,-0.053837
43.985,67.0500,-0.085202
44.015,67.0749,-0.085202
44.046,67.0997,-0.085202
44.077,67.1233,-0.085202
44.114,67.1511,-0.085202
44.140,67.1697,-0.085202
44.170,67.1917,-0.085202
44.202,67.2129,-0.085202
44.232,67.2334,-0.129318
44.264,67.2527,-0.129318
44.294,67.2718,-0.129318
44.326,67.2899,-0.129318
44.355,67.3068,-0.129318
44.387,67.3238,-0.129318
44.418,67.3405,-0.129318
44.448,67.3553,-0.129318
44.479,67.3698,-0.129318
44.510,67.3833,-0.212712
44.541,67.3966,-0.212712
44.572,67.4091,-0.212712
44.602,67.4204,-0.212712
44.634,67.4318,-0.212712
44.664,67.4418,-0.212712
44.696,67.4515,-0.212712
44.727,67.4603,-0.352315
44.759,67.4686,-0.352315
44.789,67.4758,-0.352315
44.822,67.4830,-0.352315
44.851,67.4885,-0.352315
44.883,67.4937,-0.352315
44.913,67.4980,-0.352315
44.944,67.5015,-0.352315
44.975,67.5046,-0.512198
45.012,67.5072,-0.512198
45.052,67.5088,-0.512198
45.084,67.5093,-0.512198
45.118,67.5093,-0.512198
45.146,67.5093,-0.512198
45.177,67.5093,-0.512198
45.208,67.5093,-0.512198
45.240,67.5093,-0.512198
45.270,67.5093,-0.524206
45.301,67.5093,-0.524206
45.331,67.5093,-0.524206
45.361,67.5093,-0.524206
45.393,67.5093,-0.524206
45.423,67.5093,-0.524206
45.454,67.5093,-0.524206
45.485,67.5093,-0.368454
45.517,67.5093,-0.368454
45.548,67.5093,-0.368454
45.582,67.5093,-0.368454
45.610,67.5093,-0.368454
45.642,67.5093,-0.368454
45.673,67.5093,-0.368454
45.705,67.5093,-0.368454
45.738,67.5093,-0.251389
45.766,67.5093,-0.251389
45.797,67.5093,-0.251389
45.829,67.5093,-0.251389
45.859,67.5093,-0.251389
45.890,67.5093,-0.251389
45.921,67.5093,-0.251389
45.952,67.5093,-0.213606
45.985,67.5093,-0.213606
46.013,67.5093,-0.213606
46.048,67.5093,-0.213606
46.076,67.5093,-0.213606
46.107,67.5093,-0.213606
46.137,67.5093,-0.213606
46.169,67.5093,-0.213606
46.199,67.5093,-0.213606
46.233,67.5093,-0.196197
46.261,67.5093,-0.196197
46.292,67.5093,-0.196197
46.321,67.5093,-0.196197
46.354,67.5093,-0.196197
46.385,67.5093,-0.196197
46.416,67.5093,-0.196197
46.448,67.5093,-0.196197
46.478,67.5093,-0.185667
46.509,67.5093,-0.185667
46.539,67.5093,-0.185667
46.570,67.5093,-0.185667
46.601,67.5093,-0.185667
46.632,67.5093,-0.185667
46.662,67.5093,-0.185667
46.693,67.5093,-0.185667
46.725,67.5093,-0.178317
46.755,67.5093,-0.178317
46.785,67.5093,-0.178317
46.817,67.5093,-0.178317
46.848,67.5093,-0.178317
46.879,67.5093,-0.178317
46.909,67.5093,-0.178317
46.940,67.5093,-0.178317
46.972,67.5093,-0.172775
47.004,67.5093,-0.172775
47.034,67.5093,-0.172775
47.065,67.5093,-0.172775
47.097,67.5093,-0.172775
47.126,67.5093,-0.172775
47.158,67.5093,-0.172775
47.188,67.5093,-0.172775
47.219,67.5093,-0.172775
47.251,67.5093,-0.168248
47.283,67.5093,-0.168248
47.313,67.5093,-0.168248
47.344,67.5093,-0.168248
47.374,67.5093,-0.168248
47.405,67.5093,-0.168248
47.436,67.5093,-0.168248
47.462,67.5093,-0.168248
47.498,67.5093,-0.168248
47.528,67.5093,-0.164437
47.559,67.5093,-0.164437
47.592,67.5093,-0.164437
47.621,67.5093,-0.164437
47.652,67.5093,-0.164437
47.683,67.5093,-0.164437
47.715,67.5093,-0.164437
47.749,67.5093,-0.161247
47.776,67.5093,-0.161247
47.808,67.5093,-0.161247
47.839,67.5093,-0.161247
47.870,67.5093,-0.161247
47.901,67.5093,-0.161247
47.932,67.5093,-0.161247
47.963,67.5093,-0.158537
47.997,67.5093,-0.158537
48.025,67.5093,-0.158537
48.056,67.5093,-0.158537
48.086,67.5093,-0.158537
48.119,67.5093,-0.158537
48.148,67.5093,-0.158537
48.179,67.5093,-0.158537
48.211,67.5093,-0.158537
48.241,67.5093,-0.156231
48.272,67.5093,-0.156231
48.304,67.5093,-0.156231
48.335,67.5093,-0.156231
48.367,67.5093,-0.156231
48.397,67.5093,-0.156231
48.428,67.5093,-0.156231
48.459,67.5093,-0.154095
48.490,67.5093,-0.154095
48.521,67.5093,-0.154095
48.552,67.5093,-0.154095
48.584,67.5093,-0.154095
48.614,67.5093,-0.154095
48.645,67.5093,-0.154095
48.677,67.5093,-0.154095
48.706,67.5093,-0.152138
48.737,67.5093,-0.152138
48.767,67.5093,-0.152138
48.799,67.5093,-0.152138
48.830,67.5093,-0.152138
48.861,67.5093,-0.152138
48.892,67.5093,-0.152138
48.927,67.5093,-0.152138
48.955,67.5093,-0.152138
48.986,67.5093,-0.149955
49.017,67.5093,-0.149955
49.048,67.5093,-0.149955
49.079,67.5093,-0.149955
49.110,67.5093,-0.149955
49.141,67.5093,-0.149955
49.173,67.5093,-0.149955
49.203,67.5093,-0.147150
49.234,67.5093,-0.147150
49.265,67.5093,-0.147150
49.297,67.5093,-0.147150
49.327,67.5093,-0.147150
49.357,67.5093,-0.147150
49.388,67.5093,-0.147150
49.419,67.5091,-0.147150
49.451,67.5081,-0.144092
49.483,67.5063,-0.144092
49.512,67.5040,-0.144092
49.544,67.5007,-0.144092
49.575,67.4969,-0.144092
49.606,67.4922,-0.144092
49.637,67.4869,-0.144092
49.668,67.4808,-0.144092
49.701,67.4736,-0.144092
49.730,67.4665,-0.144092
49.759,67.4588,-0.004169
49.790,67.4499,-0.004169
49.820,67.4403,-0.004169
49.852,67.4296,-0.004169
49.883,67.4185,-0.004169
49.913,67.4070,-0.004169
49.948,67.3928,-0.004169
49.975,67.3814,-0.004169
50.006,67.3674,0.078069
50.037,67.3527,0.078069
50.068,67.3372,0.078069
50.098,67.3212,0.078069
50.129,67.3045,0.078069
50.160,67.2867,0.078069
50.192,67.2681,0.078069
50.223,67.2489,0.015235
50.257,67.2267,0.015235
50.285,67.2082,0.015235
50.316,67.1870,0.015235
50.348,67.1646,0.015235
50.378,67.1419,0.015235
50.409,67.1188,0.015235
50.440,67.0943,0.015235
50.471,67.0699,0.018614
50.502,67.0441,0.018614
50.533,67.0184,0.018614
50.563,66.9910,0.018614
50.593,66.9645,0.018614
50.624,66.9356,0.018614
50.655,66.9059,0.018614
50.687,66.8760,0.018614
50.717,66.8470,0.038338
50.749,66.8143,0.038338
50.779,66.7831,0.038338
50.812,66.7474,0.038338
50.841,66.7161,0.038338
50.872,66.6816,0.038338
50.903,66.6468,0.038338
50.934,66.6117,0.038338
50.965,66.5749,0.053931
50.996,66.5365,0.053931
51.027,66.4984,0.053931
51.057,66.4617,0.053931
51.088,66.4232,0.053931
51.119,66.3827,0.053931
51.150,66.3417,0.053931
51.180,66.3002,0.053931
51.212,66.2578,0.053931
51.242,66.2161,0.062701
51.274,66.1716,0.062701
51.304,66.1277,0.062701
51.336,66.0819,0.062701
51.367,66.0354,0.062701
51.398,65.9888,0.062701
51.430,65.9412,0.062701
51.461,65.8927,0.062701
51.492,65.8478,0.066673
51.523,65.8013,0.066673
51.554,65.7552,0.066673
51.585,65.7075,0.066673
51.616,65.6599,0.066673
51.647,65.6146,0.066673
51.679,65.5677,0.066673
51.710,65.5191,0.066673
51.741,65.4741,0.067999
51.772,65.4271,0.067999
51.803,65.3813,0.067999
51.834,65.3342,0.067999
51.865,65.2884,0.067999
51.896,65.2415,0.067999
51.928,65.1944,0.067999
51.960,65.1455,0.067999
51.989,65.1019,0.067472
52.020,65.0548,0.067472
52.052,65.0084,0.067472
52.084,64.9596,0.067472
52.114,64.9152,0.067472
52.145,64.8692,0.067472
52.175,64.8230,0.067472
52.206,64.7768,0.067472
52.237,64.7285,0.067472
52.269,64.6817,0.069355
52.300,64.6358,0.069355
52.335,64.5828,0.069355
52.361,64.5432,0.069355
52.393,64.4965,0.069355
52.424,64.4484,0.069355
52.455,64.4035,0.069355
52.486,64.3561,0.076506
52.519,64.3079,0.076506
52.547,64.2650,0.076506
52.579,64.2169,0.076506
52.609,64.1720,0.076506
52.639,64.1262,0.076506
52.672,64.0788,0.076506
52.702,64.0317,0.076506
52.733,63.9869,0.082971
52.764,63.9390,0.082971
52.795,63.8934,0.082971
52.826,63.8474,0.082971
52.858,63.8022,0.082971
52.888,63.7603,0.082971
52.919,63.7177,0.082971
52.951,63.6740,0.082971
52.980,63.6344,0.052030
53.011,63.5924,0.052030
53.043,63.5515,0.052030
53.074,63.5115,0.052030
53.104,63.4737,0.052030
53.135,63.4355,0.052030
53.168,63.3971,0.052030
53.198,63.3616,0.052030
53.229,63.3259,0.016760
53.259,63.2903,0.016760
53.291,63.2557,0.016760
53.322,63.2221,0.016760
53.352,63.1894,0.016760
53.383,63.1573,0.016760
53.414,63.1269,0.016760
53.446,63.0942,0.016760
53.476,63.0654,0.013824
53.508,63.0352,0.013824
53.539,63.0071,0.013824
53.570,62.9780,0.013824
53.605,62.9486,0.013824
53.632,62.9256,0.013824
53.663,62.8995,0.013824
53.694,62.8743,0.013824
53.726,62.8500,0.013109
53.756,62.8273,0.013109
53.787,62.8046,0.013109
53.817,62.7826,0.013109
53.853,62.7585,0.013109
53.879,62.7409,0.013109
53.911,62.7209,0.013109
53.941,62.7019,0.013109
53.973,62.6831,0.013109
54.003,62.6657,0.012732
54.034,62.6488,0.012732
54.065,62.6326,0.012732
54.098,62.6162,0.012732
54.128,62.6017,0.012732
54.159,62.5881,0.012732
54.190,62.5747,0.012732
54.221,62.5621,0.012732
54.252,62.5504,0.012450
54.282,62.5391,0.012450
54.314,62.5286,0.012450
54.345,62.5189,0.012450
54.376,62.5098,0.012450
54.408,62.5014,0.012450
54.438,62.4942,0.012450
54.470,62.4872,0.012450
54.500,62.4814,0.012290
54.531,62.4761,0.012290
54.562,62.4716,0.012290
54.594,62.4675,0.012290
54.624,62.4645,0.012290
54.657,62.4620,0.012290
54.687,62.4604,0.012290
54.719,62.4596,0.012290
54.749,62.4593,0.012111
54.781,62.4593,0.012111
54.810,62.4593,0.012111
54.841,62.4593,0.012111
54.873,62.4593,0.012111
54.903,62.4593,0.012111
54.934,62.4594,0.012111
54.966,62.4601,0.012111
54.997,62.4616,0.011970
55.027,62.4637,0.011970
55.058,62.4665,0.011970
55.088,62.4701,0.011970
55.120,62.4746,0.011970
55.151,62.4795,0.011970
55.182,62.4855,0.011970
55.213,62.4919,0.011970
55.244,62.4991,0.011754
55.275,62.5073,0.011754
55.305,62.5154,0.011754
55.336,62.5251,0.011754
55.368,62.5352,0.011754
55.399,62.5461,0.011754
55.429,62.5579,0.011754
55.461,62.5703,0.011754
55.492,62.5835,0.011754
55.523,62.5972,0.011518
55.555,62.6125,0.011518
55.586,62.6274,0.011518
55.617,62.6435,0.011518
55.649,62.6602,0.011518
55.681,62.6788,0.011518
55.715,62.6987,0.011518
55.744,62.7167,0.011518
55.776,62.7364,0.011302
55.806,62.7571,0.011302
55.838,62.7784,0.011302
55.869,62.8010,0.011302
55.901,62.8232,0.011302
55.930,62.8458,0.011302
55.961,62.8698,0.010944
55.993,62.8956,0.010944
56.023,62.9203,0.010944
56.054,62.9461,0.010944
56.084,62.9730,0.010944
56.116,63.0009,0.010944
56.147,63.0301,0.010944
56.178,63.0585,0.010944
56.211,63.0907,0.010944
56.240,63.1200,0.010944
56.271,63.1510,0.010474
56.303,63.1832,0.010474
56.332,63.2147,0.010474
56.364,63.2482,0.010474
56.397,63.2864,0.010474
56.425,63.3178,0.010474
56.457,63.3539,0.010474
56.487,63.3891,0.009862
56.519,63.4291,0.009862
56.548,63.4630,0.009862
56.579,63.5019,0.009862
56.610,63.5414,0.009862
56.642,63.5819,0.009862
56.673,63.6233,0.009862
56.703,63.6632,0.009862
56.735,63.7060,0.009100
56.765,63.7480,0.009100
56.795,63.7896,0.009100
56.825,63.8328,0.009100
56.856,63.8773,0.009100
56.887,63.9247,0.009100
56.918,63.9704,0.009100
56.954,64.0250,0.009100
56.980,64.0637,0.008046
57.011,64.1093,0.008046
57.042,64.1561,0.008046
57.072,64.2026,0.008046
57.103,64.2471,0.008046
57.133,64.2923,0.008046
57.164,64.3391,0.008046
57.195,64.3853,0.008046
57.225,64.4313,0.008046
57.256,64.4777,0.006747
57.287,64.5251,0.006747
57.318,64.5698,0.006747
57.347,64.6151,0.006747
57.378,64.6605,0.006747
57.410,64.7085,0.006747
57.441,64.7555,0.006747
57.472,64.8026,0.005119
57.503,64.8486,0.005119
57.534,64.8956,0.005119
57.568,64.9466,0.005119
57.595,64.9859,0.005119
57.627,65.0334,0.005119
57.658,65.0793,0.005119
57.688,65.1257,0.005119
57.720,65.1737,0.005119
57.752,65.2212,0.002654
57.783,65.2672,0.002654
57.814,65.3143,0.002654
57.845,65.3606,0.002654
57.879,65.4117,0.002654
57.906,65.4525,0.002654
57.939,65.5015,0.002654
57.968,65.5458,0.002654
58.000,65.5929,-0.001280
58.030,65.6394,-0.001280
58.062,65.6863,-0.001280
58.093,65.7329,-0.001280
58.125,65.7808,-0.001280
58.156,65.8271,-0.001280
58.187,65.8743,-0.001280
58.218,65.9206,-0.008121
58.248,65.9660,-0.008121
58.279,66.0114,-0.008121
58.309,66.0559,-0.008121
58.340,66.1005,-0.008121
58.372,66.1457,-0.008121
58.402,66.1883,-0.008121
58.432,66.2291,-0.008121
58.463,66.2723,-0.008121
58.494,66.3122,-0.020298
58.524,66.3523,-0.020298
58.555,66.3922,-0.020298
58.586,66.4303,-0.020298
58.617,66.4686,-0.020298
58.648,66.5063,-0.020298
58.678,66.5428,-0.020298
58.710,66.5788,-0.020298
58.741,66.6148,-0.020298
58.772,66.6502,-0.038997
58.803,66.6838,-0.038997
58.834,66.7165,-0.038997
58.864,66.7492,-0.038997
58.896,66.7810,-0.038997
58.927,66.8118,-0.038997
58.958,66.8422,-0.038997
58.989,66.8717,-0.065299
59.020,66.9016,-0.065299
59.052,66.9295,-0.065299
59.083,66.9579,-0.065299
59.114,66.9837,-0.065299
59.145,67.0102,-0.065299
59.175,67.0347,-0.065299
59.206,67.0596,-0.065299
59.238,67.0834,-0.065299
59.270,67.1066,-0.100616
59.300,67.1286,-0.100616
59.332,67.1512,-0.100616
59.361,67.1701,-0.100616
59.391,67.1901,-0.100616
59.423,67.2100,-0.100616
59.454,67.2283,-0.100616
59.486,67.2471,-0.156476
59.516,67.2636,-0.156476
59.547,67.2802,-0.156476
59.578,67.2962,-0.156476
59.609,67.3111,-0.156476
59.644,67.3272,-0.156476
59.671,67.3393,-0.156476
59.702,67.3518,-0.156476
59.733,67.3640,-0.156476
59.764,67.3755,-0.262738
59.794,67.3858,-0.262738
59.825,67.3958,-0.262738
59.856,67.4050,-0.262738
59.887,67.4136,-0.262738
59.918,67.4214,-0.262738
59.949,67.4284,-0.262738
59.981,67.4350,-0.419826
60.012,67.4406,-0.419826
60.044,67.4454,-0.419826
60.075,67.4497,-0.419826
60.105,67.4530,-0.419826
60.136,67.4557,-0.419826
60.167,67.4576,-0.419826
60.198,67.4588,-0.419826
60.229,67.4593,-0.548052
60.260,67.4593,-0.548052
60.290,67.4593,-0.548052
60.322,67.4593,-0.548052
60.352,67.4593,-0.548052
60.383,67.4593,-0.548052
60.414,67.4593,-0.548052
60.448,67.4593,-0.548052
60.476,67.4593,-0.548052
60.508,67.4593,-0.472881
60.539,67.4593,-0.472881
60.570,67.4593,-0.472881
60.602,67.4593,-0.472881
60.633,67.4593,-0.472881
60.663,67.4593,-0.472881
60.694,67.4593,-0.472881
60.728,67.4593,-0.302215
60.757,67.4593,-0.302215
60.788,67.4593,-0.302215
60.818,67.4593,-0.302215
60.850,67.4593,-0.302215
60.881,67.4593,-0.302215
60.912,67.4593,-0.302215
60.943,67.4593,-0.302215
60.974,67.4593,-0.302215
61.005,67.4593,-0.230733
61.037,67.4593,-0.230733
61.068,67.4593,-0.230733
61.099,67.4593,-0.230733
61.129,67.4593,-0.230733
61.159,67.4593,-0.230733
61.190,67.4593,-0.230733
61.221,67.4593,-0.230733
61.252,67.4593,-0.204648
61.283,67.4593,-0.204648
61.314,67.4593,-0.204648
61.345,67.4593,-0.204648
61.376,67.4593,-0.204648
61.407,67.4593,-0.204648
61.437,67.4593,-0.204648
61.468,67.4593,-0.204648
61.499,67.4593,-0.190824
61.530,67.4593,-0.190824
61.562,67.4593,-0.190824
61.594,67.4593,-0.190824
61.624,67.4593,-0.190824
61.654,67.4593,-0.190824
61.685,67.4593,-0.190824
61.719,67.4593,-0.190824
61.746,67.4593,-0.181950
61.779,67.4593,-0.181950
61.809,67.4593,-0.181950
61.840,67.4593,-0.181950
61.871,67.4593,-0.181950
61.902,67.4593,-0.181950
61.932,67.4593,-0.181950
61.964,67.4593,-0.181950
61.995,67.4593,-0.175447
62.026,67.4593,-0.175447
62.057,67.4593,-0.175447
62.088,67.4593,-0.175447
62.119,67.4593,-0.175447
62.152,67.4593,-0.175447
62.181,67.4593,-0.175447
62.212,67.4593,-0.175447
62.243,67.4593,-0.170319
62.274,67.4593,-0.170319
62.304,67.4593,-0.170319
62.335,67.4593,-0.170319
62.366,67.4593,-0.170319
62.396,67.4593,-0.170319
62.427,67.4593,-0.170319
62.458,67.4593,-0.170319
62.489,67.4593,-0.166216
62.521,67.4593,-0.166216
62.554,67.4593,-0.166216
62.582,67.4593,-0.166216
62.617,67.4593,-0.166216
62.645,67.4593,-0.166216
62.675,67.4593,-0.166216
62.706,67.4593,-0.162800
62.737,67.4593,-0.162800
62.767,67.4593,-0.162800
62.798,67.4593,-0.162800
62.830,67.4593,-0.162800
62.863,67.4593,-0.162800
62.893,67.4593,-0.162800
62.923,67.4593,-0.162800
62.954,67.4593,-0.162800
62.985,67.4593,-0.159854
63.017,67.4593,-0.159854
63.046,67.4593,-0.159854
63.078,67.4593,-0.159854
63.109,67.4593,-0.159854
63.140,67.4593,-0.159854
63.175,67.4593,-0.159854
63.203,67.4593,-0.159854
63.234,67.4593,-0.157248
63.265,67.4593,-0.157248
63.298,67.4593,-0.157248
63.327,67.4593,-0.157248
63.358,67.4593,-0.157248
63.389,67.4593,-0.157248
63.420,67.4593,-0.157248
63.450,67.4593,-0.157248
63.480,67.4593,-0.154923
63.512,67.4593,-0.154923
63.543,67.4593,-0.154923
63.574,67.4593,-0.154923
63.604,67.4593,-0.154923
63.635,67.4593,-0.154923
63.668,67.4593,-0.154923
63.698,67.4593,-0.154923
63.729,67.4593,-0.154923
63.761,67.4593,-0.152900
63.792,67.4593,-0.152900
63.825,67.4593,-0.152900
63.854,67.4593,-0.152900
63.884,67.4593,-0.152900
63.915,67.4593,-0.152900
63.950,67.4593,-0.152900
63.977,67.4593,-0.152900
64.008,67.4593,-0.150896
64.039,67.4593,-0.150896
64.071,67.4593,-0.150896
64.101,67.4593,-0.150896
64.131,67.4593,-0.150896
64.162,67.4593,-0.150896
64.193,67.4593,-0.150896
64.224,67.4593,-0.148355
64.255,67.4593,-0.148355
64.286,67.4593,-0.148355
64.318,67.4593,-0.148355
64.347,67.4593,-0.148355
64.379,67.4593,-0.148355
64.409,67.4593,-0.148355
64.441,67.4593,-0.148355
64.470,67.4593,-0.148355
64.501,67.4593,-0.145428
64.533,67.4593,-0.145428
64.563,67.4592,-0.145428
64.595,67.4583,-0.145428
64.625,67.4567,-0.145428
64.657,67.4545,-0.145428
64.689,67.4514,-0.145428
64.719,67.4478,-0.142229
64.749,67.4433,-0.142229
64.780,67.4382,-0.142229
64.812,67.4320,-0.142229
64.841,67.4258,-0.142229
64.873,67.4179,-0.142229
64.903,67.4103,-0.142229
64.935,67.4013,-0.142229
64.965,67.3919,0.163562
64.997,67.3816,0.163562
65.030,67.3697,0.163562
65.058,67.3594,0.163562
65.092,67.3457,0.163562
65.120,67.3338,0.163562
65.150,67.3198,0.163562
65.181,67.3054,0.163562
65.212,67.2902,0.236652
65.244,67.2739,0.236652
65.274,67.2573,0.236652
65.307,67.2391,0.236652
65.336,67.2218,0.236652
65.367,67.2025,0.236652
65.399,67.1828,0.236652
65.430,67.1615,0.236652
65.461,67.1410,0.010794
65.491,67.1194,0.010794
65.522,67.0974,0.010794
65.552,67.0741,0.010794
65.583,67.0498,0.010794
65.614,67.0256,0.010794
65.645,66.9997,0.010794
65.676,66.9733,0.010794
65.707,66.9470,0.010794
65.741,66.9170,0.026631
65.769,66.8915,0.026631
65.801,66.8609,0.026631
65.831,66.8324,0.026631
65.862,66.8018,0.026631
65.892,66.7710,0.026631
65.923,66.7387,0.026631
65.955,66.7059,0.045819
65.986,66.6720,0.045819
66.017,66.6379,0.045819
66.048,66.6034,0.045819
66.079,66.5676,0.045819
66.112,66.5278,0.045819
66.141,66.4928,0.045819
66.172,66.4561,0.045819
66.204,66.4159,0.045819
66.235,66.3771,0.058975
66.266,66.3367,0.058975
66.297,66.2969,0.058975
66.327,66.2546,0.058975
66.358,66.2136,0.058975
66.389,66.1700,0.058975
66.420,66.1271,0.058975
66.449,66.0846,0.058975
66.481,66.0381,0.065619
66.512,65.9937,0.065619
66.547,65.9395,0.065619
66.589,65.8780,0.065619
66.616,65.8356,0.065619
66.651,65.7838,0.065619
66.684,65.7359,0.065619
66.714,65.6903,0.068301
66.745,65.6435,0.068301
66.776,65.5969,0.068301
66.807,65.5499,0.068301
66.840,65.5019,0.068301
66.872,65.4520,0.068301
66.902,65.4088,0.068301
66.933,65.3612,0.068301
66.963,65.3172,0.068583
66.994,65.2698,0.068583
67.024,65.2245,0.068583
67.056,65.1773,0.068583
67.087,65.1302,0.068583
67.118,65.0846,0.068583
67.149,65.0379,0.068583
67.180,64.9908,0.068583
67.211,64.9452,0.068432
67.241,64.8987,0.068432
67.273,64.8514,0.068432
67.303,64.8066,0.068432
67.334,64.7601,0.068432
67.365,64.7134,0.068432
67.397,64.6656,0.068432
67.428,64.6184,0.068432
67.459,64.5731,0.072563
67.489,64.5270,0.072563
67.520,64.4814,0.072563
67.550,64.4355,0.072563
67.582,64.3879,0.072563
67.614,64.3395,0.072563
67.645,64.2936,0.072563
67.677,64.2454,0.072563
67.709,64.1980,0.072563
67.741,64.1493,0.081136
67.772,64.1028,0.081136
67.804,64.0545,0.081136
67.835,64.0094,0.081136
67.866,63.9624,0.081136
67.897,63.9163,0.081136
67.927,63.8695,0.081136
67.958,63.8232,0.081136
67.990,63.7782,0.077306
68.020,63.7354,0.077306
68.051,63.6915,0.077306
68.082,63.6492,0.077306
68.113,63.6063,0.077306
68.144,63.5654,0.077306
68.175,63.5259,0.077306
68.206,63.4851,0.077306
68.237,63.4462,0.077306
68.269,63.4062,0.042516
68.301,63.3667,0.042516
68.332,63.3306,0.042516
68.363,63.2934,0.042516
68.395,63.2582,0.042516
68.426,63.2226,0.042516
68.458,63.1875,0.042516
68.489,63.1542,0.015057
68.520,63.1222,0.015057
68.550,63.0913,0.015057
68.581,63.0600,0.015057
68.613,63.0285,0.015057
68.644,62.9984,0.015057
68.675,62.9694,0.015057
68.706,62.9413,0.015057
68.737,62.9141,0.015057
68.768,62.8871,0.013542
68.798,62.8620,0.013542
68.830,62.8357,0.013542
68.861,62.8112,0.013542
68.892,62.7872,0.013542
68.923,62.7642,0.013542
68.955,62.7413,0.013542
68.986,62.7199,0.013043
69.017,62.6992,0.013043
69.048,62.6787,0.013043
69.079,62.6596,0.013043
69.111,62.6403,0.013043
69.142,62.6225,0.013043
69.173,62.6049,0.013043
69.205,62.5881,0.013043
69.236,62.5724,0.013043
69.267,62.5573,0.012732
69.297,62.5430,0.012732
69.328,62.5296,0.012732
69.359,62.5169,0.012732
69.389,62.5048,0.012732
69.420,62.4937,0.012732
69.451,62.4826,0.012732
69.482,62.4727,0.012732
69.514,62.4633,0.012516
69.544,62.4551,0.012516
69.576,62.4472,0.012516
69.606,62.4403,0.012516
69.637,62.4339,0.012516
69.669,62.4282,0.012516
69.699,62.4232,0.012516
69.730,62.4193,0.012299
69.761,62.4158,0.012299
69.792,62.4131,0.012299
69.824,62.4111,0.012299
69.854,62.4098,0.012299
69.885,62.4093,0.012299
69.916,62.4093,0.012299
69.947,62.4093,0.012299
69.978,62.4093,0.012074
70.009,62.4093,0.012074
70.040,62.4093,0.012074
70.071,62.4093,0.012074
70.102,62.4098,0.012074
70.133,62.4111,0.012074
70.163,62.4131,0.012074
70.194,62.4158,0.012074
70.225,62.4191,0.012036
70.256,62.4234,0.012036
70.288,62.4283,0.012036
70.319,62.4340,0.012036
70.351,62.4405,0.012036
70.381,62.4474,0.012036
70.412,62.4554,0.012036
70.443,62.4638,0.012036
70.474,62.4730,0.011848
70.505,62.4829,0.011848
70.535,62.4934,0.011848
70.567,62.5053,0.011848
70.598,62.5172,0.011848
70.629,62.5305,0.011848
70.660,62.5442,0.011848
70.691,62.5585,0.011848
70.722,62.5732,0.011528
70.753,62.5893,0.011528
70.784,62.6058,0.011528
70.816,62.6234,0.011528
70.847,62.6414,0.011528
70.878,62.6605,0.011528
70.909,62.6795,0.011528
70.939,62.6994,0.011528
70.971,62.7208,0.011236
71.003,62.7437,0.011236
71.033,62.7652,0.011236
71.064,62.7876,0.011236
71.095,62.8118,0.011236
71.131,62.8411,0.011236
71.173,62.8747,0.011236
71.204,62.9016,0.011236
71.234,62.9279,0.010813
71.265,62.9555,0.010813
71.296,62.9842,0.010813
71.326,63.0126,0.010813
71.357,63.0419,0.010813
71.387,63.0719,0.010813
71.419,63.1046,0.010813
71.449,63.1364,0.010813
71.480,63.1680,0.010304
71.510,63.2014,0.010304
71.542,63.2357,0.010304
71.573,63.2713,0.010304
71.604,63.3084,0.010304
71.635,63.3436,0.010304
71.666,63.3822,0.010304
71.698,63.4195,0.010304
71.729,63.4588,0.010304
71.760,63.4983,0.009646
71.791,63.5378,0.009646
71.822,63.5788,0.009646
71.853,63.6208,0.009646
71.884,63.6638,0.009646
71.915,63.7065,0.009646
71.946,63.7502,0.009646
71.976,63.7937,0.008799
72.008,63.8396,0.008799
72.039,63.8856,0.008799
72.070,63.9321,0.008799
72.101,63.9792,0.008799
72.132,64.0261,0.008799
72.163,64.0717,0.008799
72.194,64.1184,0.008799
72.225,64.1648,0.007622
72.256,64.2113,0.007622
72.287,64.2578,0.007622
72.318,64.3052,0.007622
72.349,64.3502,0.007622
72.380,64.3974,0.007622
72.411,64.4428,0.007622
72.442,64.4898,0.007622
72.472,64.5352,0.006136
72.504,64.5825,0.006136
72.534,64.6282,0.006136
72.565,64.6746,0.006136
72.596,64.7215,0.006136
72.627,64.7680,0.006136
72.658,64.8146,0.006136
72.690,64.8628,0.006136
72.720,64.9073,0.004188
72.752,64.9554,0.004188
72.783,65.0012,0.004188
72.813,65.0466,0.004188
72.843,65.0922,0.004188
72.875,65.1390,0.004188
72.905,65.1852,0.004188
72.936,65.2319,0.004188
72.967,65.2784,0.001205
72.999,65.3266,0.001205
73.030,65.3720,0.001205
73.061,65.4203,0.001205
73.092,65.4654,0.001205
73.123,65.5128,0.001205
73.155,65.5600,0.001205
73.185,65.6054,0.001205
73.217,65.6527,-0.003755
73.248,65.6997,-0.003755
73.279,65.7456,-0.003755
73.310,65.7932,-0.003755
73.342,65.8413,-0.003755
73.373,65.8865,-0.003755
73.404,65.9338,-0.003755
73.435,65.9801,-0.003755
73.466,66.0255,-0.012695
73.497,66.0693,-0.012695
73.529,66.1149,-0.012695
73.560,66.1572,-0.012695
73.591,66.2004,-0.012695
73.622,66.2415,-0.012695
73.653,66.2830,-0.012695
73.684,66.3224,-0.012695
73.716,66.3627,-0.027525
73.746,66.4007,-0.027525
73.778,66.4391,-0.027525
73.808,66.4764,-0.027525
73.839,66.5122,-0.027525
73.870,66.5484,-0.027525
73.902,66.5845,-0.027525
73.934,66.6189,-0.027525
73.965,66.6524,-0.027525
73.996,66.6850,-0.049292
74.026,66.7168,-0.049292
74.057,66.7485,-0.049292
74.088,66.7789,-0.049292
74.119,66.8087,-0.049292
74.151,66.8393,-0.049292
74.182,66.8671,-0.049292
74.213,66.8949,-0.049292
74.245,66.9222,-0.079160
74.275,66.9486,-0.079160
74.308,66.9749,-0.079160
74.337,66.9983,-0.079160
74.368,67.0225,-0.079160
74.399,67.0461,-0.079160
74.430,67.0688,-0.079160
74.461,67.0902,-0.079160
74.493,67.1123,-0.120161
74.522,67.1319,-0.120161
74.553,67.1514,-0.120161
74.583,67.1696,-0.120161
74.615,67.1887,-0.120161
74.646,67.2062,-0.120161
74.681,67.2257,-0.120161
74.707,67.2386,-0.194644
74.738,67.2542,-0.194644
74.770,67.2689,-0.194644
74.800,67.2827,-0.194644
74.831,67.2957,-0.194644
74.861,67.3081,-0.194644
74.893,67.3198,-0.194644
74.923,67.3310,-0.194644
74.954,67.3410,-0.324385
74.986,67.3511,-0.324385
75.017,67.3597,-0.324385
75.049,67.3683,-0.324385
75.083,67.3765,-0.324385
75.112,67.3823,-0.324385
75.142,67.3881,-0.324385
75.174,67.3935,-0.324385
75.204,67.3978,-0.324385
75.237,67.4018,-0.486790
75.267,67.4046,-0.486790
75.298,67.4069,-0.486790
75.329,67.4084,-0.486790
75.360,67.4092,-0.486790
75.392,67.4093,-0.486790
75.422,67.4093,-0.486790
75.453,67.4093,-0.486790
75.484,67.4093,-0.538970
75.515,67.4093,-0.538970
75.547,67.4093,-0.538970
75.577,67.4093,-0.538970
75.609,67.4093,-0.538970
75.640,67.4093,-0.538970
75.671,67.4093,-0.538970
75.702,67.4093,-0.538970
75.734,67.4093,-0.398304
75.769,67.4093,-0.398304
75.796,67.4093,-0.398304
75.828,67.4093,-0.398304
75.858,67.4093,-0.398304
75.890,67.4093,-0.398304
75.921,67.4093,-0.398304
75.952,67.4093,-0.398304
75.983,67.4093,-0.398304
76.017,67.4093,-0.258174
76.045,67.4093,-0.258174
76.077,67.4093,-0.258174
76.106,67.4093,-0.258174
76.137,67.4093,-0.258174
76.168,67.4093,-0.258174
76.198,67.4093,-0.258174
76.228,67.4093,-0.258174
76.262,67.4093,-0.215460
76.291,67.4093,-0.215460
76.325,67.4093,-0.215460
76.355,67.4093,-0.215460
76.384,67.4093,-0.215460
76.416,67.4093,-0.215460
76.448,67.4093,-0.215460
76.479,67.4093,-0.196658
76.510,67.4093,-0.196658
76.540,67.4093,-0.196658
76.572,67.4093,-0.196658
76.602,67.4093,-0.196658
76.634,67.4093,-0.196658
76.663,67.4093,-0.196658
76.694,67.4093,-0.196658
76.725,67.4093,-0.196658
76.758,67.4093,-0.185592
76.788,67.4093,-0.185592
76.822,67.4093,-0.185592
76.850,67.4093,-0.185592
76.882,67.4093,-0.185592
76.914,67.4093,-0.185592
76.945,67.4093,-0.185592
76.976,67.4093,-0.178016
77.007,67.4093,-0.178016
77.037,67.4093,-0.178016
77.074,67.4093,-0.178016
77.114,67.4093,-0.178016
77.144,67.4093,-0.178016
77.175,67.4093,-0.178016
77.207,67.4093,-0.178016
77.238,67.4093,-0.172370
77.269,67.4093,-0.172370
77.300,67.4093,-0.172370
77.331,67.4093,-0.172370
77.365,67.4093,-0.172370
77.395,67.4093,-0.172370
77.427,67.4093,-0.172370
77.459,67.4093,-0.167815
77.490,67.4093,-0.167815
77.521,67.4093,-0.167815
77.552,67.4093,-0.167815
77.583,67.4093,-0.167815
77.615,67.4093,-0.167815
77.646,67.4093,-0.167815
77.677,67.4093,-0.167815
77.707,67.4093,-0.167815
77.739,67.4093,-0.163985
77.770,67.4093,-0.163985
77.801,67.4093,-0.163985
77.832,67.4093,-0.163985
77.862,67.4093,-0.163985
77.894,67.4093,-0.163985
77.925,67.4093,-0.163985
77.955,67.4093,-0.160795
77.986,67.4093,-0.160795
78.018,67.4093,-0.160795
78.049,67.4093,-0.160795
78.080,67.4093,-0.160795
78.111,67.4093,-0.160795
78.141,67.4093,-0.160795
78.173,67.4093,-0.160795
78.203,67.4093,-0.160795
78.234,67.4093,-0.158038
78.266,67.4093,-0.158038
78.300,67.4093,-0.158038
78.329,67.4093,-0.158038
78.363,67.4093,-0.158038
78.392,67.4093,-0.158038
78.423,67.4093,-0.158038
78.456,67.4093,-0.158038
78.486,67.4093,-0.158038
78.517,67.4093,-0.155582
78.547,67.4093,-0.155582
78.578,67.4093,-0.155582
78.608,67.4093,-0.155582
78.639,67.4093,-0.155582
78.669,67.4093,-0.155582
78.700,67.4093,-0.155582
78.731,67.4093,-0.155582
78.763,67.4093,-0.153408
78.793,67.4093,-0.153408
78.824,67.4093,-0.153408
78.855,67.4093,-0.153408
78.886,67.4093,-0.153408
78.919,67.4093,-0.153408
78.949,67.4093,-0.153408
78.979,67.4093,-0.151507
79.011,67.4093,-0.151507
79.041,67.4093,-0.151507
79.072,67.4093,-0.151507
79.103,67.4093,-0.151507
79.134,67.4093,-0.151507
79.166,67.4093,-0.151507
79.195,67.4093,-0.149239
79.227,67.4093,-0.149239
79.257,67.4093,-0.149239
79.288,67.4093,-0.149239
79.320,67.4093,-0.149239
79.351,67.4093,-0.149239
79.381,67.4093,-0.149239
79.413,67.4093,-0.149239
79.443,67.4093,-0.149239
79.475,67.4093,-0.146360
79.507,67.4093,-0.146360
79.537,67.4093,-0.146360
79.568,67.4093,-0.146360
79.599,67.4093,-0.146360
79.630,67.4090,-0.146360
79.660,67.4080,-0.146360
79.691,67.4062,-0.146360
79.721,67.4039,-0.143555
79.752,67.4007,-0.143555
79.784,67.3966,-0.143555
79.815,67.3920,-0.143555
79.847,67.3865,-0.143555
79.877,67.3803,-0.143555
79.908,67.3736,-0.143555
79.939,67.3659,-0.143555
79.970,67.3577,0.110525
80.001,67.3488,0.110525
80.032,67.3391,0.110525
80.063,67.3284,0.110525
80.093,67.3174,0.110525
80.127,67.3045,0.110525
80.156,67.2928,0.110525
80.187,67.2792,0.110525
80.218,67.2650,0.186862
80.249,67.2502,0.186862
80.280,67.2350,0.186862
80.315,67.2157,0.186862
80.342,67.2014,0.186862
80.373,67.1837,0.186862
80.404,67.1653,0.186862
80.435,67.1458,0.186862
80.466,67.1255,0.010803
80.497,67.1052,0.010803
80.528,67.0840,0.010803
80.560,67.0611,0.010803
80.591,67.0383,0.010803
80.623,67.0140,0.010803
80.653,66.9899,0.010803
80.685,66.9642,0.010803
80.716,66.9383,0.021512
80.748,66.9110,0.021512
80.780,66.8830,0.021512
80.811,66.8556,0.021512
80.842,66.8257,0.021512
80.873,66.7962,0.021512
80.905,66.7653,0.021512
80.934,66.7368,0.021512
80.965,66.7046,0.040945
80.996,66.6726,0.040945
81.027,66.6392,0.040945
81.058,66.6044,0.040945
81.090,66.5697,0.040945
81.122,66.5336,0.040945
81.152,66.4989,0.040945
81.183,66.4614,0.040945
81.215,66.4229,0.055493
81.245,66.3853,0.055493
81.277,66.3456,0.055493
81.308,66.3062,0.055493
81.339,66.2654,0.055493
81.370,66.2247,0.055493
81.401,66.1830,0.055493
81.432,66.1396,0.055493
81.464,66.0942,0.063473
81.495,66.0513,0.063473
81.526,66.0051,0.063473
81.557,65.9614,0.063473
81.587,65.9154,0.063473
81.618,65.8687,0.063473
81.649,65.8235,0.063473
81.680,65.7751,0.063473
81.711,65.7298,0.063473
81.743,65.6816,0.067134
81.774,65.6353,0.067134
81.806,65.5872,0.067134
81.836,65.5422,0.067134
81.868,65.4947,0.067134
81.899,65.4483,0.067134
81.931,65.4002,0.067134
81.961,65.3558,0.067134
81.992,65.3074,0.068141
82.023,65.2614,0.068141
82.051,65.2203,0.068141
82.084,65.1703,0.068141
82.115,65.1230,0.068141
82.146,65.0765,0.068141
82.178,65.0288,0.068141
82.209,64.9831,0.067501
82.240,64.9364,0.067501
82.271,64.8902,0.067501
82.302,64.8433,0.067501
82.333,64.7972,0.067501
82.365,64.7489,0.067501
82.396,64.7034,0.067501
82.427,64.6548,0.067501
82.459,64.6081,0.067501
82.490,64.5608,0.067501
82.520,64.5158,0.070136
82.552,64.4685,0.070136
82.583,64.4230,0.070136
82.614,64.3750,0.070136
82.644,64.3303,0.070136
82.675,64.2827,0.070136
82.706,64.2365,0.070136
82.738,64.1885,0.077909
82.770,64.1414,0.077909
82.801,64.0943,0.077909
82.832,64.0478,0.077909
82.864,64.0003,0.077909
82.895,63.9539,0.077909
82.927,63.9059,0.077909
82.957,63.8602,0.081437
82.988,63.8155,0.081437
83.019,63.7690,0.081437
83.049,63.7254,0.081437
83.081,63.6795,0.081437
83.112,63.6368,0.081437
83.142,63.5948,0.081437
83.173,63.5528,0.081437
83.204,63.5118,0.081437
83.235,63.4711,0.048896
83.267,63.4299,0.048896
83.297,63.3917,0.048896
83.329,63.3524,0.048896
83.360,63.3148,0.048896
83.392,63.2770,0.048896
83.422,63.2417,0.048896
83.453,63.2064,0.015819
83.483,63.1720,0.015819
83.514,63.1395,0.015819
83.545,63.1054,0.015819
83.576,63.0727,0.015819
83.607,63.0405,0.015819
83.639,63.0087,0.015819
83.669,62.9790,0.015819
83.700,62.9491,0.015819
83.733,62.9191,0.013796
83.764,62.8905,0.013796
83.795,62.8635,0.013796
83.825,62.8368,0.013796
83.856,62.8118,0.013796
83.887,62.7857,0.013796
83.917,62.7627,0.013796
83.947,62.7390,0.013796
83.979,62.7157,0.013796
84.009,62.6932,0.013184
84.039,62.6720,0.013184
84.073,62.6498,0.013184
84.102,62.6310,0.013184
84.133,62.6112,0.013184
84.165,62.5920,0.013184
84.195,62.5742,0.013184
84.227,62.5567,0.012826
84.257,62.5404,0.012826
84.289,62.5244,0.012826
84.320,62.5094,0.012826
84.351,62.4948,0.012826
84.381,62.4813,0.012826
84.413,62.4681,0.012826
84.444,62.4556,0.012826
84.475,62.4443,0.012553
84.509,62.4327,0.012553
84.538,62.4234,0.012553
84.568,62.4143,0.012553
84.600,62.4055,0.012553
84.631,62.3977,0.012553
84.662,62.3905,0.012553
84.692,62.3843,0.012553
84.723,62.3787,0.012553
84.754,62.3739,0.012337
84.784,62.3697,0.012337
84.815,62.3662,0.012337
84.847,62.3633,0.012337
84.878,62.3612,0.012337
84.910,62.3600,0.012337
84.940,62.3594,0.012337
84.971,62.3594,0.012168
85.003,62.3594,0.012168
85.033,62.3594,0.012168
85.064,62.3594,0.012168
85.096,62.3594,0.012168
85.125,62.3596,0.012168
85.156,62.3606,0.012168
85.187,62.3622,0.012168
85.218,62.3646,0.012168
85.248,62.3677,0.012092
85.278,62.3714,0.012092
85.309,62.3759,0.012092
85.339,62.3811,0.012092
85.371,62.3871,0.012092
85.401,62.3936,0.012092
85.432,62.4012,0.012092
85.464,62.4095,0.011857
85.495,62.4185,0.011857
85.526,62.4281,0.011857
85.556,62.4381,0.011857
85.589,62.4496,0.011857
85.619,62.4612,0.011857
85.650,62.4737,0.011857
85.681,62.4873,0.011857
85.712,62.5012,0.011575
85.743,62.5161,0.011575
85.773,62.5309,0.011575
85.804,62.5473,0.011575
85.836,62.5644,0.011575
85.867,62.5821,0.011575
85.897,62.6000,0.011575
85.930,62.6201,0.011575
85.960,62.6392,0.011321
85.993,62.6617,0.011321
86.022,62.6812,0.011321
86.052,62.7022,0.011321
86.084,62.7251,0.011321
86.115,62.7497,0.011321
86.147,62.7745,0.011321
86.183,62.8032,0.011321
86.224,62.8381,0.010925
86.255,62.8645,0.010925
86.286,62.8923,0.010925
86.318,62.9204,0.010925
86.349,62.9498,0.010925
86.380,62.9797,0.010925
86.412,63.0110,0.010925
86.442,63.0411,0.010925
86.474,63.0747,0.010925
86.503,63.1044,0.010436
86.536,63.1398,0.010436
86.565,63.1717,0.010436
86.596,63.2071,0.010436
86.627,63.2423,0.010436
86.658,63.2774,0.010436
86.689,63.3152,0.010436
86.720,63.3525,0.010436
86.752,63.3923,0.009768
86.783,63.4315,0.009768
86.814,63.4721,0.009768
86.845,63.5115,0.009768
86.876,63.5535,0.009768
86.908,63.5961,0.009768
86.939,63.6394,0.009768
86.970,63.6826,0.009768
87.001,63.7260,0.008902
87.032,63.7720,0.008902
87.062,63.8161,0.008902
87.093,63.8634,0.008902
87.125,63.9095,0.008902
87.156,63.9568,0.008902
87.186,64.0024,0.008902
87.217,64.0497,0.008902
87.248,64.0954,0.007801
87.280,64.1434,0.007801
87.311,64.1891,0.007801
87.342,64.2367,0.007801
87.372,64.2812,0.007801
87.404,64.3295,0.007801
87.435,64.3751,0.007801
87.466,64.4220,0.007801
87.497,64.4684,0.006456
87.528,64.5160,0.006456
87.559,64.5613,0.006456
87.589,64.6067,0.006456
87.620,64.6525,0.006456
87.651,64.6987,0.006456
87.681,64.7445,0.006456
87.712,64.7902,0.006456
87.743,64.8366,0.004649
87.773,64.8840,0.004649
87.805,64.9299,0.004649
87.835,64.9751,0.004649
87.866,65.0209,0.004649
87.897,65.0674,0.004649
87.928,65.1153,0.004649
87.959,65.1612,0.004649
87.990,65.2076,0.004649
88.021,65.2548,0.001854
88.052,65.3006,0.001854
88.083,65.3482,0.001854
88.114,65.3941,0.001854
88.146,65.4423,0.001854
88.176,65.4870,0.001854
88.208,65.5346,0.001854
88.237,65.5794,-0.002720
88.268,65.6258,-0.002720
88.300,65.6725,-0.002720
88.331,65.7195,-0.002720
88.363,65.7671,-0.002720
88.394,65.8139,-0.002720
88.425,65.8598,-0.002720
88.461,65.9146,-0.002720
88.500,65.9717,-0.010794
88.531,66.0172,-0.010794
88.563,66.0607,-0.010794
88.594,66.1045,-0.010794
88.626,66.1472,-0.010794
88.656,66.1887,-0.010794
88.688,66.2315,-0.010794
88.718,66.2696,-0.024674
88.750,66.3107,-0.024674
88.781,66.3484,-0.024674
88.811,66.3853,-0.024674
88.842,66.4236,-0.024674
88.873,66.4596,-0.024674
88.905,66.4958,-0.024674
88.939,66.5350,-0.024674
88.968,66.5664,-0.045386
88.998,66.6001,-0.045386
89.030,66.6330,-0.045386
89.061,66.6656,-0.045386
89.092,66.6973,-0.045386
89.122,66.7265,-0.045386
89.153,66.7572,-0.045386
89.184,66.7855,-0.045386
89.221,66.8204,-0.073994
89.262,66.8556,-0.073994
89.293,66.8830,-0.073994
89.324,66.9090,-0.073994
89.354,66.9341,-0.073994
89.385,66.9579,-0.073994
89.419,66.9844,-0.073994
89.448,67.0052,-0.073994
89.479,67.0278,-0.073994
89.509,67.0487,-0.112878
89.540,67.0693,-0.112878
89.573,67.0913,-0.112878
89.601,67.1086,-0.112878
89.633,67.1278,-0.112878
89.665,67.1464,-0.112878
89.696,67.1639,-0.112878
89.728,67.1809,-0.112878
89.759,67.1963,-0.180425
89.789,67.2110,-0.180425
89.820,67.2252,-0.180425
89.852,67.2392,-0.180425
89.882,67.2518,-0.180425
89.913,67.2639,-0.180425
89.944,67.2754,-0.180425
89.976,67.2866,-0.180425
90.007,67.2964,-0.302252
90.038,67.3055,-0.302252
90.070,67.3142,-0.302252
90.100,67.3220,-0.302252
90.132,67.3291,-0.302252
90.163,67.3354,-0.302252
90.194,67.3408,-0.302252
90.225,67.3456,-0.302252
90.255,67.3497,-0.464544
90.286,67.3530,-0.464544
90.318,67.3558,-0.464544
90.348,67.3576,-0.464544
90.379,67.3589,-0.464544
90.410,67.3594,-0.464544
90.441,67.3594,-0.464544
90.472,67.3594,-0.464544
90.502,67.3594,-0.548117
90.534,67.3594,-0.548117
90.565,67.3594,-0.548117
90.597,67.3594,-0.548117
