Elapsed Time (s),Position (mm),Force (N)
-0.017,73.9093,-0.110083
0.014,73.9093,-0.110083
0.045,73.9093,-0.110083
0.077,73.9093,-0.110083
0.107,73.9093,-0.110083
0.138,73.9093,-0.110083
0.169,73.9093,-0.110083
0.201,73.9093,-0.110083
0.231,73.9093,-0.110083
0.263,73.9093,-0.098743
0.295,73.9093,-0.098743
0.326,73.9093,-0.098743
0.357,73.9093,-0.098743
0.387,73.9093,-0.098743
0.418,73.9093,-0.098743
0.449,73.9093,-0.098743
0.481,73.9093,-0.098743
0.512,73.9093,-0.093078
0.543,73.9093,-0.093078
0.574,73.9093,-0.093078
0.605,73.9093,-0.093078
0.636,73.9093,-0.093078
0.666,73.9093,-0.093078
0.697,73.9093,-0.093078
0.729,73.9093,-0.093078
0.758,73.9093,-0.088938
0.790,73.9093,-0.088938
0.821,73.9093,-0.088938
0.851,73.9093,-0.088938
0.882,73.9093,-0.088938
0.912,73.9093,-0.088938
0.943,73.9093,-0.088938
0.975,73.9093,-0.085832
1.006,73.9093,-0.085832
1.037,73.9093,-0.085832
1.067,73.9093,-0.085832
1.099,73.9093,-0.085832
1.130,73.9093,-0.085832
1.161,73.9093,-0.085832
1.192,73.9093,-0.085832
1.223,73.9093,-0.083357
1.255,73.9093,-0.083357
1.285,73.9093,-0.083357
1.318,73.9093,-0.083357
1.348,73.9093,-0.083357
1.379,73.9093,-0.083357
1.409,73.9093,-0.083357
1.440,73.9093,-0.083357
1.471,73.9093,-0.081174
1.503,73.9093,-0.081174
1.535,73.9093,-0.081174
1.566,73.9093,-0.081174
1.597,73.9093,-0.081174
1.627,73.9093,-0.081174
1.657,73.9093,-0.081174
1.688,73.9093,-0.081174
1.719,73.9093,-0.079311
1.750,73.9093,-0.079311
1.781,73.9093,-0.079311
1.813,73.9093,-0.079311
1.844,73.9093,-0.079311
1.875,73.9093,-0.079311
1.906,73.9093,-0.079311
1.938,73.9093,-0.079311
1.969,73.9093,-0.077720
2.000,73.9093,-0.077720
2.031,73.9093,-0.077720
2.062,73.9093,-0.077720
2.094,73.9093,-0.077720
2.125,73.9093,-0.077720
2.156,73.9093,-0.077720
2.187,73.9093,-0.077720
2.218,73.9093,-0.077720
2.249,73.9093,-0.076309
2.282,73.9093,-0.076309
2.311,73.9093,-0.076309
2.342,73.9093,-0.076309
2.373,73.9093,-0.076309
2.404,73.9093,-0.076309
2.438,73.9093,-0.076309
2.465,73.9093,-0.076309
2.496,73.9093,-0.075076
2.527,73.9093,-0.075076
2.558,73.9093,-0.075076
2.590,73.9093,-0.075076
2.622,73.9093,-0.075076
2.654,73.9093,-0.075076
2.686,73.9093,-0.075076
2.716,73.9093,-0.075076
2.747,73.9093,-0.073975
2.778,73.9093,-0.073975
2.811,73.9093,-0.073975
2.839,73.9093,-0.073975
2.870,73.9093,-0.073975
2.901,73.9093,-0.073975
2.933,73.9093,-0.073975
2.962,73.9093,-0.073975
2.994,73.9093,-0.072996
3.025,73.9093,-0.072996
3.056,73.9093,-0.072996
3.087,73.9093,-0.072996
3.118,73.9093,-0.072996
3.148,73.9093,-0.072996
3.180,73.9093,-0.072996
3.210,73.9093,-0.072996
3.241,73.9093,-0.072093
3.272,73.9093,-0.072093
3.304,73.9093,-0.072093
3.334,73.9093,-0.072093
3.365,73.9093,-0.072093
3.396,73.9093,-0.072093
3.427,73.9093,-0.072093
3.458,73.9093,-0.072093
3.490,73.9093,-0.071237
3.521,73.9093,-0.071237
3.552,73.9093,-0.071237
3.583,73.9093,-0.071237
3.614,73.9093,-0.071237
3.645,73.9093,-0.071237
3.676,73.9093,-0.071237
3.707,73.9093,-0.071237
3.739,73.9093,-0.070390
3.770,73.9093,-0.070390
3.800,73.9093,-0.070390
3.831,73.9093,-0.070390
3.862,73.9093,-0.070390
3.893,73.9093,-0.070390
3.924,73.9093,-0.070390
3.955,73.9093,-0.070390
3.987,73.9093,-0.069703
4.017,73.9093,-0.069703
4.049,73.9093,-0.069703
4.080,73.9093,-0.069703
4.111,73.9093,-0.069703
4.142,73.9093,-0.069703
4.173,73.9092,-0.069703
4.206,73.9083,-0.069703
4.235,73.9069,-0.068922
4.267,73.9047,-0.068922
4.299,73.9013,-0.068922
4.335,73.8971,-0.068922
4.376,73.8909,-0.068922
4.407,73.8854,-0.068922
4.438,73.8789,-0.068922
4.470,73.8720,-0.068922
4.502,73.8638,-0.057676
4.534,73.8553,-0.057676
4.565,73.8457,-0.057676
4.596,73.8357,-0.057676
4.627,73.8252,-0.057676
4.658,73.8139,-0.057676
4.689,73.8015,-0.057676
4.719,73.7887,-0.040436
4.751,73.7751,-0.040436
4.783,73.7603,-0.040436
4.814,73.7452,-0.040436
4.845,73.7295,-0.040436
4.876,73.7125,-0.040436
4.907,73.6957,-0.040436
4.937,73.6779,-0.040436
4.967,73.6601,-0.040436
4.998,73.6402,-0.023808
5.029,73.6207,-0.023808
5.060,73.5992,-0.023808
5.092,73.5780,-0.023808
5.124,73.5536,-0.023808
5.154,73.5323,-0.023808
5.189,73.5036,-0.023808
5.216,73.4840,-0.003030
5.248,73.4581,-0.003030
5.278,73.4325,-0.003030
5.312,73.4036,-0.003030
5.340,73.3780,-0.003030
5.370,73.3507,-0.003030
5.401,73.3224,-0.003030
5.433,73.2912,-0.003030
5.464,73.2619,0.016158
5.495,73.2304,0.016158
5.526,73.1989,0.016158
5.558,73.1651,0.016158
5.586,73.1349,0.016158
5.617,73.1009,0.016158
5.648,73.0669,0.016158
5.680,73.0297,0.016158
5.710,72.9952,0.016158
5.741,72.9577,0.029662
5.772,72.9209,0.029662
5.804,72.8810,0.029662
5.834,72.8436,0.029662
5.865,72.8031,0.029662
5.896,72.7626,0.029662
5.926,72.7226,0.029662
5.957,72.6811,0.029662
5.989,72.6373,0.037350
6.020,72.5938,0.037350
6.050,72.5517,0.037350
6.081,72.5066,0.037350
6.117,72.4533,0.037350
6.144,72.4128,0.037350
6.175,72.3674,0.037350
6.205,72.3215,0.037350
6.236,72.2747,0.037350
6.267,72.2281,0.042591
6.299,72.1809,0.042591
6.329,72.1353,0.042591
6.361,72.0870,0.042591
6.392,72.0416,0.042591
6.423,71.9950,0.042591
6.454,71.9464,0.042591
6.486,71.9004,0.042591
6.516,71.8546,0.046365
6.548,71.8075,0.046365
6.578,71.7619,0.046365
6.609,71.7156,0.046365
6.640,71.6691,0.046365
6.673,71.6204,0.046365
6.701,71.5773,0.046365
6.733,71.5292,0.046365
6.764,71.4830,0.047617
6.795,71.4370,0.047617
6.826,71.3904,0.047617
6.858,71.3415,0.047617
6.888,71.2964,0.047617
6.921,71.2477,0.047617
6.950,71.2037,0.047617
6.981,71.1571,0.047617
7.012,71.1105,0.044511
7.043,71.0652,0.044511
7.074,71.0189,0.044511
7.105,70.9717,0.044511
7.135,70.9274,0.044511
7.166,70.8796,0.044511
7.197,70.8339,0.044511
7.228,70.7869,0.044511
7.259,70.7409,0.025700
7.289,70.6944,0.025700
7.321,70.6480,0.025700
7.351,70.6025,0.025700
7.382,70.5559,0.025700
7.413,70.5092,0.025700
7.444,70.4632,0.025700
7.475,70.4168,0.025700
7.506,70.3695,0.009194
7.539,70.3207,0.009194
7.568,70.2770,0.009194
7.599,70.2319,0.009194
7.629,70.1886,0.009194
7.661,70.1447,0.009194
7.691,70.1029,0.009194
7.723,70.0600,0.009194
7.753,70.0199,0.007914
7.784,69.9792,0.007914
7.815,69.9394,0.007914
7.851,69.8937,0.007914
7.877,69.8614,0.007914
7.908,69.8230,0.007914
7.938,69.7872,0.007914
7.969,69.7507,0.007914
8.000,69.7158,0.007406
8.031,69.6803,0.007406
8.062,69.6465,0.007406
8.093,69.6131,0.007406
8.123,69.5801,0.007406
8.149,69.5541,0.007406
8.186,69.5164,0.007406
8.217,69.4862,0.007406
8.248,69.4556,0.007255
8.280,69.4262,0.007255
8.311,69.3978,0.007255
8.342,69.3708,0.007255
8.373,69.3436,0.007255
8.406,69.3161,0.007255
8.436,69.2914,0.007255
8.467,69.2667,0.007255
8.498,69.2424,0.007077
8.528,69.2191,0.007077
8.559,69.1970,0.007077
8.589,69.1758,0.007077
8.620,69.1552,0.007077
8.651,69.1345,0.007077
8.682,69.1148,0.007077
8.713,69.0963,0.007077
8.746,69.0770,0.007020
8.774,69.0607,0.007020
8.808,69.0425,0.007020
8.836,69.0283,0.007020
8.869,69.0114,0.007020
8.897,68.9986,0.007020
8.929,68.9841,0.007020
8.959,68.9714,0.006935
8.993,68.9581,0.006935
9.021,68.9475,0.006935
9.052,68.9364,0.006935
9.083,68.9263,0.006935
9.113,68.9170,0.006935
9.144,68.9083,0.006935
9.175,68.9001,0.006935
9.207,68.8927,0.006935
9.238,68.8860,0.006935
9.268,68.8801,0.006888
9.299,68.8751,0.006888
9.330,68.8707,0.006888
9.361,68.8671,0.006888
9.393,68.8640,0.006888
9.426,68.8615,0.006888
9.455,68.8602,0.006888
9.485,68.8594,0.006917
9.516,68.8593,0.006917
9.549,68.8593,0.006917
9.578,68.8593,0.006917
9.610,68.8593,0.006917
9.641,68.8593,0.006917
9.675,68.8593,0.006917
9.702,68.8593,0.006917
9.734,68.8593,0.006757
9.763,68.8593,0.006757
9.796,68.8593,0.006757
9.826,68.8593,0.006757
9.857,68.8593,0.006757
9.888,68.8593,0.006757
9.919,68.8593,0.006757
9.949,68.8593,0.006757
9.982,68.8593,0.006644
10.012,68.8593,0.006644
10.046,68.8593,0.006644
10.073,68.8593,0.006644
10.104,68.8593,0.006644
10.135,68.8593,0.006644
10.165,68.8593,0.006644
10.196,68.8593,0.006644
10.230,68.8594,0.006728
10.258,68.8599,0.006728
10.289,68.8613,0.006728
10.320,68.8634,0.006728
10.351,68.8660,0.006728
10.381,68.8695,0.006728
10.411,68.8736,0.006728
10.442,68.8784,0.006728
10.476,68.8846,0.006700
10.504,68.8904,0.006700
10.534,68.8976,0.006700
10.567,68.9054,0.006700
10.598,68.9144,0.006700
10.630,68.9237,0.006700
10.660,68.9338,0.006700
10.691,68.9444,0.006700
10.722,68.9560,0.006700
10.753,68.9681,0.006700
10.784,68.9813,0.006474
10.816,68.9949,0.006474
10.846,69.0094,0.006474
10.878,69.0244,0.006474
10.908,69.0403,0.006474
10.939,69.0565,0.006474
10.969,69.0737,0.006474
11.001,69.0918,0.006296
11.033,69.1113,0.006296
11.063,69.1300,0.006296
11.094,69.1500,0.006296
11.126,69.1720,0.006296
11.156,69.1932,0.006296
11.187,69.2151,0.006296
11.218,69.2384,0.006296
11.249,69.2620,0.006296
11.280,69.2869,0.006145
11.312,69.3134,0.006145
11.343,69.3391,0.006145
11.374,69.3657,0.006145
11.407,69.3952,0.006145
11.437,69.4222,0.006145
11.467,69.4508,0.006145
11.499,69.4813,0.006013
11.530,69.5115,0.006013
11.561,69.5432,0.006013
11.592,69.5748,0.006013
11.623,69.6070,0.006013
11.654,69.6411,0.006013
11.686,69.6756,0.006013
11.716,69.7099,0.005834
11.748,69.7466,0.005834
11.778,69.7823,0.005834
11.810,69.8195,0.005834
11.841,69.8568,0.005834
11.872,69.8965,0.005834
11.903,69.9345,0.005834
11.934,69.9758,0.005834
11.965,70.0159,0.005834
11.997,70.0591,0.005834
12.028,70.1005,0.005430
12.058,70.1422,0.005430
12.090,70.1864,0.005430
12.121,70.2319,0.005430
12.153,70.2780,0.005430
12.183,70.3231,0.005430
12.214,70.3680,0.005430
12.246,70.4170,0.004988
12.277,70.4635,0.004988
12.307,70.5093,0.004988
12.338,70.5546,0.004988
12.370,70.6027,0.004988
12.400,70.6478,0.004988
12.431,70.6950,0.004988
12.462,70.7396,0.004988
12.493,70.7860,0.004564
12.524,70.8331,0.004564
12.551,70.8748,0.004564
12.586,70.9269,0.004564
12.616,70.9724,0.004564
12.647,71.0176,0.004564
12.678,71.0633,0.004564
12.709,71.1101,0.004564
12.739,71.1575,0.004065
12.771,71.2037,0.004065
12.802,71.2508,0.004065
12.833,71.2970,0.004065
12.864,71.3432,0.004065
12.896,71.3917,0.004065
12.925,71.4355,0.004065
12.957,71.4828,0.004065
12.987,71.5287,0.004065
13.019,71.5753,0.003294
13.049,71.6214,0.003294
13.080,71.6679,0.003294
13.112,71.7152,0.003294
13.142,71.7618,0.003294
13.173,71.8073,0.003294
13.205,71.8552,0.003294
13.236,71.9017,0.003294
13.267,71.9477,0.002202
13.298,71.9954,0.002202
13.329,72.0420,0.002202
13.360,72.0890,0.002202
13.392,72.1365,0.002202
13.423,72.1833,0.002202
13.454,72.2283,0.002202
13.485,72.2759,0.002202
13.518,72.3236,0.000555
13.547,72.3690,0.000555
13.579,72.4152,0.000555
13.609,72.4608,0.000555
13.640,72.5050,0.000555
13.671,72.5497,0.000555
13.704,72.5949,0.000555
13.734,72.6366,0.000555
13.765,72.6784,-0.002870
13.797,72.7209,-0.002870
13.828,72.7596,-0.002870
13.858,72.7982,-0.002870
13.889,72.8370,-0.002870
13.919,72.8751,-0.002870
13.950,72.9128,-0.002870
13.981,72.9481,-0.009777
14.012,72.9847,-0.009777
14.042,73.0187,-0.009777
14.073,73.0543,-0.009777
14.104,73.0889,-0.009777
14.135,73.1207,-0.009777
14.166,73.1534,-0.009777
14.197,73.1856,-0.009777
14.228,73.2160,-0.022500
14.260,73.2472,-0.022500
14.291,73.2764,-0.022500
14.324,73.3081,-0.022500
14.354,73.3339,-0.022500
14.387,73.3638,-0.022500
14.416,73.3874,-0.022500
14.446,73.4131,-0.022500
14.478,73.4384,-0.041716
14.509,73.4628,-0.041716
14.541,73.4882,-0.041716
14.570,73.5093,-0.041716
14.604,73.5335,-0.041716
14.631,73.5521,-0.041716
14.663,73.5732,-0.041716
14.693,73.5924,-0.041716
14.724,73.6125,-0.041716
14.755,73.6307,-0.064998
14.787,73.6490,-0.064998
14.818,73.6662,-0.064998
14.848,73.6820,-0.064998
14.878,73.6980,-0.064998
14.909,73.7127,-0.064998
14.940,73.7267,-0.064998
14.971,73.7405,-0.064998
15.002,73.7529,-0.088100
15.033,73.7653,-0.088100
15.064,73.7763,-0.088100
15.095,73.7871,-0.088100
15.126,73.7967,-0.088100
15.157,73.8062,-0.088100
15.188,73.8145,-0.088100
15.219,73.8222,-0.088100
15.250,73.8292,-0.109320
15.281,73.8355,-0.109320
15.311,73.8408,-0.109320
15.343,73.8458,-0.109320
15.374,73.8498,-0.109320
15.405,73.8532,-0.109320
15.436,73.8558,-0.109320
15.468,73.8577,-0.109320
15.498,73.8588,-0.128066
15.529,73.8593,-0.128066
15.560,73.8593,-0.128066
15.591,73.8593,-0.128066
15.622,73.8593,-0.128066
15.654,73.8593,-0.128066
15.685,73.8593,-0.128066
15.716,73.8593,-0.128066
15.747,73.8593,-0.128066
15.777,73.8593,-0.124641
15.809,73.8593,-0.124641
15.839,73.8593,-0.124641
15.870,73.8593,-0.124641
15.902,73.8593,-0.124641
15.933,73.8593,-0.124641
15.964,73.8593,-0.124641
15.994,73.8593,-0.106846
16.027,73.8593,-0.106846
16.057,73.8593,-0.106846
16.088,73.8593,-0.106846
16.119,73.8593,-0.106846
16.150,73.8593,-0.106846
16.181,73.8593,-0.106846
16.212,73.8593,-0.097840
16.243,73.8593,-0.097840
16.274,73.8593,-0.097840
16.301,73.8593,-0.097840
16.336,73.8593,-0.097840
16.367,73.8593,-0.097840
16.399,73.8593,-0.097840
16.430,73.8593,-0.097840
16.464,73.8593,-0.097840
16.492,73.8593,-0.097840
16.526,73.8593,-0.092532
16.553,73.8593,-0.092532
16.588,73.8593,-0.092532
16.615,73.8593,-0.092532
16.646,73.8593,-0.092532
16.678,73.8593,-0.092532
16.708,73.8593,-0.092532
16.739,73.8593,-0.088618
16.771,73.8593,-0.088618
16.802,73.8593,-0.088618
16.833,73.8593,-0.088618
16.864,73.8593,-0.088618
16.895,73.8593,-0.088618
16.927,73.8593,-0.088618
16.956,73.8593,-0.088618
16.987,73.8593,-0.085625
17.019,73.8593,-0.085625
17.050,73.8593,-0.085625
17.081,73.8593,-0.085625
17.111,73.8593,-0.085625
17.143,73.8593,-0.085625
17.174,73.8593,-0.085625
17.210,73.8593,-0.085625
17.252,73.8593,-0.083178
17.283,73.8593,-0.083178
17.314,73.8593,-0.083178
17.345,73.8593,-0.083178
17.376,73.8593,-0.083178
17.408,73.8593,-0.083178
17.440,73.8593,-0.083178
17.469,73.8593,-0.081070
17.502,73.8593,-0.081070
17.530,73.8593,-0.081070
17.563,73.8593,-0.081070
17.593,73.8593,-0.081070
17.624,73.8593,-0.081070
17.656,73.8593,-0.081070
17.687,73.8593,-0.081070
17.718,73.8593,-0.079264
17.749,73.8593,-0.079264
17.780,73.8593,-0.079264
17.811,73.8593,-0.079264
17.842,73.8593,-0.079264
17.873,73.8593,-0.079264
17.903,73.8593,-0.079264
17.934,73.8593,-0.079264
17.964,73.8593,-0.077692
17.994,73.8593,-0.077692
18.025,73.8593,-0.077692
18.056,73.8593,-0.077692
18.086,73.8593,-0.077692
18.117,73.8593,-0.077692
18.148,73.8593,-0.077692
18.179,73.8593,-0.077692
18.211,73.8593,-0.076262
18.243,73.8593,-0.076262
18.275,73.8593,-0.076262
18.306,73.8593,-0.076262
18.337,73.8593,-0.076262
18.368,73.8593,-0.076262
18.402,73.8593,-0.076262
18.430,73.8593,-0.076262
18.462,73.8593,-0.076262
18.493,73.8593,-0.076262
18.524,73.8593,-0.075076
18.554,73.8593,-0.075076
18.587,73.8593,-0.075076
18.617,73.8593,-0.075076
18.648,73.8593,-0.075076
18.678,73.8593,-0.075076
18.709,73.8593,-0.075076
18.741,73.8593,-0.073975
18.774,73.8593,-0.073975
18.802,73.8593,-0.073975
18.833,73.8593,-0.073975
18.864,73.8593,-0.073975
18.895,73.8593,-0.073975
18.926,73.8593,-0.073975
18.957,73.8593,-0.073975
18.988,73.8593,-0.073975
19.020,73.8593,-0.073006
19.050,73.8593,-0.073006
19.081,73.8593,-0.073006
19.112,73.8593,-0.073006
19.143,73.8593,-0.073006
19.173,73.8593,-0.073006
19.205,73.8593,-0.073006
19.236,73.8593,-0.072084
19.267,73.8593,-0.072084
19.299,73.8593,-0.072084
19.329,73.8593,-0.072084
19.361,73.8593,-0.072084
19.391,73.8593,-0.072084
19.423,73.8593,-0.072084
19.454,73.8593,-0.072084
19.485,73.8593,-0.071152
19.516,73.8593,-0.071152
19.547,73.8593,-0.071152
19.579,73.8593,-0.071152
19.609,73.8593,-0.071152
19.641,73.8593,-0.071152
19.672,73.8593,-0.071152
19.703,73.8593,-0.071152
19.734,73.8593,-0.070427
19.765,73.8593,-0.070427
19.796,73.8593,-0.070427
19.826,73.8588,-0.070427
19.857,73.8576,-0.070427
19.888,73.8556,-0.070427
19.919,73.8530,-0.070427
19.950,73.8495,-0.070427
19.981,73.8454,-0.069148
20.013,73.8406,-0.069148
20.043,73.8349,-0.069148
20.074,73.8287,-0.069148
20.105,73.8216,-0.069148
20.137,73.8137,-0.069148
20.169,73.8050,-0.069148
20.199,73.7961,-0.069148
20.230,73.7859,-0.069148
20.261,73.7752,-0.055531
20.294,73.7632,-0.055531
20.324,73.7514,-0.055531
20.355,73.7381,-0.055531
20.387,73.7245,-0.055531
20.418,73.7097,-0.055531
20.449,73.6950,-0.055531
20.480,73.6787,-0.034395
20.511,73.6625,-0.034395
20.543,73.6447,-0.034395
20.573,73.6268,-0.034395
20.604,73.6084,-0.034395
20.635,73.5891,-0.034395
20.666,73.5691,-0.034395
20.697,73.5479,-0.034395
20.728,73.5258,-0.034395
20.759,73.5036,-0.015235
20.790,73.4812,-0.015235
20.822,73.4566,-0.015235
20.852,73.4320,-0.015235
20.883,73.4070,-0.015235
20.915,73.3800,-0.015235
20.947,73.3530,-0.015235
20.978,73.3251,0.005383
21.010,73.2951,0.005383
21.040,73.2676,0.005383
21.071,73.2381,0.005383
21.102,73.2068,0.005383
21.133,73.1769,0.005383
21.164,73.1442,0.005383
21.195,73.1114,0.005383
21.226,73.0791,0.005383
21.257,73.0441,0.022218
21.288,73.0091,0.022218
21.321,72.9725,0.022218
21.350,72.9379,0.022218
21.381,72.9013,0.022218
21.412,72.8636,0.022218
21.443,72.8252,0.022218
21.474,72.7856,0.032419
21.505,72.7461,0.032419
21.536,72.7043,0.032419
21.567,72.6642,0.032419
21.597,72.6228,0.032419
21.628,72.5809,0.032419
21.659,72.5377,0.032419
21.690,72.4929,0.032419
21.722,72.4452,0.038253
21.755,72.3973,0.038253
21.783,72.3553,0.038253
21.815,72.3088,0.038253
21.847,72.2605,0.038253
21.877,72.2150,0.038253
21.909,72.1661,0.038253
21.941,72.1183,0.038253
21.971,72.0740,0.038253
22.002,72.0279,0.042958
22.033,71.9812,0.042958
22.064,71.9343,0.042958
22.095,71.8867,0.042958
22.126,71.8411,0.042958
22.157,71.7943,0.042958
22.188,71.7488,0.042958
22.219,71.7018,0.042958
22.249,71.6569,0.045791
22.280,71.6098,0.045791
22.311,71.5647,0.045791
22.342,71.5171,0.045791
22.373,71.4715,0.045791
22.404,71.4236,0.045791
22.435,71.3788,0.045791
22.465,71.3334,0.045791
22.496,71.2868,0.046318
22.531,71.2327,0.046318
22.559,71.1919,0.046318
22.591,71.1447,0.046318
22.621,71.0997,0.046318
22.656,71.0453,0.046318
22.682,71.0069,0.046318
22.712,70.9624,0.046318
22.744,70.9150,0.046318
22.775,70.8679,0.030612
22.806,70.8217,0.030612
22.838,70.7734,0.030612
22.868,70.7288,0.030612
22.899,70.6815,0.030612
22.931,70.6332,0.030612
22.962,70.5872,0.030612
22.994,70.5397,0.011961
23.029,70.4864,0.011961
23.055,70.4482,0.011961
23.087,70.3994,0.011961
23.117,70.3549,0.011961
23.148,70.3067,0.011961
23.180,70.2611,0.011961
23.210,70.2166,0.011961
23.242,70.1707,0.008469
23.272,70.1279,0.008469
23.303,70.0845,0.008469
23.333,70.0419,0.008469
23.365,69.9996,0.008469
23.395,69.9594,0.008469
23.426,69.9192,0.008469
23.457,69.8784,0.008469
23.490,69.8371,0.008469
23.519,69.8008,0.007811
23.550,69.7641,0.007811
23.581,69.7273,0.007811
23.613,69.6894,0.007811
23.646,69.6512,0.007811
23.677,69.6177,0.007811
23.706,69.5846,0.007811
23.738,69.5517,0.007811
23.771,69.5174,0.007491
23.800,69.4869,0.007491
23.830,69.4572,0.007491
23.870,69.4178,0.007491
23.908,69.3822,0.007491
23.939,69.3532,0.007491
23.971,69.3251,0.007491
24.002,69.2982,0.007491
24.033,69.2717,0.007284
24.064,69.2459,0.007284
24.094,69.2218,0.007284
24.126,69.1969,0.007284
24.157,69.1737,0.007284
24.187,69.1517,0.007284
24.219,69.1292,0.007284
24.250,69.1078,0.007142
24.281,69.0878,0.007142
24.313,69.0673,0.007142
24.343,69.0487,0.007142
24.374,69.0306,0.007142
24.405,69.0125,0.007142
24.435,68.9963,0.007142
24.467,68.9799,0.007142
24.498,68.9643,0.007142
24.530,68.9493,0.007020
24.560,68.9358,0.007020
24.591,68.9228,0.007020
24.621,68.9104,0.007020
24.653,68.8984,0.007020
24.683,68.8878,0.007020
24.713,68.8775,0.007020
24.745,68.8679,0.006917
24.776,68.8589,0.006917
24.807,68.8509,0.006917
24.838,68.8433,0.006917
24.870,68.8366,0.006917
24.900,68.8305,0.006917
24.926,68.8263,0.006917
24.962,68.8210,0.006917
24.994,68.8171,0.006823
25.026,68.8140,0.006823
25.058,68.8118,0.006823
25.089,68.8102,0.006823
25.120,68.8094,0.006823
25.150,68.8093,0.006823
25.180,68.8093,0.006823
25.212,68.8093,0.006823
25.243,68.8093,0.006757
25.274,68.8093,0.006757
25.305,68.8096,0.006757
25.337,68.8106,0.006757
25.368,68.8122,0.006757
25.398,68.8145,0.006757
25.430,68.8176,0.006757
25.460,68.8215,0.006757
25.491,68.8261,0.006728
25.522,68.8311,0.006728
25.553,68.8373,0.006728
25.583,68.8438,0.006728
25.613,68.8512,0.006728
25.644,68.8591,0.006728
25.675,68.8682,0.006728
25.706,68.8778,0.006728
25.738,68.8886,0.006728
25.770,68.8999,0.006616
25.800,68.9113,0.006616
25.831,68.9238,0.006616
25.861,68.9364,0.006616
25.892,68.9508,0.006616
25.922,68.9650,0.006616
25.954,68.9813,0.006616
25.985,68.9970,0.006616
26.017,69.0141,0.006616
26.048,69.0322,0.006446
26.078,69.0498,0.006446
26.110,69.0691,0.006446
26.141,69.0891,0.006446
26.172,69.1101,0.006446
26.203,69.1312,0.006446
26.234,69.1532,0.006446
26.265,69.1759,0.006277
26.296,69.1994,0.006277
26.328,69.2244,0.006277
26.360,69.2505,0.006277
26.390,69.2748,0.006277
26.422,69.3021,0.006277
26.453,69.3289,0.006277
26.484,69.3568,0.006277
26.516,69.3864,0.006136
26.547,69.4157,0.006136
26.578,69.4458,0.006136
26.609,69.4763,0.006136
26.639,69.5073,0.006136
26.671,69.5411,0.006136
26.702,69.5739,0.006136
26.732,69.6060,0.006136
26.763,69.6416,0.005910
26.795,69.6779,0.005910
26.827,69.7147,0.005910
26.859,69.7523,0.005910
26.890,69.7896,0.005910
26.920,69.8267,0.005910
26.951,69.8660,0.005910
26.982,69.9051,0.005910
27.014,69.9467,0.005562
27.045,69.9864,0.005562
27.076,70.0286,0.005562
27.105,70.0690,0.005562
27.137,70.1123,0.005562
27.167,70.1563,0.005562
27.198,70.2001,0.005562
27.228,70.2456,0.005562
27.259,70.2903,0.005176
27.291,70.3387,0.005176
27.321,70.3831,0.005176
27.353,70.4312,0.005176
27.383,70.4761,0.005176
27.415,70.5247,0.005176
27.445,70.5696,0.005176
27.476,70.6157,0.005176
27.506,70.6606,0.004724
27.542,70.7157,0.004724
27.568,70.7548,0.004724
27.600,70.8018,0.004724
27.631,70.8484,0.004724
27.662,70.8955,0.004724
27.694,70.9422,0.004724
27.725,70.9887,0.004724
27.755,71.0347,0.004169
27.787,71.0820,0.004169
27.817,71.1277,0.004169
27.848,71.1749,0.004169
27.879,71.2206,0.004169
27.911,71.2676,0.004169
27.942,71.3143,0.004169
27.973,71.3618,0.004169
28.004,71.4075,0.003491
28.035,71.4544,0.003491
28.066,71.4999,0.003491
28.097,71.5464,0.003491
28.129,71.5945,0.003491
28.160,71.6420,0.003491
28.190,71.6879,0.003491
28.222,71.7347,0.002578
28.250,71.7788,0.002578
28.283,71.8267,0.002578
28.314,71.8733,0.002578
28.345,71.9191,0.002578
28.376,71.9662,0.002578
28.407,72.0115,0.002578
28.436,72.0570,0.002578
28.467,72.1025,0.002578
28.498,72.1489,0.001129
28.529,72.1948,0.001129
28.560,72.2425,0.001129
28.591,72.2894,0.001129
28.623,72.3359,0.001129
28.654,72.3823,0.001129
28.685,72.4286,0.001129
28.717,72.4728,0.001129
28.748,72.5160,0.001129
28.778,72.5588,-0.001713
28.810,72.6026,-0.001713
28.842,72.6442,-0.001713
28.873,72.6857,-0.001713
28.905,72.7278,-0.001713
28.934,72.7646,-0.001713
28.966,72.8034,-0.001713
28.996,72.8407,-0.007462
29.027,72.8770,-0.007462
29.057,72.9139,-0.007462
29.088,72.9488,-0.007462
29.119,72.9831,-0.007462
29.149,73.0174,-0.007462
29.180,73.0501,-0.007462
29.211,73.0837,-0.007462
29.243,73.1167,-0.018416
29.274,73.1484,-0.018416
29.306,73.1793,-0.018416
29.337,73.2089,-0.018416
29.368,73.2386,-0.018416
29.399,73.2668,-0.018416
29.430,73.2945,-0.018416
29.462,73.3225,-0.018416
29.492,73.3476,-0.036042
29.523,73.3733,-0.036042
29.554,73.3983,-0.036042
29.586,73.4232,-0.036042
29.617,73.4464,-0.036042
29.647,73.4688,-0.036042
29.678,73.4903,-0.036042
29.709,73.5119,-0.036042
29.740,73.5324,-0.058683
29.771,73.5517,-0.058683
29.802,73.5707,-0.058683
29.837,73.5918,-0.058683
29.864,73.6070,-0.058683
29.896,73.6238,-0.058683
29.927,73.6400,-0.058683
29.960,73.6564,-0.058683
29.989,73.6702,-0.058683
30.021,73.6844,-0.082275
30.051,73.6972,-0.082275
30.084,73.7100,-0.082275
30.113,73.7210,-0.082275
30.144,73.7319,-0.082275
30.175,73.7421,-0.082275
30.206,73.7515,-0.082275
30.237,73.7605,-0.103825
30.267,73.7684,-0.103825
30.301,73.7765,-0.103825
30.329,73.7823,-0.103825
30.360,73.7884,-0.103825
30.391,73.7934,-0.103825
30.423,73.7980,-0.103825
30.454,73.8018,-0.103825
30.485,73.8046,-0.103825
30.516,73.8068,-0.124998
30.548,73.8085,-0.124998
30.578,73.8092,-0.124998
30.610,73.8093,-0.124998
30.643,73.8093,-0.124998
30.673,73.8093,-0.124998
30.703,73.8093,-0.124998
30.734,73.8093,-0.124998
30.765,73.8093,-0.127981
30.796,73.8093,-0.127981
30.828,73.8093,-0.127981
30.859,73.8093,-0.127981
30.891,73.8093,-0.127981
30.922,73.8093,-0.127981
30.953,73.8093,-0.127981
30.984,73.8093,-0.127981
31.015,73.8093,-0.111617
31.047,73.8093,-0.111617
31.076,73.8093,-0.111617
31.108,73.8093,-0.111617
31.142,73.8093,-0.111617
31.169,73.8093,-0.111617
31.202,73.8093,-0.111617
31.232,73.8093,-0.099788
31.263,73.8093,-0.099788
31.295,73.8093,-0.099788
31.329,73.8093,-0.099788
31.357,73.8093,-0.099788
31.390,73.8093,-0.099788
31.418,73.8093,-0.099788
31.450,73.8093,-0.099788
31.482,73.8093,-0.099788
31.511,73.8093,-0.099788
31.542,73.8093,-0.093812
31.573,73.8093,-0.093812
31.605,73.8093,-0.093812
31.635,73.8093,-0.093812
31.665,73.8093,-0.093812
31.697,73.8093,-0.093812
31.727,73.8093,-0.093812
31.758,73.8093,-0.089615
31.795,73.8093,-0.089615
31.820,73.8093,-0.089615
31.851,73.8093,-0.089615
31.882,73.8093,-0.089615
31.913,73.8093,-0.089615
31.944,73.8093,-0.089615
31.975,73.8093,-0.089615
32.006,73.8093,-0.089615
32.037,73.8093,-0.086369
32.068,73.8093,-0.086369
32.098,73.8093,-0.086369
32.129,73.8093,-0.086369
32.160,73.8093,-0.086369
32.191,73.8093,-0.086369
32.221,73.8093,-0.086369
32.252,73.8093,-0.083762
32.282,73.8093,-0.083762
32.314,73.8093,-0.083762
32.346,73.8093,-0.083762
32.377,73.8093,-0.083762
32.407,73.8093,-0.083762
32.439,73.8093,-0.083762
32.471,73.8093,-0.083762
32.503,73.8093,-0.081616
32.533,73.8093,-0.081616
32.564,73.8093,-0.081616
32.596,73.8093,-0.081616
32.627,73.8093,-0.081616
32.657,73.8093,-0.081616
32.689,73.8093,-0.081616
32.720,73.8093,-0.081616
32.751,73.8093,-0.079734
32.783,73.8093,-0.079734
32.814,73.8093,-0.079734
32.845,73.8093,-0.079734
32.876,73.8093,-0.079734
32.907,73.8093,-0.079734
32.937,73.8093,-0.079734
32.969,73.8093,-0.079734
32.998,73.8093,-0.078144
33.030,73.8093,-0.078144
33.060,73.8093,-0.078144
33.091,73.8093,-0.078144
33.123,73.8093,-0.078144
33.154,73.8093,-0.078144
33.184,73.8093,-0.078144
33.215,73.8093,-0.076704
33.246,73.8093,-0.076704
33.276,73.8093,-0.076704
33.307,73.8093,-0.076704
33.339,73.8093,-0.076704
33.369,73.8093,-0.076704
33.401,73.8093,-0.076704
33.432,73.8093,-0.076704
33.463,73.8093,-0.076704
33.493,73.8093,-0.075424
33.524,73.8093,-0.075424
33.555,73.8093,-0.075424
33.590,73.8093,-0.075424
33.617,73.8093,-0.075424
33.648,73.8093,-0.075424
33.679,73.8093,-0.075424
33.710,73.8093,-0.075424
33.741,73.8093,-0.075424
33.773,73.8093,-0.074304
33.805,73.8093,-0.074304
33.836,73.8093,-0.074304
33.866,73.8093,-0.074304
33.899,73.8093,-0.074304
33.928,73.8093,-0.074304
33.961,73.8093,-0.074304
33.991,73.8093,-0.073288
34.022,73.8093,-0.073288
34.053,73.8093,-0.073288
34.083,73.8093,-0.073288
34.115,73.8093,-0.073288
34.145,73.8093,-0.073288
34.176,73.8093,-0.073288
34.207,73.8093,-0.073288
34.238,73.8093,-0.072328
34.268,73.8093,-0.072328
34.299,73.8093,-0.072328
34.329,73.8093,-0.072328
34.361,73.8093,-0.072328
34.392,73.8093,-0.072328
34.423,73.8093,-0.072328
34.455,73.8093,-0.072328
34.485,73.8093,-0.071340
34.517,73.8093,-0.071340
34.548,73.8093,-0.071340
34.580,73.8093,-0.071340
34.611,73.8093,-0.071340
34.642,73.8093,-0.071340
34.674,73.8093,-0.071340
34.703,73.8093,-0.071340
34.735,73.8093,-0.070531
34.766,73.8093,-0.070531
34.797,73.8093,-0.070531
34.829,73.8093,-0.070531
34.859,73.8091,-0.070531
34.890,73.8081,-0.070531
34.921,73.8063,-0.070531
34.952,73.8039,-0.070531
34.983,73.8008,-0.070531
35.015,73.7968,-0.070013
35.046,73.7920,-0.070013
35.076,73.7869,-0.070013
35.107,73.7808,-0.070013
35.138,73.7740,-0.070013
35.169,73.7664,-0.070013
35.199,73.7582,-0.070013
35.231,73.7493,-0.070013
35.262,73.7394,-0.070013
35.292,73.7293,-0.056575
35.323,73.7179,-0.056575
35.354,73.7061,-0.056575
35.386,73.6935,-0.056575
35.417,73.6798,-0.056575
35.448,73.6658,-0.056575
35.478,73.6512,-0.056575
35.509,73.6359,-0.036239
35.540,73.6197,-0.036239
35.571,73.6029,-0.036239
35.601,73.5852,-0.036239
35.632,73.5670,-0.036239
35.663,73.5479,-0.036239
35.694,73.5279,-0.036239
35.725,73.5078,-0.036239
35.756,73.4857,-0.018520
35.787,73.4644,-0.018520
35.819,73.4410,-0.018520
35.849,73.4175,-0.018520
35.880,73.3938,-0.018520
35.910,73.3692,-0.018520
35.941,73.3445,-0.018520
35.972,73.3179,-0.018520
36.002,73.2910,0.002400
36.034,73.2630,0.002400
36.065,73.2341,0.002400
36.096,73.2050,0.002400
36.127,73.1744,0.002400
36.158,73.1437,0.002400
36.189,73.1126,0.002400
36.220,73.0799,0.002400
36.252,73.0467,0.020298
36.282,73.0135,0.020298
36.313,72.9789,0.020298
36.344,72.9446,0.020298
36.375,72.9087,0.020298
36.406,72.8711,0.020298
36.436,72.8355,0.020298
36.468,72.7967,0.020298
36.499,72.7580,0.031854
36.530,72.7185,0.031854
36.561,72.6784,0.031854
36.591,72.6379,0.031854
36.623,72.5960,0.031854
36.654,72.5526,0.031854
36.685,72.5106,0.031854
36.715,72.4668,0.031854
36.747,72.4221,0.038206
36.778,72.3762,0.038206
36.810,72.3294,0.038206
36.841,72.2831,0.038206
36.872,72.2351,0.038206
36.903,72.1898,0.038206
36.930,72.1490,0.038206
36.964,72.0977,0.038206
36.995,72.0517,0.038206
37.026,72.0049,0.043005
37.060,71.9544,0.043005
37.089,71.9094,0.043005
37.120,71.8633,0.043005
37.151,71.8174,0.043005
37.183,71.7700,0.043005
37.214,71.7231,0.043005
37.244,71.6772,0.046271
37.275,71.6300,0.046271
37.306,71.5855,0.046271
37.337,71.5383,0.046271
37.368,71.4918,0.046271
37.402,71.4401,0.046271
37.430,71.3977,0.046271
37.460,71.3540,0.046271
37.492,71.3060,0.047250
37.523,71.2589,0.047250
37.554,71.2126,0.047250
37.585,71.1651,0.047250
37.617,71.1186,0.047250
37.647,71.0725,0.047250
37.679,71.0247,0.047250
37.710,70.9774,0.047250
37.741,70.9315,0.047250
37.774,70.8815,0.036126
37.805,70.8365,0.036126
37.835,70.7907,0.036126
37.866,70.7454,0.036126
37.897,70.6971,0.036126
37.928,70.6509,0.036126
37.959,70.6038,0.036126
37.991,70.5579,0.017230
38.022,70.5110,0.017230
38.053,70.4642,0.017230
38.084,70.4182,0.017230
38.115,70.3702,0.017230
38.146,70.3249,0.017230
38.177,70.2787,0.017230
38.208,70.2317,0.017230
38.239,70.1865,0.017230
38.269,70.1416,0.008921
38.302,70.0953,0.008921
38.332,70.0525,0.008921
38.362,70.0102,0.008921
38.393,69.9681,0.008921
38.423,69.9275,0.008921
38.456,69.8837,0.008921
38.482,69.8510,0.008921
38.516,69.8083,0.007933
38.548,69.7685,0.007933
38.582,69.7260,0.007933
38.609,69.6932,0.007933
38.640,69.6575,0.007933
38.670,69.6225,0.007933
38.701,69.5876,0.007933
38.733,69.5526,0.007538
38.764,69.5179,0.007538
38.795,69.4855,0.007538
38.827,69.4519,0.007538
38.857,69.4221,0.007538
38.888,69.3909,0.007538
38.920,69.3611,0.007538
38.950,69.3317,0.007538
38.981,69.3033,0.007538
39.012,69.2755,0.007340
39.044,69.2481,0.007340
39.078,69.2192,0.007340
39.106,69.1961,0.007340
39.137,69.1706,0.007340
39.169,69.1468,0.007340
39.200,69.1232,0.007340
39.231,69.0999,0.007152
39.263,69.0780,0.007152
39.295,69.0561,0.007152
39.326,69.0354,0.007152
39.357,69.0159,0.007152
39.388,68.9967,0.007152
39.419,68.9790,0.007152
39.450,68.9609,0.007152
39.482,68.9441,0.007152
39.512,68.9281,0.007058
39.544,68.9126,0.007058
39.575,68.8980,0.007058
39.607,68.8841,0.007058
39.638,68.8706,0.007058
39.669,68.8582,0.007058
39.700,68.8465,0.007058
39.731,68.8357,0.006926
39.763,68.8251,0.006926
39.795,68.8156,0.006926
39.827,68.8065,0.006926
39.858,68.7985,0.006926
39.889,68.7916,0.006926
39.920,68.7850,0.006926
39.950,68.7794,0.006926
39.981,68.7743,0.006926
40.012,68.7700,0.006879
40.042,68.7665,0.006879
40.075,68.7636,0.006879
40.105,68.7614,0.006879
40.138,68.7600,0.006879
40.167,68.7595,0.006879
40.200,68.7593,0.006879
40.230,68.7593,0.006870
40.263,68.7593,0.006870
40.291,68.7593,0.006870
40.323,68.7595,0.006870
40.354,68.7601,0.006870
40.387,68.7617,0.006870
40.416,68.7637,0.006870
40.447,68.7665,0.006870
40.477,68.7700,0.006879
40.508,68.7745,0.006879
40.538,68.7793,0.006879
40.571,68.7854,0.006879
40.600,68.7916,0.006879
40.631,68.7988,0.006879
40.663,68.8071,0.006879
40.694,68.8154,0.006879
40.725,68.8249,0.006728
40.756,68.8352,0.006728
40.787,68.8462,0.006728
40.819,68.8577,0.006728
40.850,68.8705,0.006728
40.881,68.8832,0.006728
40.912,68.8969,0.006728
40.944,68.9121,0.006728
40.974,68.9266,0.006512
41.005,68.9431,0.006512
41.037,68.9596,0.006512
41.067,68.9770,0.006512
41.098,68.9952,0.006512
41.129,69.0138,0.006512
41.160,69.0337,0.006512
41.191,69.0543,0.006512
41.222,69.0750,0.006390
41.254,69.0975,0.006390
41.285,69.1196,0.006390
41.317,69.1437,0.006390
41.347,69.1676,0.006390
41.382,69.1950,0.006390
41.410,69.2187,0.006390
41.442,69.2456,0.006390
41.473,69.2724,0.006201
41.505,69.3011,0.006201
41.536,69.3290,0.006201
41.567,69.3592,0.006201
41.601,69.3919,0.006201
41.629,69.4191,0.006201
41.660,69.4508,0.006201
41.689,69.4813,0.006201
41.722,69.5159,0.005947
41.752,69.5483,0.005947
41.783,69.5815,0.005947
41.814,69.6170,0.005947
41.845,69.6524,0.005947
41.876,69.6896,0.005947
41.910,69.7301,0.005947
41.939,69.7650,0.005947
41.969,69.8025,0.005947
42.000,69.8427,0.005947
42.031,69.8824,0.005618
42.063,69.9247,0.005618
42.094,69.9653,0.005618
42.125,70.0089,0.005618
42.157,70.0525,0.005618
42.188,70.0964,0.005618
42.221,70.1437,0.005618
42.249,70.1842,0.005260
42.279,70.2286,0.005260
42.310,70.2745,0.005260
42.340,70.3214,0.005260
42.371,70.3666,0.005260
42.402,70.4137,0.005260
42.434,70.4604,0.005260
42.465,70.5071,0.005260
42.498,70.5569,0.004846
42.526,70.5992,0.004846
42.557,70.6450,0.004846
42.590,70.6953,0.004846
42.619,70.7384,0.004846
42.653,70.7898,0.004846
42.680,70.8308,0.004846
42.711,70.8777,0.004846
42.743,70.9238,0.004846
42.774,70.9709,0.004357
42.804,71.0157,0.004357
42.835,71.0620,0.004357
42.866,71.1093,0.004357
42.898,71.1566,0.004357
42.929,71.2032,0.004357
42.960,71.2512,0.004357
42.992,71.2983,0.003689
43.023,71.3449,0.003689
43.054,71.3907,0.003689
43.085,71.4384,0.003689
43.117,71.4856,0.003689
43.147,71.5311,0.003689
43.178,71.5765,0.003689
43.209,71.6242,0.003689
43.240,71.6692,0.002804
43.273,71.7210,0.002804
43.300,71.7593,0.002804
43.333,71.8098,0.002804
43.363,71.8558,0.002804
43.394,71.9015,0.002804
43.425,71.9469,0.002804
43.457,71.9949,0.002804
43.487,72.0409,0.001346
43.517,72.0868,0.001346
43.549,72.1338,0.001346
43.581,72.1816,0.001346
43.611,72.2265,0.001346
43.643,72.2749,0.001346
43.674,72.3197,0.001346
43.708,72.3713,0.001346
43.735,72.4090,0.001346
43.766,72.4542,-0.001270
43.798,72.4974,-0.001270
43.829,72.5408,-0.001270
43.860,72.5821,-0.001270
43.890,72.6223,-0.001270
43.921,72.6620,-0.001270
43.952,72.7013,-0.001270
43.983,72.7410,-0.006568
44.014,72.7782,-0.006568
44.045,72.8158,-0.006568
44.076,72.8525,-0.006568
44.110,72.8919,-0.006568
44.137,72.9235,-0.006568
44.172,72.9613,-0.006568
44.202,72.9944,-0.006568
44.230,73.0239,-0.016854
44.262,73.0577,-0.016854
44.293,73.0889,-0.016854
44.324,73.1199,-0.016854
44.355,73.1503,-0.016854
44.386,73.1795,-0.016854
44.416,73.2073,-0.016854
44.448,73.2362,-0.016854
44.480,73.2640,-0.033830
44.510,73.2907,-0.033830
44.542,73.3167,-0.033830
44.573,73.3413,-0.033830
44.608,73.3688,-0.033830
44.635,73.3891,-0.033830
44.666,73.4127,-0.033830
44.697,73.4345,-0.033830
44.729,73.4567,-0.033830
44.761,73.4773,-0.056246
44.791,73.4973,-0.056246
44.822,73.5159,-0.056246
44.854,73.5354,-0.056246
44.885,73.5525,-0.056246
44.917,73.5705,-0.056246
44.948,73.5865,-0.056246
44.980,73.6027,-0.079913
45.011,73.6173,-0.079913
45.042,73.6311,-0.079913
45.073,73.6446,-0.079913
45.104,73.6569,-0.079913
45.135,73.6691,-0.079913
45.166,73.6801,-0.079913
45.196,73.6903,-0.079913
45.227,73.6998,-0.079913
45.258,73.7086,-0.101642
45.289,73.7169,-0.101642
45.320,73.7244,-0.101642
45.350,73.7309,-0.101642
45.384,73.7376,-0.101642
45.414,73.7427,-0.101642
45.444,73.7471,-0.101642
45.474,73.7508,-0.101642
45.505,73.7540,-0.123671
45.538,73.7566,-0.123671
45.568,73.7581,-0.123671
45.599,73.7591,-0.123671
45.630,73.7593,-0.123671
45.661,73.7593,-0.123671
45.692,73.7593,-0.123671
45.722,73.7593,-0.123671
45.754,73.7593,-0.129779
45.784,73.7593,-0.129779
45.815,73.7593,-0.129779
45.847,73.7593,-0.129779
45.876,73.7593,-0.129779
45.907,73.7593,-0.129779
45.938,73.7593,-0.129779
45.963,73.7593,-0.129779
46.000,73.7593,-0.114308
46.033,73.7593,-0.114308
46.063,73.7593,-0.114308
46.094,73.7593,-0.114308
46.125,73.7593,-0.114308
46.157,73.7593,-0.114308
46.187,73.7593,-0.114308
46.219,73.7593,-0.114308
46.250,73.7593,-0.100748
46.282,73.7593,-0.100748
46.312,73.7593,-0.100748
46.343,73.7593,-0.100748
46.374,73.7593,-0.100748
46.405,73.7593,-0.100748
46.436,73.7593,-0.100748
46.468,73.7593,-0.100748
46.498,73.7593,-0.100748
46.529,73.7593,-0.094471
46.560,73.7593,-0.094471
46.590,73.7593,-0.094471
46.621,73.7593,-0.094471
46.653,73.7593,-0.094471
46.684,73.7593,-0.094471
46.714,73.7593,-0.094471
46.745,73.7593,-0.090227
46.776,73.7593,-0.090227
46.807,73.7593,-0.090227
46.838,73.7593,-0.090227
46.870,73.7593,-0.090227
46.902,73.7593,-0.090227
46.933,73.7593,-0.090227
46.965,73.7593,-0.090227
46.996,73.7593,-0.086933
47.026,73.7593,-0.086933
47.052,73.7593,-0.086933
47.088,73.7593,-0.086933
47.119,73.7593,-0.086933
47.150,73.7593,-0.086933
47.181,73.7593,-0.086933
47.213,73.7593,-0.086933
47.244,73.7593,-0.086933
47.275,73.7593,-0.084242
47.306,73.7593,-0.084242
47.336,73.7593,-0.084242
47.367,73.7593,-0.084242
47.397,73.7593,-0.084242
47.429,73.7593,-0.084242
47.459,73.7593,-0.084242
47.491,73.7593,-0.084242
47.522,73.7593,-0.082012
47.553,73.7593,-0.082012
47.583,73.7593,-0.082012
47.614,73.7593,-0.082012
47.645,73.7593,-0.082012
47.676,73.7593,-0.082012
47.707,73.7593,-0.082012
47.738,73.7593,-0.080111
47.769,73.7593,-0.080111
47.800,73.7593,-0.080111
47.831,73.7593,-0.080111
47.862,73.7593,-0.080111
47.893,73.7593,-0.080111
47.925,73.7593,-0.080111
47.956,73.7593,-0.080111
47.987,73.7593,-0.078454
48.018,73.7593,-0.078454
48.049,73.7593,-0.078454
48.080,73.7593,-0.078454
48.111,73.7593,-0.078454
48.142,73.7593,-0.078454
48.172,73.7593,-0.078454
48.203,73.7593,-0.078454
48.234,73.7593,-0.076968
48.266,73.7593,-0.076968
48.297,73.7593,-0.076968
48.328,73.7593,-0.076968
48.358,73.7593,-0.076968
48.390,73.7593,-0.076968
48.420,73.7593,-0.076968
48.451,73.7593,-0.076968
48.483,73.7593,-0.075744
48.514,73.7593,-0.075744
48.546,73.7593,-0.075744
48.577,73.7593,-0.075744
48.608,73.7593,-0.075744
48.639,73.7593,-0.075744
48.669,73.7593,-0.075744
48.700,73.7593,-0.075744
48.731,73.7593,-0.074568
48.762,73.7593,-0.074568
48.793,73.7593,-0.074568
48.827,73.7593,-0.074568
48.853,73.7593,-0.074568
48.885,73.7593,-0.074568
48.915,73.7593,-0.074568
48.946,73.7593,-0.074568
48.977,73.7593,-0.073457
49.009,73.7593,-0.073457
49.040,73.7593,-0.073457
49.070,73.7593,-0.073457
49.102,73.7593,-0.073457
49.133,73.7593,-0.073457
49.164,73.7593,-0.073457
49.195,73.7593,-0.073457
49.226,73.7593,-0.073457
49.257,73.7593,-0.072658
49.288,73.7593,-0.072658
49.319,73.7593,-0.072658
49.350,73.7593,-0.072658
49.382,73.7593,-0.072658
49.413,73.7593,-0.072658
49.444,73.7593,-0.072658
49.475,73.7593,-0.071651
49.506,73.7593,-0.071651
49.538,73.7593,-0.071651
49.569,73.7593,-0.071651
49.600,73.7593,-0.071651
49.631,73.7593,-0.071651
49.663,73.7593,-0.071651
49.692,73.7593,-0.071651
49.723,73.7593,-0.070700
49.754,73.7593,-0.070700
49.784,73.7593,-0.070700
49.815,73.7593,-0.070700
49.846,73.7593,-0.070700
49.877,73.7593,-0.070700
49.908,73.7588,-0.070700
49.940,73.7575,-0.070700
49.970,73.7555,-0.070333
50.001,73.7529,-0.070333
50.032,73.7493,-0.070333
50.062,73.7452,-0.070333
50.093,73.7405,-0.070333
50.125,73.7347,-0.070333
50.156,73.7283,-0.070333
50.189,73.7205,-0.070333
50.217,73.7136,-0.070333
50.248,73.7049,-0.056933
50.280,73.6957,-0.056933
50.311,73.6855,-0.056933
50.342,73.6749,-0.056933
50.373,73.6633,-0.056933
50.404,73.6513,-0.056933
50.438,73.6369,-0.056933
50.465,73.6248,-0.056933
50.496,73.6105,-0.037764
50.527,73.5958,-0.037764
50.562,73.5776,-0.037764
50.589,73.5631,-0.037764
50.623,73.5440,-0.037764
50.652,73.5272,-0.037764
50.684,73.5082,-0.037764
50.715,73.4890,-0.021531
50.745,73.4686,-0.021531
50.776,73.4482,-0.021531
50.806,73.4267,-0.021531
50.838,73.4045,-0.021531
50.868,73.3814,-0.021531
50.899,73.3583,-0.021531
50.930,73.3338,-0.021531
50.960,73.3091,-0.021531
50.994,73.2805,-0.000668
51.023,73.2556,-0.000668
51.054,73.2268,-0.000668
51.085,73.2002,-0.000668
51.117,73.1706,-0.000668
51.148,73.1408,-0.000668
51.177,73.1122,-0.000668
51.208,73.0809,-0.000668
51.239,73.0497,-0.000668
51.269,73.0171,0.017927
51.300,72.9847,0.017927
51.332,72.9493,0.017927
51.363,72.9150,0.017927
51.395,72.8788,0.017927
51.427,72.8408,0.017927
51.458,72.8046,0.017927
51.488,72.7677,0.030377
51.518,72.7307,0.030377
51.549,72.6919,0.030377
51.580,72.6523,0.030377
51.611,72.6101,0.030377
51.642,72.5697,0.030377
51.674,72.5273,0.030377
51.705,72.4835,0.030377
51.737,72.4400,0.037199
51.767,72.3951,0.037199
51.798,72.3514,0.037199
51.829,72.3053,0.037199
51.860,72.2599,0.037199
51.892,72.2118,0.037199
51.923,72.1659,0.037199
51.954,72.1179,0.037199
51.986,72.0706,0.042187
52.015,72.0257,0.042187
52.046,71.9805,0.042187
52.078,71.9325,0.042187
52.108,71.8877,0.042187
52.140,71.8396,0.042187
52.170,71.7939,0.042187
52.201,71.7487,0.042187
52.231,71.7030,0.045904
52.266,71.6509,0.045904
52.293,71.6099,0.045904
52.324,71.5639,0.045904
52.354,71.5184,0.045904
52.385,71.4731,0.045904
52.416,71.4262,0.045904
52.447,71.3788,0.045904
52.478,71.3326,0.045904
52.509,71.2857,0.047447
52.540,71.2398,0.047447
52.571,71.1937,0.047447
52.601,71.1474,0.047447
52.635,71.0964,0.047447
52.664,71.0538,0.047447
52.694,71.0090,0.047447
52.725,70.9612,0.047447
52.760,70.9103,0.041180
52.788,70.8671,0.041180
52.819,70.8210,0.041180
52.850,70.7752,0.041180
52.881,70.7280,0.041180
52.912,70.6818,0.041180
52.943,70.6356,0.041180
52.975,70.5869,0.022340
53.006,70.5408,0.022340
53.036,70.4919,0.022340
53.067,70.4493,0.022340
53.099,70.4024,0.022340
53.130,70.3553,0.022340
53.161,70.3088,0.022340
53.192,70.2620,0.022340
53.223,70.2155,0.009279
53.254,70.1692,0.009279
53.285,70.1236,0.009279
53.316,70.0787,0.009279
53.347,70.0344,0.009279
53.378,69.9898,0.009279
53.409,69.9475,0.009279
53.440,69.9052,0.009279
53.471,69.8640,0.008168
53.501,69.8247,0.008168
53.532,69.7843,0.008168
53.563,69.7464,0.008168
53.593,69.7075,0.008168
53.624,69.6709,0.008168
53.656,69.6323,0.008168
53.689,69.5931,0.008168
53.718,69.5605,0.008168
53.750,69.5248,0.007660
53.780,69.4910,0.007660
53.813,69.4556,0.007660
53.842,69.4261,0.007660
53.874,69.3928,0.007660
53.905,69.3622,0.007660
53.936,69.3307,0.007660
53.967,69.3011,0.007425
53.994,69.2764,0.007425
54.030,69.2430,0.007425
54.060,69.2170,0.007425
54.091,69.1901,0.007425
54.121,69.1643,0.007425
54.152,69.1392,0.007425
54.184,69.1139,0.007425
54.214,69.0905,0.007425
54.246,69.0668,0.007293
54.278,69.0438,0.007293
54.309,69.0219,0.007293
54.340,69.0009,0.007293
54.371,68.9810,0.007293
54.401,68.9612,0.007293
54.433,68.9426,0.007293
54.463,68.9248,0.007293
54.495,68.9074,0.007199
54.525,68.8911,0.007199
54.556,68.8746,0.007199
54.587,68.8599,0.007199
54.618,68.8454,0.007199
54.650,68.8313,0.007199
54.681,68.8186,0.007199
54.712,68.8062,0.007199
54.743,68.7947,0.007048
54.774,68.7839,0.007048
54.805,68.7740,0.007048
54.836,68.7643,0.007048
54.868,68.7557,0.007048
54.900,68.7476,0.007048
54.930,68.7407,0.007048
54.962,68.7340,0.007048
54.992,68.7286,0.006935
55.024,68.7236,0.006935
55.054,68.7195,0.006935
55.085,68.7161,0.006935
55.117,68.7132,0.006935
55.148,68.7112,0.006935
55.177,68.7100,0.006935
55.210,68.7094,0.006898
55.242,68.7094,0.006898
55.274,68.7094,0.006898
55.304,68.7094,0.006898
55.335,68.7094,0.006898
55.366,68.7094,0.006898
55.397,68.7100,0.006898
55.428,68.7115,0.006898
55.459,68.7134,0.006832
55.490,68.7163,0.006832
55.521,68.7198,0.006832
55.551,68.7240,0.006832
55.582,68.7290,0.006832
55.614,68.7348,0.006832
55.645,68.7412,0.006832
55.676,68.7484,0.006832
55.708,68.7565,0.006832
55.739,68.7652,0.006766
55.769,68.7745,0.006766
55.799,68.7841,0.006766
55.830,68.7949,0.006766
55.861,68.8063,0.006766
55.892,68.8185,0.006766
55.926,68.8329,0.006766
55.955,68.8455,0.006766
55.985,68.8600,0.006550
56.016,68.8753,0.006550
56.047,68.8912,0.006550
56.078,68.9077,0.006550
56.109,68.9252,0.006550
56.140,68.9434,0.006550
56.172,68.9626,0.006550
56.202,68.9812,0.006550
56.234,69.0025,0.006390
56.266,69.0236,0.006390
56.297,69.0458,0.006390
56.329,69.0682,0.006390
56.360,69.0921,0.006390
56.391,69.1157,0.006390
56.424,69.1422,0.006390
56.453,69.1658,0.006390
56.484,69.1918,0.006390
56.513,69.2177,0.006296
56.543,69.2443,0.006296
56.574,69.2725,0.006296
56.605,69.3008,0.006296
56.636,69.3308,0.006296
56.670,69.3652,0.006296
56.698,69.3926,0.006296
56.729,69.4247,0.006296
56.760,69.4571,0.006032
56.791,69.4900,0.006032
56.821,69.5232,0.006032
56.853,69.5592,0.006032
56.883,69.5936,0.006032
56.914,69.6299,0.006032
56.945,69.6668,0.006032
56.976,69.7044,0.006032
57.007,69.7423,0.005778
57.039,69.7833,0.005778
57.070,69.8235,0.005778
57.101,69.8633,0.005778
57.131,69.9041,0.005778
57.162,69.9460,0.005778
57.196,69.9924,0.005778
57.224,70.0319,0.005778
57.255,70.0773,0.005486
57.287,70.1225,0.005486
57.318,70.1699,0.005486
57.350,70.2165,0.005486
57.381,70.2623,0.005486
57.412,70.3096,0.005486
57.443,70.3560,0.005486
57.473,70.4007,0.004969
57.504,70.4472,0.004969
57.536,70.4948,0.004969
57.567,70.5428,0.004969
57.598,70.5883,0.004969
57.629,70.6351,0.004969
57.660,70.6807,0.004969
57.691,70.7276,0.004969
57.721,70.7742,0.004366
57.752,70.8185,0.004366
57.783,70.8653,0.004366
57.814,70.9125,0.004366
57.844,70.9569,0.004366
57.875,71.0054,0.004366
57.906,71.0502,0.004366
57.937,71.0982,0.004366
57.969,71.1446,0.003736
58.000,71.1924,0.003736
58.032,71.2391,0.003736
58.063,71.2868,0.003736
58.094,71.3326,0.003736
58.125,71.3798,0.003736
58.156,71.4263,0.003736
58.187,71.4730,0.003736
58.218,71.5177,0.003736
58.248,71.5633,0.002917
58.279,71.6101,0.002917
58.310,71.6559,0.002917
58.341,71.7039,0.002917
58.372,71.7488,0.002917
58.403,71.7961,0.002917
58.434,71.8429,0.002917
58.464,71.8886,0.002917
58.495,71.9343,0.001656
58.526,71.9810,0.001656
58.557,72.0260,0.001656
58.588,72.0740,0.001656
58.619,72.1200,0.001656
58.651,72.1673,0.001656
58.681,72.2136,0.001656
58.713,72.2598,0.001656
58.744,72.3057,-0.000668
58.775,72.3514,-0.000668
58.806,72.3960,-0.000668
58.838,72.4396,-0.000668
58.868,72.4815,-0.000668
58.900,72.5241,-0.000668
58.930,72.5646,-0.000668
58.961,72.6044,-0.000668
58.992,72.6451,-0.005355
59.024,72.6837,-0.005355
59.054,72.7211,-0.005355
59.086,72.7601,-0.005355
59.116,72.7957,-0.005355
59.146,72.8313,-0.005355
59.177,72.8667,-0.005355
59.209,72.9022,-0.005355
59.239,72.9345,-0.014567
59.270,72.9683,-0.014567
59.301,72.9999,-0.014567
59.331,73.0311,-0.014567
59.362,73.0627,-0.014567
59.393,73.0923,-0.014567
59.423,73.1216,-0.014567
59.453,73.1491,-0.014567
59.485,73.1788,-0.014567
59.515,73.2056,-0.030480
59.546,73.2324,-0.030480
59.577,73.2583,-0.030480
59.608,73.2832,-0.030480
59.639,73.3070,-0.030480
59.670,73.3310,-0.030480
59.701,73.3542,-0.030480
59.731,73.3761,-0.052039
59.763,73.3982,-0.052039
59.794,73.4189,-0.052039
59.825,73.4395,-0.052039
59.855,73.4581,-0.052039
59.887,73.4777,-0.052039
59.918,73.4955,-0.052039
59.950,73.5134,-0.052039
59.980,73.5297,-0.075819
60.016,73.5478,-0.075819
60.042,73.5604,-0.075819
60.074,73.5750,-0.075819
60.104,73.5886,-0.075819
60.135,73.6012,-0.075819
60.165,73.6134,-0.075819
60.197,73.6250,-0.075819
60.227,73.6354,-0.097972
60.259,73.6456,-0.097972
60.289,73.6545,-0.097972
60.319,73.6630,-0.097972
60.351,73.6709,-0.097972
60.387,73.6792,-0.097972
60.428,73.6874,-0.097972
60.460,73.6929,-0.120472
60.491,73.6973,-0.120472
60.523,73.7013,-0.120472
60.556,73.7045,-0.120472
60.584,73.7066,-0.120472
60.616,73.7082,-0.120472
60.645,73.7091,-0.120472
60.676,73.7094,-0.120472
60.707,73.7094,-0.120472
60.739,73.7094,-0.120472
60.768,73.7094,-0.131792
60.801,73.7094,-0.131792
60.831,73.7094,-0.131792
60.862,73.7094,-0.131792
60.892,73.7094,-0.131792
60.924,73.7094,-0.131792
60.955,73.7094,-0.131792
60.986,73.7094,-0.131792
61.018,73.7094,-0.118731
61.049,73.7094,-0.118731
61.080,73.7094,-0.118731
61.111,73.7094,-0.118731
61.142,73.7094,-0.118731
61.173,73.7094,-0.118731
61.204,73.7094,-0.118731
61.236,73.7094,-0.102489
61.270,73.7094,-0.102489
61.298,73.7094,-0.102489
61.328,73.7094,-0.102489
61.359,73.7094,-0.102489
61.389,73.7094,-0.102489
61.421,73.7094,-0.102489
61.454,73.7094,-0.102489
61.483,73.7094,-0.095534
61.514,73.7094,-0.095534
61.545,73.7094,-0.095534
61.577,73.7094,-0.095534
61.607,73.7094,-0.095534
61.637,73.7094,-0.095534
61.668,73.7094,-0.095534
61.700,73.7094,-0.095534
61.731,73.7094,-0.090989
61.762,73.7094,-0.090989
61.793,73.7094,-0.090989
61.823,73.7094,-0.090989
61.854,73.7094,-0.090989
61.885,73.7094,-0.090989
61.917,73.7094,-0.090989
61.948,73.7094,-0.090989
61.978,73.7094,-0.087592
62.009,73.7094,-0.087592
62.040,73.7094,-0.087592
62.071,73.7094,-0.087592
62.101,73.7094,-0.087592
62.137,73.7094,-0.087592
62.164,73.7094,-0.087592
62.195,73.7094,-0.087592
62.226,73.7094,-0.087592
62.256,73.7094,-0.084806
62.288,73.7094,-0.084806
62.319,73.7094,-0.084806
62.350,73.7094,-0.084806
62.381,73.7094,-0.084806
62.412,73.7094,-0.084806
62.443,73.7094,-0.084806
62.475,73.7094,-0.082444
62.505,73.7094,-0.082444
62.537,73.7094,-0.082444
62.568,73.7094,-0.082444
62.599,73.7094,-0.082444
62.630,73.7094,-0.082444
62.661,73.7094,-0.082444
62.693,73.7094,-0.082444
62.725,73.7094,-0.080506
62.756,73.7094,-0.080506
62.786,73.7094,-0.080506
62.817,73.7094,-0.080506
62.848,73.7094,-0.080506
62.879,73.7094,-0.080506
62.910,73.7094,-0.080506
62.941,73.7094,-0.080506
62.972,73.7094,-0.080506
63.003,73.7094,-0.078803
63.035,73.7094,-0.078803
63.066,73.7094,-0.078803
63.096,73.7094,-0.078803
63.127,73.7094,-0.078803
63.159,73.7094,-0.078803
63.190,73.7094,-0.078803
63.222,73.7094,-0.077382
63.252,73.7094,-0.077382
63.283,73.7094,-0.077382
63.314,73.7094,-0.077382
63.344,73.7094,-0.077382
63.376,73.7094,-0.077382
63.406,73.7094,-0.077382
63.437,73.7094,-0.077382
63.468,73.7094,-0.076111
63.500,73.7094,-0.076111
63.534,73.7094,-0.076111
63.561,73.7094,-0.076111
63.591,73.7094,-0.076111
63.622,73.7094,-0.076111
63.654,73.7094,-0.076111
63.685,73.7094,-0.076111
63.716,73.7094,-0.076111
63.747,73.7094,-0.076111
63.778,73.7094,-0.074860
63.809,73.7094,-0.074860
63.840,73.7094,-0.074860
63.871,73.7094,-0.074860
63.903,73.7094,-0.074860
63.934,73.7094,-0.074860
63.964,73.7094,-0.074860
63.996,73.7094,-0.073909
64.027,73.7094,-0.073909
64.057,73.7094,-0.073909
64.087,73.7094,-0.073909
64.118,73.7094,-0.073909
64.148,73.7094,-0.073909
64.180,73.7094,-0.073909
64.212,73.7094,-0.073909
64.243,73.7094,-0.072902
64.275,73.7094,-0.072902
64.306,73.7094,-0.072902
64.337,73.7094,-0.072902
64.368,73.7094,-0.072902
64.399,73.7094,-0.072902
64.430,73.7094,-0.072902
64.460,73.7094,-0.072902
64.491,73.7094,-0.071933
64.522,73.7094,-0.071933
64.554,73.7094,-0.071933
64.585,73.7094,-0.071933
64.616,73.7094,-0.071933
64.646,73.7094,-0.071933
64.677,73.7094,-0.071933
64.709,73.7094,-0.071933
64.740,73.7094,-0.071124
64.771,73.7094,-0.071124
64.802,73.7094,-0.071124
64.833,73.7094,-0.071124
64.864,73.7094,-0.071124
64.894,73.7090,-0.071124
64.925,73.7080,-0.071124
64.956,73.7063,-0.071124
64.986,73.7038,-0.070446
65.017,73.7006,-0.070446
65.048,73.6967,-0.070446
65.081,73.6916,-0.070446
65.110,73.6867,-0.070446
65.141,73.6805,-0.070446
65.173,73.6735,-0.070446
65.205,73.6656,-0.070446
65.235,73.6576,-0.056829
65.266,73.6486,-0.056829
65.298,73.6385,-0.056829
65.328,73.6284,-0.056829
65.359,73.6168,-0.056829
65.390,73.6051,-0.056829
65.421,73.5923,-0.056829
65.453,73.5788,-0.056829
65.484,73.5646,-0.056829
65.515,73.5499,-0.037491
65.545,73.5342,-0.037491
65.576,73.5180,-0.037491
65.607,73.5010,-0.037491
65.638,73.4833,-0.037491
65.669,73.4649,-0.037491
65.701,73.4447,-0.037491
65.731,73.4255,-0.021220
65.762,73.4043,-0.021220
65.793,73.3837,-0.021220
65.823,73.3615,-0.021220
65.855,73.3387,-0.021220
65.886,73.3147,-0.021220
65.917,73.2907,-0.021220
65.948,73.2651,-0.021220
65.979,73.2393,-0.000480
66.014,73.2093,-0.000480
66.041,73.1855,-0.000480
66.073,73.1575,-0.000480
66.103,73.1284,-0.000480
66.136,73.0980,-0.000480
66.167,73.0673,-0.000480
66.199,73.0354,-0.000480
66.230,73.0035,0.017833
66.262,72.9703,0.017833
66.293,72.9369,0.017833
66.325,72.9027,0.017833
66.355,72.8684,0.017833
66.387,72.8318,0.017833
66.419,72.7956,0.017833
66.450,72.7583,0.017833
66.482,72.7188,0.030010
66.513,72.6817,0.030010
66.544,72.6431,0.030010
66.574,72.6039,0.030010
66.605,72.5638,0.030010
66.636,72.5218,0.030010
66.667,72.4803,0.030010
66.698,72.4370,0.030010
66.728,72.3963,0.036578
66.759,72.3517,0.036578
66.790,72.3078,0.036578
66.822,72.2600,0.036578
66.852,72.2151,0.036578
66.883,72.1675,0.036578
66.913,72.1250,0.036578
66.944,72.0775,0.036578
66.975,72.0310,0.041425
67.006,71.9854,0.041425
67.037,71.9364,0.041425
67.068,71.8914,0.041425
67.099,71.8434,0.041425
67.129,71.7989,0.041425
67.160,71.7535,0.041425
67.192,71.7059,0.041425
67.221,71.6612,0.041425
67.253,71.6145,0.045198
67.287,71.5624,0.045198
67.314,71.5215,0.045198
67.345,71.4743,0.045198
67.377,71.4273,0.045198
67.407,71.3826,0.045198
67.438,71.3359,0.045198
67.469,71.2893,0.046864
67.503,71.2386,0.046864
67.532,71.1949,0.046864
67.562,71.1499,0.046864
67.593,71.1031,0.046864
67.625,71.0558,0.046864
67.655,71.0092,0.046864
67.688,70.9616,0.046864
67.717,70.9165,0.046864
67.748,70.8716,0.038724
67.778,70.8247,0.038724
67.810,70.7788,0.038724
67.840,70.7342,0.038724
67.872,70.6857,0.038724
67.901,70.6403,0.038724
67.935,70.5899,0.038724
67.963,70.5481,0.038724
67.994,70.5025,0.019997
68.025,70.4557,0.019997
68.056,70.4085,0.019997
68.087,70.3621,0.019997
68.120,70.3131,0.019997
68.149,70.2690,0.019997
68.183,70.2177,0.019997
68.211,70.1758,0.019997
68.241,70.1313,0.009194
68.273,70.0838,0.009194
68.306,70.0350,0.009194
68.336,69.9944,0.009194
68.369,69.9474,0.009194
68.396,69.9097,0.009194
68.430,69.8628,0.009194
68.457,69.8276,0.009194
68.491,69.7818,0.008253
68.519,69.7453,0.008253
68.549,69.7065,0.008253
68.580,69.6688,0.008253
68.611,69.6299,0.008253
68.643,69.5931,0.008253
68.674,69.5557,0.008253
68.706,69.5200,0.008253
68.735,69.4865,0.007782
68.766,69.4528,0.007782
68.798,69.4170,0.007782
68.829,69.3845,0.007782
68.861,69.3503,0.007782
68.890,69.3217,0.007782
68.921,69.2912,0.007782
68.952,69.2611,0.007782
68.983,69.2327,0.007462
69.014,69.2042,0.007462
69.046,69.1752,0.007462
69.076,69.1489,0.007462
69.107,69.1230,0.007462
69.138,69.0974,0.007462
69.169,69.0724,0.007462
69.200,69.0483,0.007462
69.232,69.0236,0.007218
69.262,69.0016,0.007218
69.295,68.9787,0.007218
69.323,68.9594,0.007218
69.354,68.9388,0.007218
69.386,68.9183,0.007218
69.416,68.8995,0.007218
69.447,68.8811,0.007218
69.478,68.8643,0.007218
69.509,68.8468,0.007171
69.541,68.8307,0.007171
69.572,68.8149,0.007171
69.604,68.7996,0.007171
69.635,68.7859,0.007171
69.666,68.7729,0.007171
69.698,68.7600,0.007171
69.728,68.7487,0.007133
69.761,68.7364,0.007133
69.789,68.7275,0.007133
69.821,68.7178,0.007133
69.851,68.7091,0.007133
69.882,68.7009,0.007133
69.914,68.6932,0.007133
69.944,68.6868,0.007133
69.975,68.6807,0.007133
70.006,68.6756,0.007011
70.037,68.6710,0.007011
70.068,68.6674,0.007011
70.099,68.6643,0.007011
70.129,68.6621,0.007011
70.161,68.6604,0.007011
70.191,68.6596,0.007011
70.223,68.6594,0.007011
70.253,68.6594,0.006954
70.284,68.6594,0.006954
70.316,68.6594,0.006954
70.347,68.6594,0.006954
70.378,68.6596,0.006954
70.409,68.6606,0.006954
70.440,68.6624,0.006954
70.472,68.6647,0.006954
70.503,68.6681,0.006954
70.534,68.6719,0.006954
70.566,68.6767,0.006954
70.597,68.6819,0.006954
70.629,68.6884,0.006954
70.660,68.6952,0.006954
70.691,68.7029,0.006954
70.722,68.7115,0.006954
70.754,68.7206,0.006813
70.786,68.7306,0.006813
70.816,68.7409,0.006813
70.846,68.7514,0.006813
70.877,68.7633,0.006813
70.908,68.7765,0.006813
70.939,68.7897,0.006813
70.970,68.8040,0.006813
71.001,68.8186,0.006625
71.033,68.8346,0.006625
71.064,68.8510,0.006625
71.095,68.8681,0.006625
71.126,68.8858,0.006625
71.157,68.9044,0.006625
71.189,68.9242,0.006625
71.220,68.9448,0.006625
71.251,68.9648,0.006456
71.283,68.9873,0.006456
71.313,69.0085,0.006456
71.345,69.0329,0.006456
71.376,69.0558,0.006456
71.406,69.0794,0.006456
71.437,69.1056,0.006456
71.469,69.1310,0.006456
71.500,69.1577,0.006286
71.531,69.1849,0.006286
71.562,69.2129,0.006286
71.593,69.2424,0.006286
71.624,69.2716,0.006286
71.655,69.3024,0.006286
71.689,69.3358,0.006286
71.714,69.3621,0.006286
71.748,69.3973,0.006079
71.780,69.4313,0.006079
71.811,69.4653,0.006079
71.842,69.4999,0.006079
71.875,69.5368,0.006079
71.903,69.5706,0.006079
71.934,69.6065,0.006079
71.965,69.6461,0.005834
71.996,69.6827,0.005834
72.027,69.7218,0.005834
72.058,69.7608,0.005834
72.089,69.8011,0.005834
72.122,69.8462,0.005834
72.150,69.8829,0.005834
72.181,69.9263,0.005834
72.211,69.9672,0.005834
72.241,70.0114,0.005420
72.272,70.0548,0.005420
72.303,70.1005,0.005420
72.334,70.1465,0.005420
72.365,70.1932,0.005420
72.396,70.2393,0.005420
72.428,70.2873,0.005420
72.459,70.3334,0.005420
72.485,70.3729,0.004931
72.520,70.4245,0.004931
72.550,70.4707,0.004931
72.580,70.5153,0.004931
72.612,70.5624,0.004931
72.643,70.6098,0.004931
72.674,70.6563,0.004931
72.705,70.7037,0.004404
72.736,70.7485,0.004404
72.766,70.7951,0.004404
72.798,70.8427,0.004404
72.829,70.8888,0.004404
72.860,70.9353,0.004404
72.891,70.9813,0.004404
72.921,71.0272,0.004404
72.953,71.0745,0.004404
72.984,71.1207,0.003764
73.011,71.1620,0.003764
73.044,71.2110,0.003764
73.075,71.2578,0.003764
73.106,71.3045,0.003764
73.137,71.3494,0.003764
73.169,71.3979,0.003764
73.200,71.4459,0.003764
73.231,71.4915,0.003764
73.263,71.5399,0.002945
73.294,71.5856,0.002945
73.325,71.6320,0.002945
73.356,71.6784,0.002945
73.386,71.7245,0.002945
73.417,71.7712,0.002945
73.448,71.8164,0.002945
73.478,71.8623,0.002945
73.509,71.9085,0.002945
73.536,71.9485,0.001675
73.571,72.0011,0.001675
73.605,72.0520,0.001675
73.633,72.0937,0.001675
73.665,72.1429,0.001675
73.695,72.1878,0.001675
73.731,72.2422,-0.000678
73.757,72.2786,-0.000678
73.789,72.3238,-0.000678
73.819,72.3669,-0.000678
73.851,72.4105,-0.000678
73.881,72.4533,-0.000678
73.913,72.4957,-0.000678
73.943,72.5354,-0.000678
73.975,72.5759,-0.000678
74.006,72.6158,-0.005336
74.037,72.6533,-0.005336
74.068,72.6919,-0.005336
74.098,72.7277,-0.005336
74.130,72.7649,-0.005336
74.161,72.8010,-0.005336
74.192,72.8352,-0.005336
74.223,72.8695,-0.005336
74.254,72.9033,-0.014445
74.285,72.9362,-0.014445
74.317,72.9691,-0.014445
74.346,72.9998,-0.014445
74.378,73.0301,-0.014445
74.409,73.0597,-0.014445
74.439,73.0881,-0.014445
74.470,73.1170,-0.014445
74.501,73.1451,-0.030283
74.532,73.1715,-0.030283
74.563,73.1985,-0.030283
74.594,73.2234,-0.030283
74.625,73.2484,-0.030283
74.656,73.2721,-0.030283
74.686,73.2948,-0.030283
74.717,73.3176,-0.030283
74.748,73.3392,-0.052096
74.779,73.3606,-0.052096
74.810,73.3813,-0.052096
74.841,73.4013,-0.052096
74.873,73.4206,-0.052096
74.906,73.4401,-0.052096
74.936,73.4570,-0.052096
74.967,73.4737,-0.052096
74.997,73.4896,-0.075885
75.028,73.5050,-0.075885
75.061,73.5205,-0.075885
75.090,73.5336,-0.075885
75.121,73.5468,-0.075885
75.152,73.5588,-0.075885
75.183,73.5707,-0.075885
75.214,73.5814,-0.075885
75.246,73.5922,-0.098000
75.275,73.6011,-0.098000
75.306,73.6103,-0.098000
75.339,73.6187,-0.098000
75.368,73.6256,-0.098000
75.401,73.6327,-0.098000
75.429,73.6380,-0.098000
75.464,73.6439,-0.098000
75.491,73.6477,-0.098000
75.523,73.6514,-0.120971
75.554,73.6545,-0.120971
75.585,73.6569,-0.120971
75.616,73.6584,-0.120971
75.647,73.6593,-0.120971
75.678,73.6594,-0.120971
75.709,73.6594,-0.120971
75.741,73.6594,-0.132254
75.772,73.6594,-0.132254
75.803,73.6594,-0.132254
75.834,73.6594,-0.132254
75.864,73.6594,-0.132254
75.896,73.6594,-0.132254
75.927,73.6594,-0.132254
75.958,73.6594,-0.132254
75.989,73.6594,-0.118816
76.020,73.6594,-0.118816
76.050,73.6594,-0.118816
76.082,73.6594,-0.118816
76.113,73.6594,-0.118816
76.143,73.6594,-0.118816
76.175,73.6594,-0.118816
76.205,73.6594,-0.118816
76.236,73.6594,-0.102423
76.266,73.6594,-0.102423
76.297,73.6594,-0.102423
76.328,73.6594,-0.102423
76.361,73.6594,-0.102423
76.389,73.6594,-0.102423
76.421,73.6594,-0.102423
76.450,73.6594,-0.102423
76.485,73.6594,-0.095534
76.513,73.6594,-0.095534
76.547,73.6594,-0.095534
76.574,73.6594,-0.095534
76.605,73.6594,-0.095534
76.636,73.6594,-0.095534
76.667,73.6594,-0.095534
76.699,73.6594,-0.095534
76.733,73.6594,-0.091055
76.760,73.6594,-0.091055
76.792,73.6594,-0.091055
76.822,73.6594,-0.091055
76.856,73.6594,-0.091055
76.885,73.6594,-0.091055
76.918,73.6594,-0.091055
76.946,73.6594,-0.091055
76.978,73.6594,-0.087639
77.008,73.6594,-0.087639
77.039,73.6594,-0.087639
77.070,73.6594,-0.087639
77.101,73.6594,-0.087639
77.131,73.6594,-0.087639
77.163,73.6594,-0.087639
77.194,73.6594,-0.087639
77.224,73.6594,-0.087639
77.255,73.6594,-0.084844
77.286,73.6594,-0.084844
77.317,73.6594,-0.084844
77.349,73.6594,-0.084844
77.380,73.6594,-0.084844
77.410,73.6594,-0.084844
77.440,73.6594,-0.084844
77.471,73.6594,-0.084844
77.502,73.6594,-0.082576
77.533,73.6594,-0.082576
77.563,73.6594,-0.082576
77.595,73.6594,-0.082576
77.626,73.6594,-0.082576
77.661,73.6594,-0.082576
77.689,73.6594,-0.082576
77.721,73.6594,-0.082576
77.752,73.6594,-0.080638
77.782,73.6594,-0.080638
77.813,73.6594,-0.080638
77.844,73.6594,-0.080638
77.875,73.6594,-0.080638
77.906,73.6594,-0.080638
77.937,73.6594,-0.080638
77.967,73.6594,-0.080638
77.998,73.6594,-0.078887
78.031,73.6594,-0.078887
78.061,73.6594,-0.078887
78.092,73.6594,-0.078887
78.123,73.6594,-0.078887
78.155,73.6594,-0.078887
78.184,73.6594,-0.078887
78.216,73.6594,-0.078887
78.246,73.6594,-0.077457
78.278,73.6594,-0.077457
78.309,73.6594,-0.077457
78.340,73.6594,-0.077457
78.371,73.6594,-0.077457
78.403,73.6594,-0.077457
78.434,73.6594,-0.077457
78.464,73.6594,-0.077457
78.495,73.6594,-0.076196
78.528,73.6594,-0.076196
78.556,73.6594,-0.076196
78.587,73.6594,-0.076196
78.618,73.6594,-0.076196
78.649,73.6594,-0.076196
78.680,73.6594,-0.076196
78.710,73.6594,-0.076196
78.741,73.6594,-0.074973
78.772,73.6594,-0.074973
78.802,73.6594,-0.074973
78.833,73.6594,-0.074973
78.864,73.6594,-0.074973
78.895,73.6594,-0.074973
78.926,73.6594,-0.074973
78.958,73.6594,-0.074973
78.988,73.6594,-0.073928
79.019,73.6594,-0.073928
79.050,73.6594,-0.073928
79.080,73.6594,-0.073928
79.112,73.6594,-0.073928
79.142,73.6594,-0.073928
79.174,73.6594,-0.073928
79.205,73.6594,-0.073928
79.237,73.6594,-0.072949
79.268,73.6594,-0.072949
79.299,73.6594,-0.072949
79.331,73.6594,-0.072949
79.362,73.6594,-0.072949
79.393,73.6594,-0.072949
79.424,73.6594,-0.072949
79.454,73.6594,-0.072949
79.485,73.6594,-0.072949
79.515,73.6594,-0.071914
79.547,73.6594,-0.071914
79.577,73.6594,-0.071914
79.608,73.6594,-0.071914
79.639,73.6594,-0.071914
79.670,73.6594,-0.071914
79.701,73.6594,-0.071914
79.732,73.6594,-0.071124
79.763,73.6594,-0.071124
79.795,73.6594,-0.071124
79.826,73.6594,-0.071124
79.857,73.6594,-0.071124
79.892,73.6590,-0.071124
79.919,73.6581,-0.071124
79.951,73.6564,-0.071124
79.982,73.6540,-0.070437
80.014,73.6507,-0.070437
80.045,73.6469,-0.070437
80.076,73.6421,-0.070437
80.106,73.6369,-0.070437
80.138,73.6307,-0.070437
80.168,73.6242,-0.070437
80.199,73.6165,-0.070437
80.230,73.6084,-0.056462
80.262,73.5989,-0.056462
80.292,73.5897,-0.056462
80.323,73.5791,-0.056462
80.355,73.5676,-0.056462
80.385,73.5562,-0.056462
80.416,73.5434,-0.056462
80.447,73.5301,-0.056462
80.478,73.5160,-0.037049
80.511,73.5000,-0.037049
80.540,73.4859,-0.037049
80.570,73.4695,-0.037049
80.601,73.4528,-0.037049
80.632,73.4351,-0.037049
80.663,73.4169,-0.037049
80.695,73.3972,-0.037049
80.725,73.3780,-0.020835
80.757,73.3559,-0.020835
80.787,73.3362,-0.020835
80.818,73.3136,-0.020835
80.849,73.2909,-0.020835
80.881,73.2668,-0.020835
80.911,73.2430,-0.020835
80.944,73.2159,-0.020835
80.974,73.1923,-0.000094
81.004,73.1664,-0.000094
81.035,73.1392,-0.000094
81.066,73.1111,-0.000094
81.097,73.0818,-0.000094
81.129,73.0528,-0.000094
81.160,73.0226,-0.000094
81.190,72.9920,-0.000094
81.221,72.9608,0.018341
81.253,72.9271,0.018341
81.284,72.8949,0.018341
81.315,72.8612,0.018341
81.345,72.8273,0.018341
81.376,72.7921,0.018341
81.407,72.7567,0.018341
81.438,72.7199,0.018341
81.469,72.6829,0.030866
81.500,72.6435,0.030866
81.532,72.6046,0.030866
81.564,72.5629,0.030866
81.595,72.5234,0.030866
81.625,72.4833,0.030866
81.657,72.4400,0.030866
81.687,72.3999,0.030866
81.718,72.3556,0.030866
81.748,72.3134,0.037679
81.782,72.2635,0.037679
81.810,72.2232,0.037679
81.840,72.1779,0.037679
81.871,72.1328,0.037679
81.903,72.0838,0.037679
81.934,72.0388,0.037679
81.965,71.9908,0.037679
81.997,71.9435,0.042544
82.028,71.8976,0.042544
82.060,71.8496,0.042544
82.092,71.8015,0.042544
82.123,71.7544,0.042544
82.158,71.7025,0.042544
82.184,71.6638,0.042544
82.215,71.6160,0.042544
82.245,71.5722,0.042544
82.277,71.5241,0.046177
82.307,71.4793,0.046177
82.339,71.4304,0.046177
82.370,71.3845,0.046177
82.403,71.3356,0.046177
82.433,71.2900,0.046177
82.464,71.2424,0.046177
82.495,71.1973,0.047654
82.526,71.1500,0.047654
82.556,71.1054,0.047654
82.587,71.0597,0.047654
82.618,71.0128,0.047654
82.654,70.9579,0.047654
82.679,70.9193,0.047654
82.711,70.8726,0.047654
82.741,70.8274,0.041086
82.773,70.7802,0.041086
82.804,70.7337,0.041086
82.835,70.6873,0.041086
82.866,70.6408,0.041086
82.897,70.5928,0.041086
82.929,70.5466,0.041086
82.960,70.4994,0.041086
82.991,70.4535,0.022143
83.022,70.4064,0.022143
83.053,70.3602,0.022143
83.084,70.3122,0.022143
83.116,70.2657,0.022143
83.147,70.2188,0.022143
83.178,70.1732,0.022143
83.208,70.1272,0.022143
83.239,70.0802,0.009410
83.276,70.0260,0.009410
83.317,69.9676,0.009410
83.348,69.9233,0.009410
83.378,69.8811,0.009410
83.410,69.8373,0.009410
83.441,69.7957,0.009410
83.471,69.7544,0.009410
83.502,69.7151,0.008347
83.533,69.6746,0.008347
83.564,69.6362,0.008347
83.596,69.5962,0.008347
83.626,69.5593,0.008347
83.657,69.5227,0.008347
83.688,69.4871,0.008347
83.720,69.4508,0.007829
83.752,69.4154,0.007829
83.782,69.3811,0.007829
83.813,69.3491,0.007829
83.844,69.3171,0.007829
83.875,69.2842,0.007829
83.906,69.2544,0.007829
83.937,69.2237,0.007829
83.968,69.1938,0.007622
83.999,69.1654,0.007622
84.032,69.1349,0.007622
84.061,69.1098,0.007622
84.095,69.0801,0.007622
84.124,69.0567,0.007622
84.157,69.0286,0.007622
84.186,69.0073,0.007622
84.216,68.9834,0.007622
84.247,68.9605,0.007434
84.281,68.9367,0.007434
84.309,68.9170,0.007434
84.343,68.8944,0.007434
84.370,68.8768,0.007434
84.402,68.8558,0.007434
84.434,68.8380,0.007434
84.465,68.8196,0.007434
84.497,68.8025,0.007274
84.526,68.7870,0.007274
84.557,68.7709,0.007274
84.588,68.7561,0.007274
84.620,68.7411,0.007274
84.652,68.7277,0.007274
84.684,68.7146,0.007274
84.713,68.7030,0.007161
84.744,68.6916,0.007161
84.775,68.6815,0.007161
84.806,68.6714,0.007161
84.837,68.6624,0.007161
84.867,68.6540,0.007161
84.898,68.6462,0.007161
84.930,68.6392,0.007161
84.961,68.6331,0.007161
84.992,68.6274,0.007067
85.023,68.6227,0.007067
85.054,68.6186,0.007067
85.085,68.6153,0.007067
85.116,68.6127,0.007067
85.148,68.6109,0.007067
85.179,68.6098,0.007067
85.209,68.6094,0.007067
85.241,68.6094,0.007020
85.271,68.6094,0.007020
85.302,68.6094,0.007020
85.334,68.6094,0.007020
85.364,68.6094,0.007020
85.395,68.6094,0.007020
85.426,68.6098,0.007020
85.457,68.6108,0.007020
85.488,68.6126,0.006983
85.519,68.6151,0.006983
85.550,68.6183,0.006983
85.581,68.6223,0.006983
85.612,68.6269,0.006983
85.643,68.6323,0.006983
85.674,68.6385,0.006983
85.706,68.6456,0.006983
85.737,68.6532,0.006983
85.768,68.6616,0.006813
85.799,68.6707,0.006813
85.831,68.6807,0.006813
85.860,68.6909,0.006813
85.891,68.7023,0.006813
85.922,68.7139,0.006813
85.954,68.7268,0.006813
85.985,68.7405,0.006813
86.016,68.7546,0.006663
86.047,68.7700,0.006663
86.079,68.7855,0.006663
86.110,68.8019,0.006663
86.141,68.8189,0.006663
86.171,68.8364,0.006663
86.202,68.8547,0.006663
86.233,68.8744,0.006663
86.264,68.8940,0.006616
86.295,68.9146,0.006616
86.326,68.9363,0.006616
86.360,68.9609,0.006616
86.387,68.9812,0.006616
86.419,69.0047,0.006616
86.450,69.0290,0.006616
86.479,69.0534,0.006616
86.511,69.0792,0.006408
86.542,69.1062,0.006408
86.572,69.1323,0.006408
86.603,69.1601,0.006408
86.634,69.1893,0.006408
86.665,69.2182,0.006408
86.696,69.2492,0.006408
86.727,69.2791,0.006126
86.757,69.3098,0.006126
86.789,69.3434,0.006126
86.820,69.3761,0.006126
86.850,69.4090,0.006126
86.885,69.4482,0.006126
86.912,69.4790,0.006126
86.944,69.5153,0.006126
86.975,69.5522,0.005825
87.006,69.5898,0.005825
87.037,69.6284,0.005825
87.069,69.6686,0.005825
87.100,69.7072,0.005825
87.130,69.7476,0.005825
87.161,69.7874,0.005825
87.192,69.8298,0.005825
87.223,69.8715,0.005486
87.254,69.9150,0.005486
87.285,69.9591,0.005486
87.319,70.0084,0.005486
87.347,70.0494,0.005486
87.378,70.0964,0.005486
87.409,70.1422,0.005486
87.440,70.1888,0.005486
87.471,70.2347,0.004997
87.502,70.2827,0.004997
87.533,70.3275,0.004997
87.564,70.3747,0.004997
87.595,70.4208,0.004997
87.626,70.4673,0.004997
87.656,70.5127,0.004997
87.688,70.5609,0.004997
87.718,70.6054,0.004997
87.751,70.6544,0.004479
87.780,70.6987,0.004479
87.812,70.7467,0.004479
87.843,70.7923,0.004479
87.873,70.8397,0.004479
87.905,70.8857,0.004479
87.936,70.9328,0.004479
87.967,70.9786,0.003886
87.998,71.0257,0.003886
88.033,71.0781,0.003886
88.060,71.1189,0.003886
88.091,71.1646,0.003886
88.121,71.2108,0.003886
88.153,71.2578,0.003886
88.183,71.3032,0.003886
88.216,71.3530,0.003886
88.246,71.3969,0.003886
88.275,71.4425,0.003886
88.306,71.4887,0.003058
88.338,71.5345,0.003058
88.369,71.5810,0.003058
88.399,71.6266,0.003058
88.430,71.6734,0.003058
88.461,71.7200,0.003058
88.492,71.7670,0.001826
88.523,71.8128,0.001826
88.554,71.8594,0.001826
88.585,71.9059,0.001826
88.615,71.9519,0.001826
88.646,71.9968,0.001826
88.677,72.0436,0.001826
88.707,72.0895,0.001826
88.738,72.1350,-0.000847
88.769,72.1814,-0.000847
88.804,72.2336,-0.000847
88.845,72.2910,-0.000847
88.876,72.3344,-0.000847
88.908,72.3775,-0.000847
88.938,72.4191,-0.000847
88.969,72.4597,-0.005656
89.000,72.5009,-0.005656
89.031,72.5408,-0.005656
89.063,72.5812,-0.005656
89.094,72.6189,-0.005656
89.125,72.6567,-0.005656
89.156,72.6934,-0.005656
89.187,72.7290,-0.005656
89.218,72.7655,-0.013861
89.249,72.7992,-0.013861
89.279,72.8331,-0.013861
89.309,72.8655,-0.013861
89.342,72.9005,-0.013861
89.372,72.9301,-0.013861
89.403,72.9613,-0.013861
89.433,72.9910,-0.013861
89.465,73.0213,-0.013861
89.496,73.0504,-0.013861
89.527,73.0787,-0.028259
89.559,73.1064,-0.028259
89.590,73.1333,-0.028259
89.620,73.1586,-0.028259
89.654,73.1869,-0.028259
89.682,73.2083,-0.028259
89.715,73.2342,-0.028259
89.744,73.2549,-0.049028
89.778,73.2806,-0.049028
89.806,73.2990,-0.049028
89.839,73.3213,-0.049028
89.868,73.3399,-0.049028
89.902,73.3614,-0.049028
89.929,73.3780,-0.049028
89.961,73.3962,-0.049028
89.992,73.4133,-0.049028
90.025,73.4317,-0.072479
90.054,73.4457,-0.072479
90.085,73.4611,-0.072479
90.116,73.4755,-0.072479
90.150,73.4903,-0.072479
90.177,73.5015,-0.072479
90.209,73.5138,-0.072479
90.240,73.5251,-0.094810
90.270,73.5359,-0.094810
90.302,73.5460,-0.094810
90.333,73.5552,-0.094810
90.364,73.5639,-0.094810
90.395,73.5714,-0.094810
90.426,73.5786,-0.094810
90.457,73.5850,-0.094810
90.488,73.5907,-0.117827
90.520,73.5955,-0.117827
90.551,73.5997,-0.117827
90.582,73.6031,-0.117827
90.612,73.6057,-0.117827
90.642,73.6075,-0.117827
90.674,73.6089,-0.117827
90.704,73.6094,-0.117827
90.734,73.6094,-0.133317
90.765,73.6094,-0.133317
