Elapsed Time (s),Position (mm),Force (N)
-0.015,67.6594,-0.545360
0.016,67.6594,-0.545360
0.048,67.6594,-0.456648
0.078,67.6594,-0.456648
0.110,67.6594,-0.456648
0.141,67.6594,-0.456648
0.171,67.6594,-0.456648
0.201,67.6594,-0.456648
0.232,67.6594,-0.456648
0.263,67.6594,-0.456648
0.294,67.6594,-0.456648
0.324,67.6594,-0.291600
0.355,67.6594,-0.291600
0.386,67.6594,-0.291600
0.417,67.6594,-0.291600
0.448,67.6594,-0.291600
0.479,67.6594,-0.291600
0.509,67.6594,-0.291600
0.540,67.6594,-0.291600
0.571,67.6594,-0.291600
0.602,67.6594,-0.232201
0.633,67.6594,-0.232201
0.664,67.6594,-0.232201
0.694,67.6594,-0.232201
0.725,67.6594,-0.232201
0.756,67.6594,-0.232201
0.787,67.6594,-0.232201
0.818,67.6594,-0.232201
0.848,67.6594,-0.209183
0.879,67.6594,-0.209183
0.910,67.6594,-0.209183
0.941,67.6594,-0.209183
0.972,67.6594,-0.209183
1.005,67.6594,-0.209183
1.034,67.6594,-0.209183
1.065,67.6594,-0.209183
1.096,67.6594,-0.196357
1.126,67.6594,-0.196357
1.158,67.6594,-0.196357
1.190,67.6594,-0.196357
1.220,67.6594,-0.196357
1.251,67.6594,-0.196357
1.282,67.6594,-0.196357
1.313,67.6594,-0.196357
1.345,67.6594,-0.187681
1.376,67.6594,-0.187681
1.407,67.6594,-0.187681
1.438,67.6594,-0.187681
1.469,67.6594,-0.187681
1.499,67.6594,-0.187681
1.530,67.6594,-0.187681
1.561,67.6594,-0.187681
1.592,67.6594,-0.181282
1.623,67.6594,-0.181282
1.653,67.6594,-0.181282
1.685,67.6594,-0.181282
1.714,67.6594,-0.181282
1.745,67.6594,-0.181282
1.776,67.6594,-0.181282
1.807,67.6594,-0.181282
1.838,67.6594,-0.176219
1.869,67.6594,-0.176219
1.900,67.6594,-0.176219
1.931,67.6594,-0.176219
1.963,67.6594,-0.176219
1.994,67.6594,-0.176219
2.024,67.6594,-0.176219
2.055,67.6594,-0.176219
2.085,67.6594,-0.172078
2.117,67.6594,-0.172078
2.148,67.6594,-0.172078
2.178,67.6594,-0.172078
2.209,67.6594,-0.172078
2.239,67.6594,-0.172078
2.270,67.6594,-0.172078
2.301,67.6594,-0.172078
2.335,67.6594,-0.168625
2.365,67.6594,-0.168625
2.395,67.6594,-0.168625
2.426,67.6594,-0.168625
2.456,67.6594,-0.168625
2.487,67.6594,-0.168625
2.518,67.6594,-0.168625
2.549,67.6594,-0.168625
2.580,67.6594,-0.168625
2.611,67.6594,-0.168625
2.642,67.6594,-0.165736
2.672,67.6594,-0.165736
2.704,67.6594,-0.165736
2.734,67.6594,-0.165736
2.765,67.6594,-0.165736
2.796,67.6594,-0.163383
2.828,67.6594,-0.163383
2.859,67.6594,-0.163383
2.889,67.6594,-0.163383
2.920,67.6594,-0.163383
2.951,67.6594,-0.163383
2.982,67.6594,-0.163383
3.013,67.6594,-0.163383
3.045,67.6594,-0.163383
3.075,67.6594,-0.161068
3.106,67.6594,-0.161068
3.138,67.6594,-0.161068
3.170,67.6594,-0.161068
3.201,67.6594,-0.161068
3.231,67.6594,-0.161068
3.262,67.6594,-0.161068
3.293,67.6594,-0.161068
3.324,67.6594,-0.158781
3.356,67.6594,-0.158781
3.386,67.6594,-0.158781
3.416,67.6594,-0.158781
3.448,67.6594,-0.158781
3.478,67.6594,-0.158781
3.510,67.6594,-0.158781
3.541,67.6594,-0.158781
3.572,67.6594,-0.156457
3.603,67.6594,-0.156457
3.634,67.6594,-0.156457
3.665,67.6594,-0.156457
3.697,67.6594,-0.156457
3.727,67.6594,-0.156457
3.758,67.6594,-0.156457
3.789,67.6594,-0.156457
3.820,67.6594,-0.153850
3.852,67.6594,-0.153850
3.882,67.6594,-0.153850
3.913,67.6594,-0.153850
3.943,67.6594,-0.153850
3.975,67.6594,-0.153850
4.006,67.6594,-0.153850
4.037,67.6594,-0.153850
4.068,67.6594,-0.151178
4.098,67.6592,-0.151178
4.129,67.6585,-0.151178
4.163,67.6566,-0.151178
4.191,67.6547,-0.151178
4.222,67.6516,-0.151178
4.253,67.6480,-0.151178
4.288,67.6429,-0.151178
4.315,67.6382,-0.151178
4.348,67.6321,-0.136761
4.378,67.6256,-0.136761
4.409,67.6183,-0.136761
4.439,67.6104,-0.136761
4.470,67.6016,-0.136761
4.502,67.5918,-0.136761
4.531,67.5820,-0.136761
4.564,67.5706,-0.136761
4.593,67.5594,0.009984
4.624,67.5468,0.009984
4.660,67.5318,0.009984
4.687,67.5195,0.009984
4.718,67.5047,0.009984
4.751,67.4882,0.009984
4.780,67.4735,0.009984
4.811,67.4565,0.009984
4.842,67.4392,0.070503
4.875,67.4193,0.070503
4.905,67.4015,0.070503
4.938,67.3791,0.070503
4.968,67.3607,0.070503
4.999,67.3395,0.070503
5.031,67.3166,0.070503
5.062,67.2940,0.006663
5.092,67.2707,0.006663
5.124,67.2463,0.006663
5.155,67.2212,0.006663
5.184,67.1974,0.006663
5.216,67.1705,0.006663
5.246,67.1438,0.006663
5.278,67.1153,0.006663
5.309,67.0871,0.027648
5.340,67.0575,0.027648
5.370,67.0283,0.027648
5.401,66.9987,0.027648
5.432,66.9674,0.027648
5.463,66.9350,0.027648
5.494,66.9017,0.027648
5.526,66.8671,0.027648
5.554,66.8360,0.027648
5.585,66.8004,0.047871
5.616,66.7648,0.047871
5.647,66.7291,0.047871
5.678,66.6917,0.047871
5.709,66.6540,0.047871
5.740,66.6155,0.047871
5.773,66.5727,0.047871
5.801,66.5370,0.047871
5.832,66.4957,0.047871
5.863,66.4552,0.060481
5.895,66.4112,0.060481
5.927,66.3684,0.060481
5.958,66.3230,0.060481
5.989,66.2776,0.060481
6.020,66.2343,0.060481
6.051,66.1886,0.060481
6.082,66.1422,0.060481
6.113,66.0953,0.066324
6.143,66.0497,0.066324
6.175,66.0028,0.066324
6.206,65.9557,0.066324
6.238,65.9079,0.066324
6.268,65.8618,0.066324
6.300,65.8149,0.066324
6.327,65.7745,0.066324
6.362,65.7210,0.066324
6.392,65.6764,0.068545
6.423,65.6306,0.068545
6.457,65.5786,0.068545
6.485,65.5366,0.068545
6.516,65.4902,0.068545
6.547,65.4436,0.068545
6.579,65.3959,0.068696
6.609,65.3498,0.068696
6.640,65.3050,0.068696
6.671,65.2572,0.068696
6.703,65.2105,0.068696
6.734,65.1634,0.068696
6.766,65.1139,0.068696
6.795,65.0717,0.068696
6.825,65.0266,0.070804
6.853,64.9844,0.070804
6.887,64.9343,0.070804
6.918,64.8883,0.070804
6.948,64.8427,0.070804
6.979,64.7967,0.070804
7.010,64.7489,0.070804
7.041,64.7036,0.070804
7.071,64.6581,0.077175
7.102,64.6120,0.077175
7.132,64.5657,0.077175
7.165,64.5166,0.077175
7.195,64.4722,0.077175
7.226,64.4260,0.077175
7.259,64.3751,0.077175
7.289,64.3308,0.077175
7.320,64.2840,0.085004
7.350,64.2405,0.085004
7.380,64.1948,0.085004
7.411,64.1479,0.085004
7.441,64.1021,0.085004
7.473,64.0560,0.085004
7.504,64.0096,0.085004
7.535,63.9653,0.085004
7.566,63.9204,0.060283
7.597,63.8784,0.060283
7.627,63.8365,0.060283
7.658,63.7952,0.060283
7.688,63.7536,0.060283
7.719,63.7141,0.060283
7.755,63.6683,0.060283
7.796,63.6173,0.060283
7.825,63.5804,0.023629
7.859,63.5401,0.023629
7.888,63.5073,0.023629
7.918,63.4709,0.023629
7.950,63.4363,0.023629
7.981,63.4023,0.023629
8.012,63.3682,0.023629
8.045,63.3321,0.023629
8.073,63.3033,0.023629
8.104,63.2732,0.014708
8.135,63.2414,0.014708
8.166,63.2121,0.014708
8.198,63.1815,0.014708
8.231,63.1512,0.014708
8.259,63.1264,0.014708
8.291,63.0989,0.014708
8.322,63.0719,0.013400
8.353,63.0464,0.013400
8.384,63.0214,0.013400
8.415,62.9978,0.013400
8.446,62.9736,0.013400
8.478,62.9507,0.013400
8.509,62.9286,0.013400
8.539,62.9082,0.013400
8.571,62.8867,0.012845
8.605,62.8652,0.012845
8.634,62.8475,0.012845
8.664,62.8298,0.012845
8.695,62.8123,0.012845
8.729,62.7943,0.012845
8.757,62.7795,0.012845
8.790,62.7635,0.012845
8.819,62.7497,0.012516
8.852,62.7348,0.012516
8.881,62.7225,0.012516
8.912,62.7097,0.012516
8.944,62.6979,0.012516
8.975,62.6870,0.012516
9.007,62.6762,0.012516
9.036,62.6674,0.012516
9.067,62.6585,0.012243
9.098,62.6506,0.012243
9.132,62.6425,0.012243
9.159,62.6367,0.012243
9.192,62.6303,0.012243
9.220,62.6258,0.012243
9.252,62.6210,0.012243
9.282,62.6174,0.012243
9.318,62.6139,0.011998
9.345,62.6120,0.011998
9.376,62.6104,0.011998
9.407,62.6095,0.011998
9.438,62.6094,0.011998
9.469,62.6094,0.011998
9.500,62.6094,0.011998
9.531,62.6094,0.011998
9.562,62.6094,0.011998
9.593,62.6100,0.011829
9.624,62.6112,0.011829
9.655,62.6132,0.011829
9.689,62.6163,0.011829
9.716,62.6193,0.011829
9.749,62.6239,0.011829
9.777,62.6281,0.011829
9.807,62.6337,0.011829
9.840,62.6403,0.011829
9.871,62.6473,0.011707
9.902,62.6554,0.011707
9.932,62.6636,0.011707
9.963,62.6726,0.011707
9.996,62.6834,0.011707
10.025,62.6935,0.011707
10.056,62.7051,0.011707
10.087,62.7170,0.011707
10.118,62.7299,0.011518
10.149,62.7435,0.011518
10.181,62.7580,0.011518
10.211,62.7725,0.011518
10.242,62.7887,0.011518
10.273,62.8052,0.011518
10.305,62.8228,0.011518
10.335,62.8403,0.011245
10.370,62.8613,0.011245
10.397,62.8785,0.011245
10.429,62.8992,0.011245
10.460,62.9203,0.011245
10.495,62.9447,0.011245
10.522,62.9638,0.011245
10.553,62.9867,0.011245
10.583,63.0104,0.010860
10.615,63.0355,0.010860
10.645,63.0598,0.010860
10.676,63.0865,0.010860
10.708,63.1139,0.010860
10.739,63.1419,0.010860
10.770,63.1689,0.010860
10.803,63.2005,0.010860
10.832,63.2278,0.010464
10.864,63.2594,0.010464
10.895,63.2913,0.010464
10.925,63.3210,0.010464
10.957,63.3549,0.010464
10.987,63.3876,0.010464
11.019,63.4216,0.010464
11.050,63.4558,0.010464
11.081,63.4934,0.010464
11.114,63.5308,0.009937
11.143,63.5651,0.009937
11.174,63.6022,0.009937
11.205,63.6411,0.009937
11.236,63.6806,0.009937
11.267,63.7201,0.009937
11.299,63.7616,0.009937
11.330,63.8027,0.009937
11.361,63.8450,0.009100
11.392,63.8879,0.009100
11.424,63.9323,0.009100
11.455,63.9766,0.009100
11.486,64.0226,0.009100
11.517,64.0677,0.009100
11.548,64.1144,0.009100
11.579,64.1610,0.007980
11.610,64.2079,0.007980
11.642,64.2551,0.007980
11.672,64.3011,0.007980
11.704,64.3478,0.007980
11.736,64.3957,0.007980
11.768,64.4446,0.007980
11.799,64.4914,0.007980
11.830,64.5384,0.006634
11.862,64.5847,0.006634
11.893,64.6322,0.006634
11.924,64.6791,0.006634
11.955,64.7251,0.006634
11.985,64.7709,0.006634
12.017,64.8173,0.006634
12.047,64.8638,0.006634
12.080,64.9125,0.006634
12.108,64.9548,0.004922
12.140,65.0037,0.004922
12.171,65.0494,0.004922
12.203,65.0970,0.004922
12.234,65.1432,0.004922
12.265,65.1912,0.004922
12.296,65.2356,0.004922
12.327,65.2827,0.004922
12.358,65.3285,0.002541
12.389,65.3765,0.002541
12.420,65.4217,0.002541
12.450,65.4683,0.002541
12.482,65.5144,0.002541
12.513,65.5614,0.002541
12.544,65.6088,0.002541
12.574,65.6533,0.002541
12.605,65.6994,-0.001214
12.636,65.7458,-0.001214
12.666,65.7908,-0.001214
12.697,65.8388,-0.001214
12.728,65.8840,-0.001214
12.759,65.9304,-0.001214
12.790,65.9764,-0.001214
12.819,66.0213,-0.007754
12.850,66.0690,-0.007754
12.883,66.1164,-0.007754
12.913,66.1612,-0.007754
12.943,66.2071,-0.007754
12.974,66.2511,-0.007754
13.007,66.2972,-0.007754
13.036,66.3380,-0.007754
13.066,66.3807,-0.007754
13.098,66.4231,-0.019395
13.133,66.4705,-0.019395
13.161,66.5053,-0.019395
13.192,66.5450,-0.019395
13.224,66.5860,-0.019395
13.254,66.6229,-0.019395
13.285,66.6609,-0.019395
13.316,66.6971,-0.019395
13.347,66.7324,-0.038376
13.377,66.7673,-0.038376
13.408,66.8029,-0.038376
13.440,66.8360,-0.038376
13.473,66.8717,-0.038376
13.501,66.9016,-0.038376
13.533,66.9336,-0.038376
13.563,66.9639,-0.066061
13.595,66.9958,-0.066061
13.624,67.0231,-0.066061
13.655,67.0512,-0.066061
13.686,67.0804,-0.066061
13.716,67.1064,-0.066061
13.750,67.1362,-0.066061
13.779,67.1598,-0.066061
13.810,67.1857,-0.066061
13.841,67.2098,-0.066061
13.872,67.2336,-0.102385
13.903,67.2564,-0.102385
13.933,67.2785,-0.102385
13.964,67.2995,-0.102385
13.996,67.3213,-0.102385
14.027,67.3416,-0.102385
14.062,67.3635,-0.102385
14.089,67.3797,-0.102385
14.121,67.3979,-0.154519
14.151,67.4143,-0.154519
14.181,67.4307,-0.154519
14.213,67.4465,-0.154519
14.243,67.4612,-0.154519
14.275,67.4761,-0.154519
14.306,67.4893,-0.154519
14.337,67.5026,-0.154519
14.368,67.5148,-0.251107
14.407,67.5285,-0.251107
14.446,67.5417,-0.251107
14.478,67.5517,-0.251107
14.509,67.5603,-0.251107
14.541,67.5687,-0.251107
14.573,67.5762,-0.398511
14.604,67.5827,-0.398511
14.635,67.5888,-0.398511
14.667,67.5940,-0.398511
14.701,67.5989,-0.398511
14.728,67.6020,-0.398511
14.760,67.6049,-0.398511
14.792,67.6072,-0.398511
14.823,67.6086,-0.398511
14.854,67.6093,-0.535856
14.884,67.6094,-0.535856
14.915,67.6094,-0.535856
14.948,67.6094,-0.535856
14.977,67.6094,-0.535856
15.008,67.6094,-0.535856
15.039,67.6094,-0.535856
15.071,67.6094,-0.535856
15.101,67.6094,-0.485708
15.133,67.6094,-0.485708
15.163,67.6094,-0.485708
15.194,67.6094,-0.485708
15.225,67.6094,-0.485708
15.256,67.6094,-0.485708
15.288,67.6094,-0.485708
15.318,67.6094,-0.485708
15.350,67.6094,-0.321007
15.381,67.6094,-0.321007
15.413,67.6094,-0.321007
15.443,67.6094,-0.321007
15.474,67.6094,-0.321007
15.505,67.6094,-0.321007
15.536,67.6094,-0.321007
15.566,67.6094,-0.321007
15.598,67.6094,-0.242365
15.631,67.6094,-0.242365
15.661,67.6094,-0.242365
15.692,67.6094,-0.242365
15.723,67.6094,-0.242365
15.754,67.6094,-0.242365
15.785,67.6094,-0.242365
15.816,67.6094,-0.242365
15.847,67.6094,-0.214717
15.880,67.6094,-0.214717
15.910,67.6094,-0.214717
15.941,67.6094,-0.214717
15.972,67.6094,-0.214717
16.004,67.6094,-0.214717
16.036,67.6094,-0.214717
16.069,67.6094,-0.214717
16.097,67.6094,-0.200272
16.128,67.6094,-0.200272
16.159,67.6094,-0.200272
16.190,67.6094,-0.200272
16.221,67.6094,-0.200272
16.252,67.6094,-0.200272
16.283,67.6094,-0.200272
16.315,67.6094,-0.200272
16.346,67.6094,-0.190814
16.378,67.6094,-0.190814
16.409,67.6094,-0.190814
16.440,67.6094,-0.190814
16.470,67.6094,-0.190814
16.502,67.6094,-0.190814
16.533,67.6094,-0.190814
16.566,67.6094,-0.190814
16.597,67.6094,-0.184086
16.627,67.6094,-0.184086
16.659,67.6094,-0.184086
16.691,67.6094,-0.184086
16.721,67.6094,-0.184086
16.752,67.6094,-0.184086
16.782,67.6094,-0.184086
16.814,67.6094,-0.184086
16.844,67.6094,-0.184086
16.876,67.6094,-0.178769
16.906,67.6094,-0.178769
16.938,67.6094,-0.178769
16.974,67.6094,-0.178769
17.001,67.6094,-0.178769
17.035,67.6094,-0.178769
17.063,67.6094,-0.178769
17.093,67.6094,-0.178769
17.125,67.6094,-0.174346
17.156,67.6094,-0.174346
17.187,67.6094,-0.174346
17.219,67.6094,-0.174346
17.250,67.6094,-0.174346
17.280,67.6094,-0.174346
17.312,67.6094,-0.174346
17.343,67.6094,-0.170704
17.374,67.6094,-0.170704
17.405,67.6094,-0.170704
17.436,67.6094,-0.170704
17.467,67.6094,-0.170704
17.498,67.6094,-0.170704
17.529,67.6094,-0.170704
17.561,67.6094,-0.170704
17.592,67.6094,-0.167580
17.623,67.6094,-0.167580
17.655,67.6094,-0.167580
17.686,67.6094,-0.167580
17.717,67.6094,-0.167580
17.749,67.6094,-0.167580
17.780,67.6094,-0.167580
17.811,67.6094,-0.164851
17.842,67.6094,-0.164851
17.873,67.6094,-0.164851
17.905,67.6094,-0.164851
17.936,67.6094,-0.164851
17.966,67.6094,-0.164851
17.999,67.6094,-0.164851
18.029,67.6094,-0.164851
18.059,67.6094,-0.164851
18.090,67.6094,-0.162395
18.122,67.6094,-0.162395
18.153,67.6094,-0.162395
18.184,67.6094,-0.162395
18.215,67.6094,-0.162395
18.247,67.6094,-0.162395
18.277,67.6094,-0.162395
18.308,67.6094,-0.162395
18.340,67.6094,-0.162395
18.370,67.6094,-0.160297
18.402,67.6094,-0.160297
18.433,67.6094,-0.160297
18.467,67.6094,-0.160297
18.496,67.6094,-0.160297
18.527,67.6094,-0.160297
18.559,67.6094,-0.160297
18.588,67.6094,-0.160297
18.620,67.6094,-0.158264
18.652,67.6094,-0.158264
18.684,67.6094,-0.158264
18.714,67.6094,-0.158264
18.746,67.6094,-0.158264
18.778,67.6094,-0.158264
18.807,67.6094,-0.158264
18.838,67.6094,-0.155751
18.871,67.6094,-0.155751
18.900,67.6094,-0.155751
18.931,67.6094,-0.155751
18.961,67.6094,-0.155751
18.996,67.6094,-0.155751
19.023,67.6094,-0.155751
19.054,67.6094,-0.155751
19.085,67.6094,-0.152796
19.110,67.6094,-0.152796
19.148,67.6094,-0.152796
19.178,67.6093,-0.152796
19.210,67.6085,-0.152796
19.241,67.6069,-0.152796
19.272,67.6047,-0.152796
19.303,67.6017,-0.152796
19.334,67.5980,-0.152796
19.366,67.5934,-0.150246
19.402,67.5873,-0.150246
19.427,67.5824,-0.150246
19.459,67.5757,-0.150246
19.494,67.5671,-0.150246
19.521,67.5602,-0.150246
19.553,67.5510,-0.150246
19.584,67.5414,0.150604
19.615,67.5311,0.150604
19.648,67.5195,0.150604
19.676,67.5088,0.150604
19.708,67.4959,0.150604
19.739,67.4828,0.150604
19.770,67.4685,0.150604
19.802,67.4539,0.224278
19.832,67.4385,0.224278
19.863,67.4227,0.224278
19.894,67.4059,0.224278
19.925,67.3884,0.224278
19.955,67.3704,0.224278
19.987,67.3512,0.224278
20.018,67.3306,0.224278
20.049,67.3102,0.224278
20.082,67.2882,0.003341
20.111,67.2667,0.003341
20.143,67.2439,0.003341
20.174,67.2207,0.003341
20.206,67.1959,0.003341
20.236,67.1716,0.003341
20.266,67.1464,0.003341
20.297,67.1204,0.003341
20.328,67.0933,0.020421
20.359,67.0652,0.020421
20.390,67.0369,0.020421
20.421,67.0075,0.020421
20.451,66.9782,0.020421
20.483,66.9471,0.020421
20.514,66.9152,0.020421
20.545,66.8836,0.020421
20.576,66.8502,0.042130
20.608,66.8159,0.042130
20.640,66.7813,0.042130
20.670,66.7463,0.042130
20.705,66.7069,0.042130
20.732,66.6741,0.042130
20.763,66.6370,0.042130
20.795,66.5987,0.042130
20.825,66.5593,0.057441
20.856,66.5205,0.057441
20.886,66.4819,0.057441
20.917,66.4413,0.057441
20.949,66.3992,0.057441
20.979,66.3575,0.057441
21.010,66.3153,0.057441
21.041,66.2702,0.057441
21.072,66.2263,0.065289
21.103,66.1808,0.065289
21.135,66.1339,0.065289
21.165,66.0892,0.065289
21.197,66.0417,0.065289
21.226,65.9971,0.065289
21.257,65.9500,0.065289
21.290,65.9002,0.065289
21.320,65.8561,0.065289
21.350,65.8101,0.065289
21.382,65.7639,0.068432
21.415,65.7128,0.068432
21.443,65.6708,0.068432
21.474,65.6238,0.068432
21.505,65.5789,0.068432
21.537,65.5306,0.068432
21.567,65.4856,0.068959
21.599,65.4356,0.068959
21.631,65.3891,0.068959
21.660,65.3461,0.068959
21.691,65.2995,0.068959
21.722,65.2526,0.068959
21.754,65.2046,0.068959
21.788,65.1541,0.068959
21.817,65.1119,0.068959
21.847,65.0664,0.070079
21.878,65.0198,0.070079
21.909,64.9724,0.070079
21.940,64.9263,0.070079
21.971,64.8799,0.070079
22.003,64.8323,0.070079
22.034,64.7848,0.070079
22.066,64.7376,0.075302
22.098,64.6888,0.075302
22.128,64.6441,0.075302
22.159,64.5972,0.075302
22.190,64.5513,0.075302
22.221,64.5041,0.075302
22.252,64.4581,0.075302
22.283,64.4123,0.075302
22.314,64.3653,0.083404
22.345,64.3193,0.083404
22.375,64.2725,0.083404
22.406,64.2274,0.083404
22.437,64.1805,0.083404
22.469,64.1333,0.083404
22.500,64.0866,0.083404
22.531,64.0390,0.083404
22.562,63.9934,0.079132
22.594,63.9477,0.079132
22.625,63.9022,0.079132
22.656,63.8588,0.079132
22.687,63.8165,0.079132
22.717,63.7738,0.079132
22.749,63.7323,0.079132
22.782,63.6879,0.079132
22.811,63.6498,0.043834
22.841,63.6108,0.043834
22.873,63.5722,0.043834
22.904,63.5345,0.043834
22.934,63.4980,0.043834
22.965,63.4617,0.043834
22.996,63.4258,0.043834
23.027,63.3901,0.043834
23.059,63.3546,0.043834
23.088,63.3239,0.043834
23.119,63.2909,0.015659
23.149,63.2588,0.015659
23.181,63.2268,0.015659
23.212,63.1958,0.015659
23.242,63.1665,0.015659
23.272,63.1375,0.015659
23.303,63.1097,0.015659
23.334,63.0818,0.013786
23.364,63.0548,0.013786
23.396,63.0282,0.013786
23.427,63.0020,0.013786
23.458,62.9771,0.013786
23.488,62.9527,0.013786
23.520,62.9295,0.013786
23.551,62.9062,0.013786
23.582,62.8845,0.013099
23.614,62.8620,0.013099
23.645,62.8419,0.013099
23.675,62.8220,0.013099
23.707,62.8031,0.013099
23.738,62.7840,0.013099
23.769,62.7665,0.013099
23.800,62.7497,0.013099
23.831,62.7332,0.012676
23.862,62.7177,0.012676
23.893,62.7025,0.012676
23.924,62.6888,0.012676
23.954,62.6757,0.012676
23.985,62.6631,0.012676
24.016,62.6509,0.012676
24.047,62.6399,0.012676
24.078,62.6295,0.012676
24.110,62.6196,0.012365
24.141,62.6104,0.012365
24.173,62.6019,0.012365
24.204,62.5945,0.012365
24.234,62.5878,0.012365
24.265,62.5817,0.012365
24.295,62.5764,0.012365
24.327,62.5718,0.012092
24.357,62.5680,0.012092
24.388,62.5647,0.012092
24.420,62.5623,0.012092
24.451,62.5605,0.012092
24.482,62.5595,0.012092
24.513,62.5593,0.012092
24.545,62.5593,0.012092
24.576,62.5593,0.011895
24.607,62.5593,0.011895
24.639,62.5593,0.011895
24.671,62.5593,0.011895
24.702,62.5599,0.011895
24.733,62.5611,0.011895
24.764,62.5633,0.011895
24.795,62.5661,0.011895
24.827,62.5697,0.011782
24.856,62.5737,0.011782
24.887,62.5786,0.011782
24.918,62.5842,0.011782
24.949,62.5905,0.011782
24.980,62.5977,0.011782
25.010,62.6054,0.011782
25.041,62.6139,0.011782
25.072,62.6232,0.011622
25.103,62.6332,0.011622
25.134,62.6440,0.011622
25.166,62.6558,0.011622
25.196,62.6677,0.011622
25.227,62.6809,0.011622
25.258,62.6940,0.011622
25.289,62.7089,0.011622
25.320,62.7237,0.011340
25.351,62.7396,0.011340
25.382,62.7561,0.011340
25.414,62.7741,0.011340
25.445,62.7916,0.011340
25.475,62.8103,0.011340
25.506,62.8292,0.011340
25.536,62.8490,0.011340
25.568,62.8703,0.011048
25.599,62.8923,0.011048
25.631,62.9154,0.011048
25.667,62.9426,0.011048
25.708,62.9745,0.011048
25.740,62.9996,0.011048
25.771,63.0256,0.011048
25.801,63.0508,0.011048
25.832,63.0786,0.010690
25.863,63.1059,0.010690
25.894,63.1349,0.010690
25.925,63.1634,0.010690
25.956,63.1947,0.010690
25.987,63.2247,0.010690
26.019,63.2579,0.010690
26.048,63.2875,0.010690
26.080,63.3213,0.010690
26.111,63.3554,0.010210
26.142,63.3897,0.010210
26.173,63.4257,0.010210
26.205,63.4608,0.010210
26.236,63.4979,0.010210
26.267,63.5356,0.010210
26.300,63.5753,0.010210
26.329,63.6124,0.009495
26.360,63.6524,0.009495
26.391,63.6914,0.009495
26.422,63.7324,0.009495
26.452,63.7735,0.009495
26.484,63.8158,0.009495
26.514,63.8592,0.009495
26.546,63.9041,0.009495
26.577,63.9491,0.008488
26.608,63.9932,0.008488
26.639,64.0405,0.008488
26.671,64.0875,0.008488
26.702,64.1341,0.008488
26.733,64.1814,0.008488
26.764,64.2276,0.008488
26.795,64.2732,0.008488
26.826,64.3203,0.008488
26.857,64.3678,0.007274
26.888,64.4141,0.007274
26.919,64.4602,0.007274
26.951,64.5072,0.007274
26.982,64.5540,0.007274
27.013,64.6005,0.007274
27.044,64.6470,0.007274
27.075,64.6935,0.005731
27.106,64.7401,0.005731
27.137,64.7866,0.005731
27.168,64.8334,0.005731
27.199,64.8808,0.005731
27.231,64.9287,0.005731
27.261,64.9730,0.005731
27.292,65.0199,0.005731
27.326,65.0698,0.003651
27.354,65.1124,0.003651
27.385,65.1586,0.003651
27.415,65.2052,0.003651
27.446,65.2512,0.003651
27.478,65.2988,0.003651
27.509,65.3441,0.003651
27.541,65.3927,0.003651
27.571,65.4382,0.000583
27.603,65.4870,0.000583
27.636,65.5355,0.000583
27.666,65.5811,0.000583
27.696,65.6259,0.000583
27.727,65.6709,0.000583
27.757,65.7169,0.000583
27.788,65.7637,0.000583
27.820,65.8120,0.000583
27.851,65.8573,-0.004489
27.882,65.9039,-0.004489
27.913,65.9508,-0.004489
27.944,65.9986,-0.004489
27.975,66.0440,-0.004489
28.005,66.0894,-0.004489
28.036,66.1352,-0.004489
28.068,66.1809,-0.004489
28.099,66.2262,-0.013598
28.132,66.2728,-0.013598
28.161,66.3126,-0.013598
28.192,66.3551,-0.013598
28.223,66.3976,-0.013598
28.254,66.4375,-0.013598
28.287,66.4805,-0.013598
28.316,66.5171,-0.013598
28.349,66.5575,-0.029285
28.378,66.5938,-0.029285
28.410,66.6308,-0.029285
28.442,66.6686,-0.029285
28.472,66.7043,-0.029285
28.504,66.7399,-0.029285
28.535,66.7735,-0.029285
28.567,66.8081,-0.053338
28.600,66.8429,-0.053338
28.630,66.8736,-0.053338
28.660,66.9042,-0.053338
28.691,66.9353,-0.053338
28.722,66.9642,-0.053338
28.754,66.9945,-0.053338
28.785,67.0221,-0.053338
28.816,67.0497,-0.086152
28.847,67.0768,-0.086152
28.880,67.1052,-0.086152
28.909,67.1289,-0.086152
28.941,67.1537,-0.086152
28.972,67.1777,-0.086152
28.999,67.1979,-0.086152
29.035,67.2238,-0.086152
29.069,67.2481,-0.129158
29.096,67.2663,-0.129158
29.127,67.2867,-0.129158
29.158,67.3058,-0.129158
29.189,67.3246,-0.129158
29.220,67.3430,-0.129158
29.251,67.3602,-0.129158
29.282,67.3772,-0.129158
29.315,67.3937,-0.204243
29.344,67.4086,-0.204243
29.375,67.4224,-0.204243
29.406,67.4365,-0.204243
29.438,67.4497,-0.204243
29.469,67.4621,-0.204243
29.500,67.4735,-0.204243
29.531,67.4846,-0.204243
29.562,67.4944,-0.204243
29.593,67.5040,-0.333090
29.624,67.5124,-0.333090
29.654,67.5202,-0.333090
29.692,67.5288,-0.333090
29.731,67.5366,-0.333090
29.761,67.5418,-0.333090
29.792,67.5465,-0.333090
29.823,67.5505,-0.333090
29.854,67.5536,-0.490968
29.885,67.5562,-0.490968
29.916,67.5579,-0.490968
29.947,67.5590,-0.490968
29.978,67.5593,-0.490968
30.010,67.5593,-0.490968
30.041,67.5593,-0.490968
30.072,67.5593,-0.542264
30.102,67.5593,-0.542264
30.133,67.5593,-0.542264
30.164,67.5593,-0.542264
30.194,67.5593,-0.542264
30.226,67.5593,-0.542264
30.257,67.5593,-0.542264
30.289,67.5593,-0.542264
30.323,67.5593,-0.403235
30.352,67.5593,-0.403235
30.383,67.5593,-0.403235
30.414,67.5593,-0.403235
30.445,67.5593,-0.403235
30.479,67.5593,-0.403235
30.507,67.5593,-0.403235
30.539,67.5593,-0.403235
30.570,67.5593,-0.403235
30.602,67.5593,-0.264197
30.632,67.5593,-0.264197
30.663,67.5593,-0.264197
30.694,67.5593,-0.264197
30.726,67.5593,-0.264197
30.757,67.5593,-0.264197
30.788,67.5593,-0.264197
30.819,67.5593,-0.224391
30.851,67.5593,-0.224391
30.880,67.5593,-0.224391
30.912,67.5593,-0.224391
30.942,67.5593,-0.224391
30.973,67.5593,-0.224391
31.005,67.5593,-0.224391
31.034,67.5593,-0.224391
31.065,67.5593,-0.206436
31.096,67.5593,-0.206436
31.127,67.5593,-0.206436
31.159,67.5593,-0.206436
31.189,67.5593,-0.206436
31.220,67.5593,-0.206436
31.250,67.5593,-0.206436
31.281,67.5593,-0.206436
31.311,67.5593,-0.206436
31.342,67.5593,-0.195491
31.373,67.5593,-0.195491
31.405,67.5593,-0.195491
31.436,67.5593,-0.195491
31.466,67.5593,-0.195491
31.497,67.5593,-0.195491
31.528,67.5593,-0.195491
31.559,67.5593,-0.195491
31.590,67.5593,-0.187718
31.622,67.5593,-0.187718
31.653,67.5593,-0.187718
31.683,67.5593,-0.187718
31.714,67.5593,-0.187718
31.745,67.5593,-0.187718
31.776,67.5593,-0.187718
31.809,67.5593,-0.187718
31.839,67.5593,-0.181893
31.870,67.5593,-0.181893
31.901,67.5593,-0.181893
31.933,67.5593,-0.181893
31.964,67.5593,-0.181893
31.996,67.5593,-0.181893
32.026,67.5593,-0.181893
32.057,67.5593,-0.181893
32.089,67.5593,-0.177273
32.119,67.5593,-0.177273
32.151,67.5593,-0.177273
32.181,67.5593,-0.177273
32.212,67.5593,-0.177273
32.243,67.5593,-0.177273
32.274,67.5593,-0.177273
32.304,67.5593,-0.177273
32.335,67.5593,-0.173339
32.366,67.5593,-0.173339
32.397,67.5593,-0.173339
32.428,67.5593,-0.173339
32.459,67.5593,-0.173339
32.489,67.5593,-0.173339
32.520,67.5593,-0.173339
32.551,67.5593,-0.173339
32.582,67.5593,-0.169952
32.613,67.5593,-0.169952
32.644,67.5593,-0.169952
32.675,67.5593,-0.169952
32.706,67.5593,-0.169952
32.737,67.5593,-0.169952
32.768,67.5593,-0.169952
32.799,67.5593,-0.169952
32.830,67.5593,-0.167100
32.861,67.5593,-0.167100
32.892,67.5593,-0.167100
32.923,67.5593,-0.167100
32.954,67.5593,-0.167100
32.984,67.5593,-0.167100
33.015,67.5593,-0.167100
33.046,67.5593,-0.167100
33.076,67.5593,-0.164550
33.107,67.5593,-0.164550
33.139,67.5593,-0.164550
33.170,67.5593,-0.164550
33.201,67.5593,-0.164550
33.232,67.5593,-0.164550
33.263,67.5593,-0.164550
33.294,67.5593,-0.164550
33.326,67.5593,-0.164550
33.356,67.5593,-0.162263
33.387,67.5593,-0.162263
33.419,67.5593,-0.162263
33.449,67.5593,-0.162263
33.480,67.5593,-0.162263
33.512,67.5593,-0.162263
33.542,67.5593,-0.162263
33.572,67.5593,-0.160249
33.603,67.5593,-0.160249
33.634,67.5593,-0.160249
33.666,67.5593,-0.160249
33.697,67.5593,-0.160249
33.728,67.5593,-0.160249
33.759,67.5593,-0.160249
33.790,67.5593,-0.160249
33.821,67.5593,-0.157831
33.852,67.5593,-0.157831
33.883,67.5593,-0.157831
33.914,67.5593,-0.157831
33.945,67.5593,-0.157831
33.976,67.5593,-0.157831
34.006,67.5593,-0.157831
34.039,67.5593,-0.157831
34.069,67.5593,-0.157831
34.101,67.5593,-0.154791
34.134,67.5593,-0.154791
34.162,67.5593,-0.154791
34.194,67.5593,-0.154791
34.224,67.5588,-0.154791
34.255,67.5577,-0.154791
34.286,67.5557,-0.154791
34.316,67.5532,-0.154791
34.346,67.5499,-0.151517
34.377,67.5459,-0.151517
34.409,67.5409,-0.151517
34.441,67.5352,-0.151517
34.471,67.5291,-0.151517
34.502,67.5222,-0.151517
34.533,67.5145,-0.151517
34.564,67.5061,-0.151517
34.595,67.4969,0.113659
34.626,67.4870,0.113659
34.657,67.4764,0.113659
34.688,67.4649,0.113659
34.720,67.4528,0.113659
34.750,67.4401,0.113659
34.781,67.4265,0.113659
34.811,67.4127,0.113659
34.843,67.3972,0.113659
34.874,67.3814,0.188801
34.905,67.3647,0.188801
34.936,67.3482,0.188801
34.966,67.3305,0.188801
34.997,67.3117,0.188801
35.029,67.2924,0.188801
35.060,67.2723,0.188801
35.091,67.2516,0.003181
35.123,67.2293,0.003181
35.153,67.2078,0.003181
35.184,67.1847,0.003181
35.215,67.1608,0.003181
35.246,67.1362,0.003181
35.276,67.1116,0.003181
35.308,67.0855,0.003181
35.339,67.0587,0.017616
35.369,67.0316,0.017616
35.401,67.0035,0.017616
35.432,66.9746,0.017616
35.463,66.9449,0.017616
35.494,66.9146,0.017616
35.525,66.8840,0.017616
35.556,66.8521,0.017616
35.585,66.8215,0.039599
35.616,66.7891,0.039599
35.647,66.7552,0.039599
35.678,66.7201,0.039599
35.709,66.6854,0.039599
35.740,66.6485,0.039599
35.771,66.6126,0.039599
35.802,66.5748,0.039599
35.833,66.5365,0.055738
35.863,66.4981,0.055738
35.895,66.4586,0.055738
35.926,66.4175,0.055738
35.958,66.3756,0.055738
35.988,66.3336,0.055738
36.020,66.2897,0.055738
36.051,66.2471,0.055738
36.082,66.2032,0.064273
36.113,66.1586,0.064273
36.144,66.1130,0.064273
36.175,66.0657,0.064273
36.206,66.0200,0.064273
36.236,65.9741,0.064273
36.267,65.9278,0.064273
36.298,65.8817,0.064273
36.330,65.8341,0.067849
36.361,65.7864,0.067849
36.393,65.7396,0.067849
36.424,65.6915,0.067849
36.455,65.6463,0.067849
36.487,65.5987,0.067849
36.518,65.5522,0.067849
36.549,65.5050,0.068686
36.580,65.4581,0.068686
36.610,65.4136,0.068686
36.641,65.3669,0.068686
36.672,65.3217,0.068686
36.703,65.2737,0.068686
36.734,65.2279,0.068686
36.765,65.1823,0.068686
36.795,65.1357,0.068686
36.826,65.0906,0.068686
36.856,65.0445,0.069411
36.888,64.9968,0.069411
36.918,64.9502,0.069411
36.955,64.8955,0.069411
36.995,64.8350,0.069411
37.025,64.7913,0.069411
37.056,64.7453,0.069411
37.087,64.6991,0.069411
37.118,64.6528,0.073919
37.149,64.6053,0.073919
37.180,64.5584,0.073919
37.210,64.5134,0.073919
37.241,64.4660,0.073919
37.272,64.4195,0.073919
37.306,64.3692,0.073919
37.335,64.3260,0.073919
37.366,64.2801,0.082021
37.397,64.2334,0.082021
37.427,64.1875,0.082021
37.459,64.1401,0.082021
37.491,64.0917,0.082021
37.522,64.0453,0.082021
37.553,63.9994,0.082021
37.583,63.9547,0.082021
37.614,63.9098,0.083122
37.646,63.8636,0.083122
37.676,63.8201,0.083122
37.708,63.7760,0.083122
37.739,63.7332,0.083122
37.770,63.6916,0.083122
37.801,63.6506,0.083122
37.832,63.6093,0.048849
37.865,63.5660,0.048849
37.894,63.5314,0.048849
37.928,63.4891,0.048849
37.955,63.4557,0.048849
37.988,63.4165,0.048849
38.018,63.3829,0.048849
38.050,63.3466,0.048849
38.080,63.3127,0.016129
38.111,63.2785,0.016129
38.143,63.2456,0.016129
38.173,63.2125,0.016129
38.204,63.1821,0.016129
38.236,63.1496,0.016129
38.266,63.1207,0.016129
38.298,63.0904,0.016129
38.329,63.0623,0.013880
38.359,63.0342,0.013880
38.390,63.0078,0.013880
38.420,62.9808,0.013880
38.452,62.9553,0.013880
38.483,62.9291,0.013880
38.515,62.9047,0.013880
38.546,62.8812,0.013880
38.577,62.8586,0.013165
38.608,62.8359,0.013165
38.640,62.8137,0.013165
38.671,62.7931,0.013165
38.701,62.7738,0.013165
38.732,62.7541,0.013165
38.763,62.7355,0.013165
38.794,62.7180,0.013165
38.825,62.7014,0.012713
38.856,62.6850,0.012713
38.887,62.6695,0.012713
38.917,62.6548,0.012713
38.949,62.6404,0.012713
38.980,62.6265,0.012713
39.011,62.6140,0.012713
39.041,62.6022,0.012713
39.072,62.5912,0.012356
39.106,62.5795,0.012356
39.135,62.5706,0.012356
39.166,62.5614,0.012356
39.198,62.5530,0.012356
39.233,62.5442,0.012356
39.260,62.5383,0.012356
39.291,62.5324,0.012356
39.323,62.5267,0.012092
39.353,62.5222,0.012092
39.384,62.5181,0.012092
39.415,62.5149,0.012092
39.446,62.5124,0.012092
39.478,62.5107,0.012092
39.509,62.5095,0.012092
39.540,62.5093,0.012092
39.570,62.5093,0.011923
39.602,62.5093,0.011923
39.633,62.5093,0.011923
39.664,62.5093,0.011923
39.694,62.5093,0.011923
39.725,62.5094,0.011923
39.757,62.5102,0.011923
39.788,62.5118,0.011923
39.820,62.5140,0.011923
39.850,62.5170,0.011885
39.880,62.5206,0.011885
39.911,62.5251,0.011885
39.942,62.5301,0.011885
39.973,62.5361,0.011885
40.004,62.5424,0.011885
40.035,62.5500,0.011885
40.066,62.5579,0.011688
40.097,62.5668,0.011688
40.128,62.5760,0.011688
40.159,62.5866,0.011688
40.190,62.5975,0.011688
40.222,62.6091,0.011688
40.253,62.6222,0.011688
40.284,62.6352,0.011688
40.316,62.6492,0.011434
40.346,62.6637,0.011434
40.377,62.6791,0.011434
40.409,62.6955,0.011434
40.439,62.7116,0.011434
40.470,62.7294,0.011434
40.501,62.7474,0.011434
40.532,62.7666,0.011434
40.563,62.7861,0.011236
40.594,62.8066,0.011236
40.625,62.8278,0.011236
40.655,62.8494,0.011236
40.687,62.8719,0.011236
40.717,62.8958,0.011236
40.749,62.9196,0.011236
40.780,62.9443,0.011236
40.810,62.9694,0.010850
40.842,62.9961,0.010850
40.873,63.0236,0.010850
40.903,63.0508,0.010850
40.935,63.0797,0.010850
40.965,63.1086,0.010850
40.997,63.1388,0.010850
41.027,63.1687,0.010850
41.059,63.2009,0.010304
41.089,63.2316,0.010304
41.121,63.2657,0.010304
41.155,63.3022,0.010304
41.182,63.3322,0.010304
41.214,63.3680,0.010304
41.244,63.4029,0.010304
41.275,63.4398,0.010304
41.306,63.4761,0.009608
41.338,63.5145,0.009608
41.368,63.5522,0.009608
41.399,63.5925,0.009608
41.430,63.6323,0.009608
41.462,63.6736,0.009608
41.492,63.7137,0.009608
41.523,63.7556,0.009608
41.554,63.7998,0.009608
41.585,63.8434,0.008780
41.616,63.8881,0.008780
41.648,63.9347,0.008780
41.677,63.9769,0.008780
41.709,64.0251,0.008780
41.740,64.0720,0.008780
41.771,64.1183,0.008780
41.802,64.1655,0.008780
41.833,64.2112,0.008780
41.863,64.2567,0.007622
41.895,64.3044,0.007622
41.925,64.3501,0.007622
41.957,64.3974,0.007622
41.987,64.4426,0.007622
42.018,64.4890,0.007622
42.048,64.5335,0.007622
42.079,64.5805,0.006041
42.110,64.6260,0.006041
42.140,64.6721,0.006041
42.172,64.7200,0.006041
42.203,64.7659,0.006041
42.233,64.8122,0.006041
42.264,64.8572,0.006041
42.296,64.9057,0.006041
42.327,64.9529,0.004141
42.359,64.9996,0.004141
42.390,65.0473,0.004141
42.421,65.0925,0.004141
42.452,65.1391,0.004141
42.483,65.1851,0.004141
42.514,65.2322,0.004141
42.545,65.2787,0.004141
42.576,65.3260,0.004141
42.607,65.3725,0.001393
42.638,65.4191,0.001393
42.669,65.4656,0.001393
42.700,65.5117,0.001393
42.731,65.5589,0.001393
42.762,65.6047,0.001393
42.793,65.6513,0.001393
42.824,65.6974,-0.003200
42.854,65.7436,-0.003200
42.885,65.7898,-0.003200
42.917,65.8376,-0.003200
42.948,65.8832,-0.003200
42.979,65.9314,-0.003200
43.010,65.9765,-0.003200
43.041,66.0229,-0.003200
43.073,66.0706,-0.011368
43.103,66.1145,-0.011368
43.134,66.1606,-0.011368
43.166,66.2052,-0.011368
43.196,66.2479,-0.011368
43.227,66.2894,-0.011368
43.259,66.3336,-0.011368
43.289,66.3714,-0.011368
43.320,66.4121,-0.011368
43.351,66.4519,-0.025709
43.382,66.4903,-0.025709
43.412,66.5268,-0.025709
43.442,66.5636,-0.025709
43.473,66.6015,-0.025709
43.504,66.6363,-0.025709
43.534,66.6710,-0.025709
43.565,66.7054,-0.025709
43.596,66.7385,-0.048134
43.628,66.7732,-0.048134
43.657,66.8037,-0.048134
43.689,66.8359,-0.048134
43.719,66.8664,-0.048134
43.752,66.8979,-0.048134
43.782,66.9265,-0.048134
43.813,66.9555,-0.048134
43.844,66.9832,-0.079320
43.876,67.0122,-0.079320
43.906,67.0378,-0.079320
43.938,67.0643,-0.079320
43.969,67.0900,-0.079320
44.005,67.1179,-0.079320
44.046,67.1488,-0.079320
44.077,67.1706,-0.079320
44.110,67.1947,-0.119935
44.139,67.2135,-0.119935
44.170,67.2342,-0.119935
44.200,67.2531,-0.119935
44.230,67.2719,-0.119935
44.262,67.2902,-0.119935
44.293,67.3080,-0.119935
44.324,67.3243,-0.119935
44.355,67.3405,-0.186740
44.386,67.3563,-0.186740
44.417,67.3706,-0.186740
44.448,67.3845,-0.186740
44.479,67.3974,-0.186740
44.510,67.4097,-0.186740
44.541,67.4216,-0.186740
44.572,67.4324,-0.306525
44.603,67.4427,-0.306525
44.634,67.4521,-0.306525
44.667,67.4616,-0.306525
44.697,67.4691,-0.306525
44.727,67.4764,-0.306525
44.759,67.4830,-0.306525
44.785,67.4878,-0.306525
44.822,67.4941,-0.465805
44.852,67.4984,-0.465805
44.884,67.5020,-0.465805
44.915,67.5050,-0.465805
44.946,67.5071,-0.465805
44.977,67.5086,-0.465805
45.009,67.5092,-0.465805
45.039,67.5093,-0.465805
45.071,67.5093,-0.552888
45.102,67.5093,-0.552888
45.133,67.5093,-0.552888
45.164,67.5093,-0.552888
45.195,67.5093,-0.552888
45.226,67.5093,-0.552888
45.256,67.5093,-0.552888
45.287,67.5093,-0.552888
45.317,67.5093,-0.436952
45.349,67.5093,-0.436952
45.380,67.5093,-0.436952
45.410,67.5093,-0.436952
45.442,67.5093,-0.436952
45.474,67.5093,-0.436952
45.505,67.5093,-0.436952
45.537,67.5093,-0.436952
45.568,67.5093,-0.280862
45.599,67.5093,-0.280862
45.630,67.5093,-0.280862
45.662,67.5093,-0.280862
45.693,67.5093,-0.280862
45.724,67.5093,-0.280862
45.755,67.5093,-0.280862
45.787,67.5093,-0.280862
45.818,67.5093,-0.280862
45.848,67.5093,-0.280862
45.878,67.5093,-0.230827
45.909,67.5093,-0.230827
45.941,67.5093,-0.230827
45.971,67.5093,-0.230827
46.003,67.5093,-0.230827
46.034,67.5093,-0.230827
46.065,67.5093,-0.230827
46.096,67.5093,-0.210228
46.128,67.5093,-0.210228
46.159,67.5093,-0.210228
46.191,67.5093,-0.210228
46.221,67.5093,-0.210228
46.251,67.5093,-0.210228
46.281,67.5093,-0.210228
46.312,67.5093,-0.210228
46.343,67.5093,-0.198277
46.370,67.5093,-0.198277
46.406,67.5093,-0.198277
46.436,67.5093,-0.198277
46.467,67.5093,-0.198277
46.498,67.5093,-0.198277
46.529,67.5093,-0.198277
46.559,67.5093,-0.198277
46.591,67.5093,-0.189902
46.621,67.5093,-0.189902
46.653,67.5093,-0.189902
46.684,67.5093,-0.189902
46.716,67.5093,-0.189902
46.746,67.5093,-0.189902
46.778,67.5093,-0.189902
46.808,67.5093,-0.189902
46.839,67.5093,-0.183559
46.869,67.5093,-0.183559
46.900,67.5093,-0.183559
46.931,67.5093,-0.183559
46.962,67.5093,-0.183559
46.994,67.5093,-0.183559
47.023,67.5093,-0.183559
47.054,67.5093,-0.183559
47.085,67.5093,-0.178694
47.116,67.5093,-0.178694
47.146,67.5093,-0.178694
47.177,67.5093,-0.178694
47.208,67.5093,-0.178694
47.238,67.5093,-0.178694
47.270,67.5093,-0.178694
47.301,67.5093,-0.178694
47.331,67.5093,-0.174798
47.361,67.5093,-0.174798
47.393,67.5093,-0.174798
47.423,67.5093,-0.174798
47.455,67.5093,-0.174798
47.485,67.5093,-0.174798
47.517,67.5093,-0.174798
47.548,67.5093,-0.174798
47.578,67.5093,-0.171278
47.610,67.5093,-0.171278
47.641,67.5093,-0.171278
47.672,67.5093,-0.171278
47.703,67.5093,-0.171278
47.734,67.5093,-0.171278
47.764,67.5093,-0.171278
47.795,67.5093,-0.171278
47.826,67.5093,-0.168229
47.856,67.5093,-0.168229
47.888,67.5093,-0.168229
47.919,67.5093,-0.168229
47.950,67.5093,-0.168229
47.981,67.5093,-0.168229
48.012,67.5093,-0.168229
48.043,67.5093,-0.168229
48.074,67.5093,-0.168229
48.105,67.5093,-0.165707
48.136,67.5093,-0.165707
48.167,67.5093,-0.165707
48.199,67.5093,-0.165707
48.229,67.5093,-0.165707
48.260,67.5093,-0.165707
48.291,67.5093,-0.165707
48.322,67.5093,-0.163496
48.353,67.5093,-0.163496
48.383,67.5093,-0.163496
48.414,67.5093,-0.163496
48.444,67.5093,-0.163496
48.476,67.5093,-0.163496
48.507,67.5093,-0.163496
48.538,67.5093,-0.163496
48.569,67.5093,-0.161501
48.600,67.5093,-0.161501
48.631,67.5093,-0.161501
48.662,67.5093,-0.161501
48.693,67.5093,-0.161501
48.725,67.5093,-0.161501
48.756,67.5093,-0.161501
48.786,67.5093,-0.161501
48.818,67.5093,-0.158857
48.851,67.5093,-0.158857
48.880,67.5093,-0.158857
48.913,67.5093,-0.158857
48.943,67.5093,-0.158857
48.973,67.5093,-0.158857
49.005,67.5093,-0.158857
49.035,67.5093,-0.158857
49.065,67.5093,-0.156043
49.096,67.5093,-0.156043
49.126,67.5093,-0.156043
49.157,67.5093,-0.156043
49.188,67.5093,-0.156043
49.221,67.5093,-0.156043
49.252,67.5093,-0.156043
49.281,67.5091,-0.156043
49.313,67.5082,-0.153418
49.344,67.5065,-0.153418
49.374,67.5042,-0.153418
49.406,67.5010,-0.153418
49.437,67.4972,-0.153418
49.468,67.4926,-0.153418
49.499,67.4875,-0.153418
49.531,67.4812,-0.153418
49.561,67.4747,-0.060057
49.592,67.4670,-0.060057
49.623,67.4588,-0.060057
49.654,67.4499,-0.060057
49.685,67.4401,-0.060057
49.716,67.4299,-0.060057
49.748,67.4186,-0.060057
49.778,67.4065,-0.060057
49.812,67.3932,-0.060057
49.841,67.3807,-0.060057
49.872,67.3666,0.025455
49.903,67.3519,0.025455
49.934,67.3363,0.025455
49.965,67.3203,0.025455
49.996,67.3032,0.025455
50.026,67.2859,0.025455
50.057,67.2677,0.025455
50.087,67.2486,0.009787
50.119,67.2290,0.009787
50.150,67.2083,0.009787
50.181,67.1867,0.009787
50.213,67.1645,0.009787
50.244,67.1411,0.009787
50.275,67.1181,0.009787
50.306,67.0932,0.009787
50.337,67.0688,0.011565
50.369,67.0419,0.011565
50.398,67.0173,0.011565
50.428,66.9906,0.011565
50.460,66.9627,0.011565
50.491,66.9335,0.011565
50.522,66.9044,0.011565
50.553,66.8746,0.011565
50.584,66.8442,0.033699
50.615,66.8125,0.033699
50.647,66.7796,0.033699
50.677,66.7472,0.033699
50.708,66.7131,0.033699
50.739,66.6795,0.033699
50.770,66.6445,0.033699
50.800,66.6086,0.033699
50.831,66.5728,0.033699
50.862,66.5349,0.051832
50.893,66.4972,0.051832
50.924,66.4591,0.051832
50.955,66.4193,0.051832
50.986,66.3793,0.051832
51.017,66.3377,0.051832
51.048,66.2960,0.051832
51.080,66.2533,0.062033
51.110,66.2109,0.062033
51.142,66.1661,0.062033
51.172,66.1225,0.062033
51.203,66.0778,0.062033
51.233,66.0324,0.062033
51.264,65.9867,0.062033
51.295,65.9407,0.062033
51.326,65.8928,0.066409
51.357,65.8460,0.066409
51.388,65.7982,0.066409
51.419,65.7545,0.066409
51.450,65.7075,0.066409
51.481,65.6615,0.066409
51.512,65.6150,0.066409
51.542,65.5686,0.066409
51.574,65.5222,0.067934
51.604,65.4761,0.067934
51.636,65.4287,0.067934
51.668,65.3802,0.067934
51.697,65.3373,0.067934
51.728,65.2909,0.067934
51.759,65.2441,0.067934
51.794,65.1909,0.067934
51.821,65.1501,0.068141
51.852,65.1049,0.068141
51.886,65.0525,0.068141
51.914,65.0110,0.068141
51.945,64.9646,0.068141
51.977,64.9175,0.068141
52.007,64.8706,0.068141
52.038,64.8252,0.068141
52.070,64.7772,0.071218
52.099,64.7334,0.071218
52.133,64.6810,0.071218
52.161,64.6401,0.071218
52.192,64.5935,0.071218
52.224,64.5466,0.071218
52.255,64.5004,0.071218
52.287,64.4518,0.071218
52.317,64.4060,0.078577
52.348,64.3597,0.078577
52.379,64.3147,0.078577
52.409,64.2687,0.078577
52.441,64.2208,0.078577
52.472,64.1748,0.078577
52.503,64.1281,0.078577
52.534,64.0822,0.078577
52.564,64.0362,0.078577
52.594,63.9906,0.084844
52.627,63.9418,0.084844
52.655,63.8994,0.084844
52.686,63.8542,0.084844
52.721,63.8035,0.084844
52.749,63.7635,0.084844
52.782,63.7188,0.084844
52.811,63.6790,0.084844
52.842,63.6378,0.053780
52.872,63.5967,0.053780
52.903,63.5564,0.053780
52.934,63.5175,0.053780
52.964,63.4785,0.053780
52.996,63.4410,0.053780
53.027,63.4029,0.053780
53.057,63.3670,0.053780
53.091,63.3272,0.017823
53.120,63.2950,0.017823
53.151,63.2601,0.017823
53.182,63.2264,0.017823
53.217,63.1891,0.017823
53.245,63.1610,0.017823
53.275,63.1294,0.017823
53.306,63.0990,0.017823
53.337,63.0696,0.014276
53.367,63.0399,0.014276
53.398,63.0116,0.014276
53.429,62.9829,0.014276
53.462,62.9544,0.014276
53.491,62.9295,0.014276
53.522,62.9038,0.014276
53.552,62.8791,0.014276
53.584,62.8547,0.013306
53.615,62.8310,0.013306
53.645,62.8089,0.013306
53.676,62.7866,0.013306
53.710,62.7637,0.013306
53.739,62.7438,0.013306
53.771,62.7231,0.013306
53.802,62.7036,0.012808
53.836,62.6836,0.012808
53.864,62.6681,0.012808
53.895,62.6506,0.012808
53.926,62.6342,0.012808
53.956,62.6191,0.012808
53.987,62.6042,0.012808
54.018,62.5903,0.012808
54.049,62.5769,0.012808
54.079,62.5645,0.012469
54.111,62.5521,0.012469
54.142,62.5411,0.012469
54.173,62.5304,0.012469
54.204,62.5207,0.012469
54.235,62.5113,0.012469
54.266,62.5029,0.012469
54.297,62.4955,0.012262
54.328,62.4886,0.012262
54.359,62.4824,0.012262
54.390,62.4771,0.012262
54.421,62.4722,0.012262
54.451,62.4684,0.012262
54.482,62.4650,0.012262
54.513,62.4625,0.012262
54.544,62.4608,0.012262
54.575,62.4597,0.012074
54.605,62.4593,0.012074
54.636,62.4593,0.012074
54.668,62.4593,0.012074
54.699,62.4593,0.012074
54.730,62.4593,0.012074
54.761,62.4593,0.012074
54.792,62.4597,0.012074
54.824,62.4609,0.011970
54.854,62.4628,0.011970
54.885,62.4653,0.011970
54.916,62.4686,0.011970
54.947,62.4727,0.011970
54.978,62.4774,0.011970
55.009,62.4831,0.011970
55.040,62.4891,0.011970
55.071,62.4963,0.011725
55.102,62.5038,0.011725
55.133,62.5125,0.011725
55.164,62.5212,0.011725
55.195,62.5310,0.011725
55.226,62.5419,0.011725
55.258,62.5535,0.011725
55.289,62.5656,0.011725
55.319,62.5780,0.011499
55.351,62.5920,0.011499
55.381,62.6057,0.011499
55.412,62.6208,0.011499
55.444,62.6367,0.011499
55.475,62.6535,0.011499
55.506,62.6708,0.011499
55.537,62.6884,0.011499
55.568,62.7067,0.011330
55.599,62.7261,0.011330
55.630,62.7464,0.011330
55.662,62.7679,0.011330
55.694,62.7900,0.011330
55.724,62.8114,0.011330
55.755,62.8355,0.011330
55.786,62.8590,0.011330
55.818,62.8841,0.010991
55.849,62.9089,0.010991
55.879,62.9349,0.010991
55.910,62.9609,0.010991
55.943,62.9904,0.010991
55.972,63.0167,0.010991
56.004,63.0461,0.010991
56.034,63.0746,0.010991
56.066,63.1062,0.010991
56.097,63.1376,0.010558
56.129,63.1698,0.010558
56.161,63.2028,0.010558
56.191,63.2350,0.010558
56.219,63.2662,0.010558
56.253,63.3039,0.010558
56.284,63.3390,0.010558
56.314,63.3744,0.009928
56.345,63.4106,0.009928
56.376,63.4494,0.009928
56.408,63.4881,0.009928
56.439,63.5283,0.009928
56.471,63.5683,0.009928
56.501,63.6081,0.009928
56.533,63.6507,0.009928
56.564,63.6921,0.009928
56.594,63.7351,0.009119
56.627,63.7809,0.009119
56.657,63.8232,0.009119
56.688,63.8674,0.009119
56.722,63.9187,0.009119
56.750,63.9594,0.009119
56.781,64.0069,0.009119
56.812,64.0523,0.009119
56.846,64.1040,0.007952
56.873,64.1455,0.007952
56.905,64.1918,0.007952
56.936,64.2384,0.007952
56.967,64.2849,0.007952
56.999,64.3336,0.007952
57.029,64.3798,0.007952
57.061,64.4256,0.006521
57.091,64.4725,0.006521
57.122,64.5179,0.006521
57.153,64.5644,0.006521
57.184,64.6109,0.006521
57.215,64.6576,0.006521
57.247,64.7067,0.006521
57.278,64.7511,0.006521
57.310,64.7989,0.004733
57.340,64.8457,0.004733
57.371,64.8918,0.004733
57.401,64.9364,0.004733
57.433,64.9842,0.004733
57.465,65.0313,0.004733
57.496,65.0783,0.004733
57.528,65.1269,0.004733
57.559,65.1736,0.002108
57.589,65.2187,0.002108
57.620,65.2646,0.002108
57.651,65.3105,0.002108
57.681,65.3569,0.002108
57.716,65.4081,0.002108
57.743,65.4500,0.002108
57.774,65.4964,0.002108
57.805,65.5419,0.002108
57.836,65.5899,-0.001948
57.867,65.6354,-0.001948
57.898,65.6826,-0.001948
57.929,65.7275,-0.001948
57.960,65.7751,-0.001948
57.991,65.8202,-0.001948
58.022,65.8686,-0.001948
58.052,65.9135,-0.009081
58.083,65.9607,-0.009081
58.114,66.0058,-0.009081
58.145,66.0518,-0.009081
58.176,66.0949,-0.009081
58.206,66.1386,-0.009081
58.238,66.1837,-0.009081
58.270,66.2285,-0.009081
58.299,66.2678,-0.021889
58.331,66.3088,-0.021889
58.362,66.3509,-0.021889
58.392,66.3895,-0.021889
58.423,66.4278,-0.021889
58.453,66.4653,-0.021889
58.484,66.5024,-0.021889
58.518,66.5429,-0.021889
58.546,66.5760,-0.021889
58.577,66.6111,-0.021889
58.608,66.6455,-0.042573
58.639,66.6797,-0.042573
58.670,66.7136,-0.042573
58.702,66.7473,-0.042573
58.733,66.7789,-0.042573
58.765,66.8102,-0.042573
58.796,66.8409,-0.072008
58.827,66.8713,-0.072008
58.858,66.9004,-0.072008
58.889,66.9278,-0.072008
58.920,66.9553,-0.072008
58.951,66.9826,-0.072008
58.985,67.0105,-0.072008
59.013,67.0334,-0.072008
59.043,67.0572,-0.072008
59.074,67.0811,-0.072008
59.105,67.1041,-0.110412
59.136,67.1268,-0.110412
59.168,67.1485,-0.110412
59.200,67.1701,-0.110412
59.231,67.1901,-0.110412
59.261,67.2098,-0.110412
59.293,67.2281,-0.110412
59.323,67.2459,-0.169152
59.355,67.2635,-0.169152
59.385,67.2799,-0.169152
59.416,67.2957,-0.169152
59.447,67.3109,-0.169152
59.478,67.3251,-0.169152
59.508,67.3383,-0.169152
59.541,67.3519,-0.169152
59.572,67.3641,-0.169152
59.604,67.3759,-0.278002
59.635,67.3865,-0.278002
59.666,67.3966,-0.278002
59.697,67.4055,-0.278002
59.730,67.4146,-0.278002
59.759,67.4217,-0.278002
59.789,67.4286,-0.278002
59.820,67.4350,-0.434449
59.852,67.4407,-0.434449
59.884,67.4457,-0.434449
59.915,67.4498,-0.434449
59.947,67.4531,-0.434449
59.976,67.4557,-0.434449
60.008,67.4577,-0.434449
60.039,67.4588,-0.434449
60.070,67.4593,-0.556671
60.101,67.4593,-0.556671
60.132,67.4593,-0.556671
60.163,67.4593,-0.556671
60.193,67.4593,-0.556671
60.225,67.4593,-0.556671
60.256,67.4593,-0.556671
60.286,67.4593,-0.556671
60.316,67.4593,-0.556671
60.348,67.4593,-0.471423
60.380,67.4593,-0.471423
60.411,67.4593,-0.471423
60.442,67.4593,-0.471423
60.472,67.4593,-0.471423
60.504,67.4593,-0.471423
60.535,67.4593,-0.471423
60.566,67.4593,-0.301358
60.598,67.4593,-0.301358
60.628,67.4593,-0.301358
60.659,67.4593,-0.301358
60.690,67.4593,-0.301358
60.721,67.4593,-0.301358
60.752,67.4593,-0.301358
60.783,67.4593,-0.301358
60.813,67.4593,-0.301358
60.844,67.4593,-0.237904
60.876,67.4593,-0.237904
60.908,67.4593,-0.237904
60.938,67.4593,-0.237904
60.968,67.4593,-0.237904
60.999,67.4593,-0.237904
61.029,67.4593,-0.237904
61.060,67.4593,-0.237904
61.093,67.4593,-0.213907
61.123,67.4593,-0.213907
61.154,67.4593,-0.213907
61.185,67.4593,-0.213907
61.216,67.4593,-0.213907
61.246,67.4593,-0.213907
61.277,67.4593,-0.213907
61.307,67.4593,-0.213907
61.338,67.4593,-0.200676
61.369,67.4593,-0.200676
61.400,67.4593,-0.200676
61.432,67.4593,-0.200676
61.463,67.4593,-0.200676
61.495,67.4593,-0.200676
61.527,67.4593,-0.200676
61.558,67.4593,-0.191803
61.590,67.4593,-0.191803
61.620,67.4593,-0.191803
61.651,67.4593,-0.191803
61.682,67.4593,-0.191803
61.713,67.4593,-0.191803
61.744,67.4593,-0.191803
61.775,67.4593,-0.191803
61.808,67.4593,-0.185253
61.838,67.4593,-0.185253
61.869,67.4593,-0.185253
61.901,67.4593,-0.185253
61.931,67.4593,-0.185253
61.963,67.4593,-0.185253
61.995,67.4593,-0.185253
62.025,67.4593,-0.185253
62.057,67.4593,-0.185253
62.089,67.4593,-0.180143
62.120,67.4593,-0.180143
62.151,67.4593,-0.180143
62.182,67.4593,-0.180143
62.214,67.4593,-0.180143
62.244,67.4593,-0.180143
62.275,67.4593,-0.180143
62.306,67.4593,-0.175899
62.338,67.4593,-0.175899
62.369,67.4593,-0.175899
62.400,67.4593,-0.175899
62.431,67.4593,-0.175899
62.461,67.4593,-0.175899
62.491,67.4593,-0.175899
62.522,67.4593,-0.175899
62.554,67.4593,-0.175899
62.584,67.4593,-0.172229
62.615,67.4593,-0.172229
62.646,67.4593,-0.172229
62.677,67.4593,-0.172229
62.708,67.4593,-0.172229
62.739,67.4593,-0.172229
62.771,67.4593,-0.172229
62.801,67.4593,-0.169161
62.832,67.4593,-0.169161
62.863,67.4593,-0.169161
62.894,67.4593,-0.169161
62.925,67.4593,-0.169161
62.956,67.4593,-0.169161
62.987,67.4593,-0.169161
63.017,67.4593,-0.169161
63.050,67.4593,-0.169161
63.080,67.4593,-0.166526
63.111,67.4593,-0.166526
63.142,67.4593,-0.166526
63.172,67.4593,-0.166526
63.204,67.4593,-0.166526
63.234,67.4593,-0.166526
63.265,67.4593,-0.166526
63.296,67.4593,-0.166526
63.326,67.4593,-0.164183
63.357,67.4593,-0.164183
63.389,67.4593,-0.164183
63.420,67.4593,-0.164183
63.451,67.4593,-0.164183
63.482,67.4593,-0.164183
63.514,67.4593,-0.164183
63.545,67.4593,-0.164183
63.575,67.4593,-0.162037
63.606,67.4593,-0.162037
63.637,67.4593,-0.162037
63.668,67.4593,-0.162037
63.699,67.4593,-0.162037
63.730,67.4593,-0.162037
63.761,67.4593,-0.162037
63.792,67.4593,-0.162037
63.823,67.4593,-0.159873
63.855,67.4593,-0.159873
63.886,67.4593,-0.159873
63.917,67.4593,-0.159873
63.949,67.4593,-0.159873
63.978,67.4593,-0.159873
64.011,67.4593,-0.159873
64.041,67.4593,-0.159873
64.073,67.4593,-0.159873
64.103,67.4593,-0.157144
64.134,67.4593,-0.157144
64.165,67.4593,-0.157144
64.199,67.4593,-0.157144
64.227,67.4593,-0.157144
64.258,67.4593,-0.157144
64.289,67.4593,-0.157144
64.320,67.4593,-0.157144
64.351,67.4593,-0.153963
64.382,67.4588,-0.153963
64.413,67.4577,-0.153963
64.445,67.4557,-0.153963
64.475,67.4531,-0.153963
64.506,67.4498,-0.153963
64.536,67.4457,-0.153963
64.566,67.4412,-0.153963
64.596,67.4358,-0.145202
64.627,67.4296,-0.145202
64.659,67.4226,-0.145202
64.691,67.4146,-0.145202
64.721,67.4062,-0.145202
64.752,67.3973,-0.145202
64.784,67.3868,-0.145202
64.814,67.3768,-0.145202
64.845,67.3652,0.052246
64.875,67.3538,0.052246
64.907,67.3401,0.052246
64.937,67.3276,0.052246
64.968,67.3131,0.052246
64.999,67.2986,0.052246
65.030,67.2826,0.052246
65.060,67.2667,0.119917
65.092,67.2487,0.119917
65.124,67.2311,0.119917
65.153,67.2133,0.119917
65.184,67.1940,0.119917
65.215,67.1739,0.119917
65.247,67.1526,0.119917
65.277,67.1318,0.119917
65.309,67.1093,0.005929
65.340,67.0861,0.005929
65.371,67.0628,0.005929
65.402,67.0384,0.005929
65.432,67.0135,0.005929
65.464,66.9867,0.005929
65.495,66.9598,0.005929
65.529,66.9296,0.005929
65.558,66.9048,0.005929
65.589,66.8753,0.026424
65.620,66.8462,0.026424
65.650,66.8161,0.026424
65.682,66.7845,0.026424
65.713,66.7534,0.026424
65.744,66.7209,0.026424
65.777,66.6842,0.026424
65.806,66.6527,0.026424
65.838,66.6179,0.047259
65.869,66.5827,0.047259
65.902,66.5435,0.047259
65.931,66.5097,0.047259
65.962,66.4718,0.047259
65.994,66.4329,0.047259
66.024,66.3942,0.047259
66.057,66.3520,0.047259
66.086,66.3148,0.047259
66.118,66.2727,0.060612
66.149,66.2310,0.060612
66.180,66.1886,0.060612
66.209,66.1460,0.060612
66.240,66.1026,0.060612
66.271,66.0579,0.060612
66.302,66.0128,0.060612
66.333,65.9665,0.066673
66.365,65.9178,0.066673
66.396,65.8723,0.066673
66.427,65.8241,0.066673
66.459,65.7776,0.066673
66.490,65.7306,0.066673
66.520,65.6857,0.066673
66.551,65.6380,0.066673
66.583,65.5922,0.066673
66.614,65.5454,0.068752
66.645,65.4988,0.068752
66.675,65.4526,0.068752
66.706,65.4074,0.068752
66.739,65.3581,0.068752
66.768,65.3141,0.068752
66.798,65.2675,0.068752
66.830,65.2219,0.068771
66.860,65.1758,0.068771
66.891,65.1300,0.068771
66.922,65.0835,0.068771
66.952,65.0371,0.068771
66.983,64.9914,0.068771
67.014,64.9445,0.068771
67.045,64.8987,0.068771
67.077,64.8509,0.070710
67.108,64.8045,0.070710
67.139,64.7576,0.070710
67.171,64.7094,0.070710
67.200,64.6657,0.070710
67.231,64.6198,0.070710
67.262,64.5731,0.070710
67.293,64.5263,0.070710
67.325,64.4790,0.077043
67.357,64.4307,0.077043
67.387,64.3857,0.077043
67.417,64.3396,0.077043
67.448,64.2939,0.077043
67.479,64.2471,0.077043
67.510,64.2002,0.077043
67.541,64.1540,0.077043
67.572,64.1082,0.085249
67.602,64.0627,0.085249
67.632,64.0166,0.085249
67.663,63.9710,0.085249
67.695,63.9245,0.085249
67.724,63.8793,0.085249
67.756,63.8330,0.085249
67.787,63.7880,0.085249
67.818,63.7437,0.064809
67.848,63.7007,0.064809
67.879,63.6587,0.064809
67.909,63.6163,0.064809
67.940,63.5754,0.064809
67.972,63.5329,0.064809
68.003,63.4934,0.064809
68.036,63.4515,0.064809
68.066,63.4147,0.028156
68.097,63.3759,0.028156
68.127,63.3398,0.028156
68.158,63.3032,0.028156
68.190,63.2666,0.028156
68.224,63.2270,0.028156
68.252,63.1980,0.028156
68.282,63.1650,0.028156
68.313,63.1329,0.028156
68.344,63.1003,0.028156
68.375,63.0694,0.015132
68.405,63.0393,0.015132
68.436,63.0092,0.015132
68.467,62.9795,0.015132
68.498,62.9514,0.015132
68.531,62.9221,0.015132
68.561,62.8965,0.015132
68.591,62.8703,0.015132
68.623,62.8449,0.013730
68.653,62.8208,0.013730
68.683,62.7967,0.013730
68.715,62.7732,0.013730
68.748,62.7485,0.013730
68.776,62.7292,0.013730
68.808,62.7071,0.013730
68.839,62.6868,0.013015
68.871,62.6667,0.013015
68.901,62.6480,0.013015
68.932,62.6294,0.013015
68.964,62.6112,0.013015
68.998,62.5930,0.013015
69.025,62.5790,0.013015
69.059,62.5618,0.013015
69.089,62.5484,0.013015
69.121,62.5344,0.012723
69.152,62.5213,0.012723
69.182,62.5091,0.012723
69.214,62.4970,0.012723
69.244,62.4864,0.012723
69.275,62.4762,0.012723
69.306,62.4666,0.012723
69.337,62.4580,0.012723
69.369,62.4495,0.012469
69.399,62.4426,0.012469
69.430,62.4360,0.012469
69.461,62.4302,0.012469
69.492,62.4250,0.012469
69.522,62.4206,0.012469
69.554,62.4169,0.012469
69.584,62.4141,0.012196
69.615,62.4117,0.012196
69.646,62.4102,0.012196
69.677,62.4095,0.012196
69.708,62.4093,0.012196
69.739,62.4093,0.012196
69.771,62.4093,0.012196
69.803,62.4096,0.012074
69.833,62.4103,0.012074
69.864,62.4121,0.012074
69.895,62.4143,0.012074
69.926,62.4174,0.012074
69.956,62.4210,0.012074
69.988,62.4257,0.012074
70.018,62.4308,0.012074
70.050,62.4370,0.012074
70.080,62.4433,0.011810
70.111,62.4506,0.011810
70.141,62.4586,0.011810
70.172,62.4675,0.011810
70.204,62.4774,0.011810
70.234,62.4872,0.011810
70.264,62.4981,0.011810
70.295,62.5097,0.011810
70.326,62.5223,0.011584
70.357,62.5355,0.011584
70.389,62.5496,0.011584
70.420,62.5641,0.011584
70.451,62.5797,0.011584
70.482,62.5956,0.011584
70.512,62.6120,0.011584
70.543,62.6294,0.011584
70.573,62.6473,0.011584
70.604,62.6664,0.011358
70.636,62.6862,0.011358
70.666,62.7067,0.011358
70.698,62.7287,0.011358
70.730,62.7504,0.011358
70.761,62.7732,0.011358
70.792,62.7970,0.011358
70.828,62.8252,0.011358
70.869,62.8584,0.011029
70.899,62.8839,0.011029
70.932,62.9126,0.011029
70.961,62.9368,0.011029
70.991,62.9638,0.011029
71.022,62.9930,0.011029
71.052,63.0216,0.010624
71.083,63.0520,0.010624
71.113,63.0818,0.010624
71.145,63.1140,0.010624
71.176,63.1468,0.010624
71.207,63.1808,0.010624
71.238,63.2149,0.010624
71.270,63.2487,0.010624
71.301,63.2844,0.010624
71.332,63.3202,0.010031
71.363,63.3575,0.010031
71.394,63.3950,0.010031
71.426,63.4345,0.010031
71.456,63.4723,0.010031
71.487,63.5122,0.010031
71.518,63.5525,0.010031
71.549,63.5934,0.010031
71.579,63.6343,0.010031
71.610,63.6776,0.009297
71.642,63.7208,0.009297
71.673,63.7650,0.009297
71.704,63.8092,0.009297
71.734,63.8555,0.009297
71.765,63.9003,0.009297
71.796,63.9472,0.009297
71.828,63.9953,0.008187
71.858,64.0402,0.008187
71.889,64.0868,0.008187
71.922,64.1354,0.008187
71.952,64.1805,0.008187
71.983,64.2286,0.008187
72.014,64.2745,0.008187
72.046,64.3225,0.008187
72.076,64.3673,0.008187
72.109,64.4155,0.006757
72.139,64.4613,0.006757
72.171,64.5087,0.006757
72.201,64.5540,0.006757
72.231,64.6001,0.006757
72.263,64.6468,0.006757
72.295,64.6956,0.006757
72.326,64.7412,0.004978
72.356,64.7879,0.004978
72.386,64.8333,0.004978
72.417,64.8794,0.004978
72.449,64.9260,0.004978
72.479,64.9722,0.004978
72.511,65.0187,0.004978
72.542,65.0663,0.004978
72.573,65.1116,0.002428
72.603,65.1587,0.002428
72.634,65.2038,0.002428
72.666,65.2520,0.002428
72.697,65.2976,0.002428
72.728,65.3451,0.002428
72.758,65.3904,0.002428
72.790,65.4380,0.002428
72.820,65.4825,-0.001562
72.851,65.5299,-0.001562
72.882,65.5758,-0.001562
72.912,65.6214,-0.001562
72.943,65.6678,-0.001562
72.974,65.7139,-0.001562
73.006,65.7627,-0.001562
73.036,65.8076,-0.001562
73.067,65.8540,-0.008403
73.098,65.8994,-0.008403
73.128,65.9449,-0.008403
73.159,65.9910,-0.008403
73.190,66.0365,-0.008403
73.221,66.0798,-0.008403
73.252,66.1231,-0.008403
73.282,66.1656,-0.008403
73.313,66.2077,-0.008403
73.344,66.2491,-0.020675
73.375,66.2898,-0.020675
73.406,66.3296,-0.020675
73.438,66.3706,-0.020675
73.469,66.4085,-0.020675
73.500,66.4470,-0.020675
73.531,66.4844,-0.020675
73.562,66.5198,-0.020675
73.593,66.5558,-0.040681
73.624,66.5908,-0.040681
73.655,66.6249,-0.040681
73.686,66.6583,-0.040681
73.716,66.6895,-0.040681
73.748,66.7226,-0.040681
73.779,66.7534,-0.040681
73.811,66.7853,-0.040681
73.841,66.8142,-0.069317
73.873,66.8443,-0.069317
73.904,66.8722,-0.069317
73.935,66.9002,-0.069317
73.966,66.9270,-0.069317
73.998,66.9541,-0.069317
74.029,66.9794,-0.069317
74.062,67.0054,-0.069317
74.092,67.0282,-0.106902
74.127,67.0550,-0.106902
74.154,67.0745,-0.106902
74.186,67.0967,-0.106902
74.217,67.1173,-0.106902
74.249,67.1380,-0.106902
74.279,67.1573,-0.106902
74.310,67.1759,-0.162771
74.344,67.1959,-0.162771
74.372,67.2115,-0.162771
74.403,67.2286,-0.162771
74.434,67.2439,-0.162771
74.467,67.2606,-0.162771
74.495,67.2735,-0.162771
74.526,67.2868,-0.162771
74.557,67.2998,-0.266897
74.588,67.3119,-0.266897
74.618,67.3234,-0.266897
74.649,67.3342,-0.266897
74.680,67.3441,-0.266897
74.710,67.3533,-0.266897
74.743,67.3623,-0.266897
74.773,67.3703,-0.266897
74.804,67.3772,-0.266897
74.834,67.3838,-0.420974
74.865,67.3894,-0.420974
74.897,67.3946,-0.420974
74.929,67.3989,-0.420974
74.960,67.4024,-0.420974
74.991,67.4052,-0.420974
75.023,67.4074,-0.420974
75.052,67.4086,-0.554714
75.083,67.4093,-0.554714
75.115,67.4093,-0.554714
75.145,67.4093,-0.554714
75.176,67.4093,-0.554714
75.206,67.4093,-0.554714
75.237,67.4093,-0.554714
75.267,67.4093,-0.554714
75.299,67.4093,-0.554714
75.329,67.4093,-0.554714
75.360,67.4093,-0.483816
75.391,67.4093,-0.483816
75.422,67.4093,-0.483816
75.453,67.4093,-0.483816
75.483,67.4093,-0.483816
75.514,67.4093,-0.483816
75.545,67.4093,-0.483816
75.575,67.4093,-0.310355
75.606,67.4093,-0.310355
75.639,67.4093,-0.310355
75.669,67.4093,-0.310355
75.700,67.4093,-0.310355
75.731,67.4093,-0.310355
75.763,67.4093,-0.310355
75.788,67.4093,-0.310355
75.826,67.4093,-0.310355
75.857,67.4093,-0.239701
75.889,67.4093,-0.239701
75.920,67.4093,-0.239701
75.950,67.4093,-0.239701
75.982,67.4093,-0.239701
76.013,67.4093,-0.239701
76.044,67.4093,-0.239701
76.075,67.4093,-0.239701
76.106,67.4093,-0.214190
76.138,67.4093,-0.214190
76.168,67.4093,-0.214190
76.200,67.4093,-0.214190
76.232,67.4093,-0.214190
76.262,67.4093,-0.214190
76.293,67.4093,-0.214190
76.324,67.4093,-0.200517
76.355,67.4093,-0.200517
76.386,67.4093,-0.200517
76.417,67.4093,-0.200517
76.447,67.4093,-0.200517
76.478,67.4093,-0.200517
76.509,67.4093,-0.200517
76.540,67.4093,-0.200517
76.570,67.4093,-0.200517
76.601,67.4093,-0.191492
76.632,67.4093,-0.191492
76.662,67.4093,-0.191492
76.692,67.4093,-0.191492
76.724,67.4093,-0.191492
76.754,67.4093,-0.191492
76.787,67.4093,-0.191492
76.816,67.4093,-0.191492
76.847,67.4093,-0.184924
76.877,67.4093,-0.184924
76.908,67.4093,-0.184924
76.938,67.4093,-0.184924
76.969,67.4093,-0.184924
77.001,67.4093,-0.184924
77.032,67.4093,-0.184924
77.063,67.4093,-0.184924
77.094,67.4093,-0.179729
77.125,67.4093,-0.179729
77.156,67.4093,-0.179729
77.187,67.4093,-0.179729
77.218,67.4093,-0.179729
77.249,67.4093,-0.179729
77.280,67.4093,-0.179729
77.312,67.4093,-0.175353
77.343,67.4093,-0.175353
77.374,67.4093,-0.175353
77.405,67.4093,-0.175353
77.435,67.4093,-0.175353
77.466,67.4093,-0.175353
77.497,67.4093,-0.175353
77.529,67.4093,-0.175353
77.559,67.4093,-0.175353
77.590,67.4093,-0.171805
77.621,67.4093,-0.171805
77.653,67.4093,-0.171805
77.685,67.4093,-0.171805
77.715,67.4093,-0.171805
77.745,67.4093,-0.171805
77.776,67.4093,-0.171805
77.807,67.4093,-0.168681
77.839,67.4093,-0.168681
77.869,67.4093,-0.168681
77.900,67.4093,-0.168681
77.930,67.4093,-0.168681
77.962,67.4093,-0.168681
77.992,67.4093,-0.168681
78.025,67.4093,-0.168681
78.054,67.4093,-0.166027
78.085,67.4093,-0.166027
78.116,67.4093,-0.166027
78.148,67.4093,-0.166027
78.178,67.4093,-0.166027
78.209,67.4093,-0.166027
78.239,67.4093,-0.166027
78.270,67.4093,-0.166027
78.301,67.4093,-0.163750
78.332,67.4093,-0.163750
78.362,67.4093,-0.163750
78.392,67.4093,-0.163750
78.423,67.4093,-0.163750
78.454,67.4093,-0.163750
78.484,67.4093,-0.163750
78.516,67.4093,-0.163750
78.547,67.4093,-0.163750
78.579,67.4093,-0.161595
78.610,67.4093,-0.161595
78.640,67.4093,-0.161595
78.671,67.4093,-0.161595
78.703,67.4093,-0.161595
78.734,67.4093,-0.161595
78.765,67.4093,-0.161595
78.796,67.4093,-0.161595
78.827,67.4093,-0.159534
78.859,67.4093,-0.159534
78.890,67.4093,-0.159534
78.921,67.4093,-0.159534
78.953,67.4093,-0.159534
78.983,67.4093,-0.159534
79.015,67.4093,-0.159534
79.046,67.4093,-0.159534
79.076,67.4093,-0.159534
79.107,67.4093,-0.156956
79.138,67.4093,-0.156956
79.168,67.4093,-0.156956
79.199,67.4093,-0.156956
79.230,67.4093,-0.156956
79.261,67.4093,-0.156956
79.292,67.4093,-0.156956
79.324,67.4093,-0.154029
79.354,67.4092,-0.154029
79.384,67.4086,-0.154029
79.415,67.4072,-0.154029
79.446,67.4051,-0.154029
79.477,67.4023,-0.154029
79.508,67.3987,-0.154029
79.540,67.3943,-0.154029
79.571,67.3891,-0.154029
79.601,67.3835,-0.143894
79.633,67.3768,-0.143894
79.665,67.3695,-0.143894
79.696,67.3615,-0.143894
79.726,67.3529,-0.143894
79.757,67.3436,-0.143894
79.788,67.3333,-0.143894
79.819,67.3227,-0.143894
79.850,67.3109,0.033868
79.880,67.2990,0.033868
79.911,67.2863,0.033868
79.942,67.2723,0.033868
79.973,67.2577,0.033868
80.004,67.2423,0.033868
80.035,67.2263,0.033868
80.067,67.2095,0.100174
80.098,67.1922,0.100174
80.129,67.1738,0.100174
80.160,67.1553,0.100174
80.191,67.1356,0.100174
80.222,67.1149,0.100174
80.253,67.0944,0.100174
80.283,67.0727,0.100174
80.314,67.0502,0.100174
80.345,67.0269,0.006117
80.375,67.0045,0.006117
80.406,66.9792,0.006117
80.439,66.9521,0.006117
80.468,66.9276,0.006117
80.499,66.9011,0.006117
80.532,66.8717,0.006117
80.560,66.8468,0.006117
80.590,66.8174,0.026481
80.622,66.7881,0.026481
80.653,66.7569,0.026481
80.684,66.7260,0.026481
80.716,66.6929,0.026481
80.746,66.6619,0.026481
80.776,66.6289,0.026481
80.807,66.5954,0.046873
80.838,66.5603,0.046873
80.870,66.5237,0.046873
80.902,66.4871,0.046873
80.933,66.4496,0.046873
80.965,66.4110,0.046873
80.996,66.3724,0.046873
81.027,66.3332,0.046873
81.058,66.2938,0.059944
81.088,66.2531,0.059944
81.119,66.2119,0.059944
81.152,66.1671,0.059944
81.182,66.1262,0.059944
81.214,66.0801,0.059944
81.244,66.0386,0.059944
81.275,65.9927,0.059944
81.306,65.9471,0.066117
81.337,65.9001,0.066117
81.367,65.8556,0.066117
81.399,65.8081,0.066117
81.430,65.7618,0.066117
81.461,65.7148,0.066117
81.492,65.6677,0.066117
81.523,65.6218,0.066117
81.554,65.5745,0.066117
81.585,65.5284,0.068442
81.617,65.4803,0.068442
81.648,65.4349,0.068442
81.680,65.3868,0.068442
81.711,65.3403,0.068442
81.741,65.2935,0.068442
81.771,65.2494,0.068442
81.802,65.2018,0.068442
81.834,65.1555,0.068461
81.866,65.1070,0.068461
81.896,65.0621,0.068461
81.928,65.0117,0.068461
81.959,64.9684,0.068461
81.990,64.9206,0.068461
82.021,64.8754,0.068461
82.053,64.8277,0.070427
82.083,64.7812,0.070427
82.114,64.7353,0.070427
82.145,64.6873,0.070427
82.176,64.6428,0.070427
82.207,64.5946,0.070427
82.238,64.5490,0.070427
82.269,64.5016,0.070427
82.299,64.4570,0.070427
82.331,64.4093,0.076892
82.362,64.3622,0.076892
82.397,64.3104,0.076892
82.425,64.2697,0.076892
82.455,64.2224,0.076892
82.486,64.1767,0.076892
82.517,64.1299,0.076892
82.549,64.0822,0.076892
82.580,64.0364,0.084966
82.611,63.9894,0.084966
82.643,63.9419,0.084966
82.673,63.8959,0.084966
82.704,63.8495,0.084966
82.735,63.8044,0.084966
82.766,63.7571,0.084966
82.798,63.7129,0.084966
82.829,63.6682,0.062476
82.860,63.6250,0.062476
82.891,63.5821,0.062476
82.922,63.5406,0.062476
82.953,63.4983,0.062476
82.984,63.4588,0.062476
83.016,63.4180,0.062476
83.047,63.3799,0.062476
83.079,63.3401,0.025944
83.109,63.3040,0.025944
83.139,63.2680,0.025944
83.170,63.2320,0.025944
83.202,63.1961,0.025944
83.233,63.1614,0.025944
83.265,63.1272,0.025944
83.295,63.0938,0.015028
83.327,63.0615,0.015028
83.358,63.0297,0.015028
83.389,62.9981,0.015028
83.421,62.9678,0.015028
83.451,62.9390,0.015028
83.482,62.9108,0.015028
83.513,62.8826,0.015028
83.544,62.8553,0.015028
83.574,62.8294,0.015028
83.605,62.8037,0.013645
83.636,62.7788,0.013645
83.667,62.7547,0.013645
83.697,62.7314,0.013645
83.728,62.7090,0.013645
83.758,62.6872,0.013645
83.789,62.6659,0.013645
83.820,62.6450,0.013645
83.851,62.6251,0.013062
83.882,62.6055,0.013062
83.912,62.5876,0.013062
83.944,62.5692,0.013062
83.973,62.5530,0.013062
84.004,62.5370,0.013062
84.034,62.5216,0.013062
84.065,62.5066,0.013062
84.096,62.4926,0.012732
84.131,62.4772,0.012732
84.172,62.4602,0.012732
84.203,62.4487,0.012732
84.234,62.4375,0.012732
84.264,62.4277,0.012732
84.295,62.4181,0.012732
84.328,62.4085,0.012732
84.356,62.4012,0.012732
84.387,62.3938,0.012469
84.418,62.3870,0.012469
84.449,62.3811,0.012469
84.480,62.3757,0.012469
84.511,62.3713,0.012469
84.542,62.3674,0.012469
84.572,62.3644,0.012243
84.603,62.3621,0.012243
84.634,62.3605,0.012243
84.665,62.3596,0.012243
84.697,62.3594,0.012243
84.728,62.3594,0.012243
84.759,62.3594,0.012243
84.790,62.3594,0.012243
84.821,62.3594,0.012074
84.852,62.3597,0.012074
84.883,62.3608,0.012074
84.914,62.3628,0.012074
84.945,62.3653,0.012074
84.976,62.3687,0.012074
85.006,62.3725,0.012074
85.037,62.3773,0.012074
85.069,62.3829,0.011914
85.100,62.3891,0.011914
85.130,62.3961,0.011914
85.162,62.4039,0.011914
85.193,62.4123,0.011914
85.224,62.4215,0.011914
85.255,62.4313,0.011914
85.286,62.4416,0.011914
85.317,62.4531,0.011669
85.349,62.4658,0.011669
85.380,62.4784,0.011669
85.411,62.4928,0.011669
85.441,62.5057,0.011669
85.473,62.5210,0.011669
85.504,62.5367,0.011669
85.538,62.5553,0.011669
85.565,62.5703,0.011669
85.597,62.5882,0.011387
85.629,62.6077,0.011387
85.660,62.6265,0.011387
85.691,62.6471,0.011387
85.721,62.6674,0.011387
85.753,62.6894,0.011387
85.783,62.7108,0.011387
85.814,62.7347,0.011132
85.846,62.7583,0.011132
85.879,62.7845,0.011132
85.908,62.8076,0.011132
85.938,62.8337,0.011132
85.972,62.8620,0.011132
86.001,62.8874,0.011132
86.032,62.9171,0.011132
86.063,62.9446,0.010756
86.097,62.9775,0.010756
86.123,63.0030,0.010756
86.156,63.0360,0.010756
86.186,63.0673,0.010756
86.218,63.1008,0.010756
86.249,63.1325,0.010756
86.281,63.1676,0.010756
86.311,63.2009,0.010229
86.342,63.2373,0.010229
86.373,63.2732,0.010229
86.405,63.3117,0.010229
86.436,63.3484,0.010229
86.466,63.3876,0.010229
86.498,63.4258,0.010229
86.529,63.4658,0.010229
86.561,63.5067,0.010229
86.590,63.5471,0.009429
86.621,63.5887,0.009429
86.652,63.6326,0.009429
86.684,63.6749,0.009429
86.717,63.7247,0.009429
86.746,63.7642,0.009429
86.776,63.8097,0.009429
86.808,63.8563,0.008291
86.842,63.9069,0.008291
86.871,63.9508,0.008291
86.901,63.9962,0.008291
86.932,64.0435,0.008291
86.966,64.0935,0.008291
86.991,64.1329,0.008291
87.026,64.1829,0.008291
87.056,64.2285,0.008291
87.086,64.2740,0.006945
87.118,64.3213,0.006945
87.151,64.3703,0.006945
87.179,64.4134,0.006945
87.210,64.4593,0.006945
87.241,64.5060,0.006945
87.272,64.5526,0.006945
87.303,64.5996,0.005298
87.335,64.6468,0.005298
87.364,64.6906,0.005298
87.399,64.7427,0.005298
87.427,64.7844,0.005298
87.458,64.8311,0.005298
87.489,64.8784,0.005298
87.520,64.9233,0.005298
87.550,64.9702,0.005298
87.582,65.0183,0.002945
87.612,65.0636,0.002945
87.644,65.1104,0.002945
87.675,65.1571,0.002945
87.706,65.2032,0.002945
87.737,65.2498,0.002945
87.766,65.2936,0.002945
87.797,65.3399,-0.000715
87.830,65.3895,-0.000715
87.860,65.4351,-0.000715
87.892,65.4833,-0.000715
87.923,65.5290,-0.000715
87.955,65.5771,-0.000715
87.985,65.6224,-0.000715
88.016,65.6676,-0.000715
88.048,65.7158,-0.000715
88.081,65.7670,-0.006851
88.110,65.8091,-0.006851
88.140,65.8542,-0.006851
88.171,65.9013,-0.006851
88.201,65.9452,-0.006851
88.232,65.9919,-0.006851
88.263,66.0334,-0.006851
88.294,66.0787,-0.006851
88.325,66.1206,-0.018096
88.356,66.1634,-0.018096
88.387,66.2032,-0.018096
88.419,66.2460,-0.018096
88.450,66.2856,-0.018096
88.481,66.3245,-0.018096
88.512,66.3635,-0.018096
88.542,66.4000,-0.018096
88.574,66.4380,-0.036898
88.605,66.4754,-0.036898
88.636,66.5099,-0.036898
88.668,66.5458,-0.036898
88.699,66.5796,-0.036898
88.729,66.6125,-0.036898
88.760,66.6447,-0.036898
88.793,66.6782,-0.036898
88.822,66.7077,-0.036898
88.854,66.7392,-0.064188
88.885,66.7689,-0.064188
88.916,66.7980,-0.064188
88.948,66.8269,-0.064188
88.977,66.8527,-0.064188
89.008,66.8798,-0.064188
89.040,66.9059,-0.064188
89.072,66.9327,-0.100277
89.101,66.9552,-0.100277
89.132,66.9795,-0.100277
89.164,67.0029,-0.100277
89.196,67.0266,-0.100277
89.226,67.0468,-0.100277
89.257,67.0682,-0.100277
89.288,67.0880,-0.100277
89.319,67.1078,-0.100277
89.350,67.1266,-0.151912
89.381,67.1448,-0.151912
89.413,67.1625,-0.151912
89.443,67.1783,-0.151912
89.477,67.1960,-0.151912
89.506,67.2099,-0.151912
89.537,67.2245,-0.151912
89.568,67.2377,-0.247296
89.599,67.2508,-0.247296
89.630,67.2630,-0.247296
89.662,67.2749,-0.247296
89.691,67.2853,-0.247296
89.722,67.2952,-0.247296
89.754,67.3045,-0.247296
89.783,67.3127,-0.247296
89.814,67.3208,-0.247296
89.845,67.3277,-0.395368
89.876,67.3343,-0.395368
89.907,67.3399,-0.395368
89.938,67.3450,-0.395368
89.969,67.3491,-0.395368
90.000,67.3525,-0.395368
90.032,67.3554,-0.395368
90.063,67.3575,-0.541954
90.094,67.3587,-0.541954
90.124,67.3594,-0.541954
90.154,67.3594,-0.541954
90.185,67.3594,-0.541954
90.216,67.3594,-0.541954
90.247,67.3594,-0.541954
