Elapsed Time (s),Position (mm),Force (N)
-0.011,69.4093,-0.330352
0.021,69.4093,-0.330352
0.052,69.4093,-0.330352
0.083,69.4093,-0.330352
0.115,69.4093,-0.330352
0.145,69.4093,-0.330352
0.176,69.4093,-0.330352
0.209,69.4093,-0.330352
0.239,69.4093,-0.226254
0.271,69.4093,-0.226254
0.301,69.4093,-0.226254
0.332,69.4093,-0.226254
0.363,69.4093,-0.226254
0.395,69.4093,-0.226254
0.426,69.4093,-0.226254
0.456,69.4093,-0.226254
0.487,69.4093,-0.176746
0.519,69.4093,-0.176746
0.550,69.4093,-0.176746
0.581,69.4093,-0.176746
0.612,69.4093,-0.176746
0.644,69.4093,-0.176746
0.675,69.4093,-0.176746
0.706,69.4093,-0.176746
0.736,69.4093,-0.160541
0.768,69.4093,-0.160541
0.799,69.4093,-0.160541
0.834,69.4093,-0.160541
0.862,69.4093,-0.160541
0.893,69.4093,-0.160541
0.924,69.4093,-0.160541
0.956,69.4093,-0.160541
0.987,69.4093,-0.152204
1.018,69.4093,-0.152204
1.049,69.4093,-0.152204
1.080,69.4093,-0.152204
1.111,69.4093,-0.152204
1.142,69.4093,-0.152204
1.173,69.4093,-0.152204
1.205,69.4093,-0.152204
1.235,69.4093,-0.145569
1.266,69.4093,-0.145569
1.298,69.4093,-0.145569
1.330,69.4093,-0.145569
1.360,69.4093,-0.145569
1.391,69.4093,-0.145569
1.421,69.4093,-0.145569
1.453,69.4093,-0.145569
1.484,69.4093,-0.140356
1.515,69.4093,-0.140356
1.546,69.4093,-0.140356
1.577,69.4093,-0.140356
1.608,69.4093,-0.140356
1.639,69.4093,-0.140356
1.670,69.4093,-0.140356
1.702,69.4093,-0.136836
1.733,69.4093,-0.136836
1.764,69.4093,-0.136836
1.795,69.4093,-0.136836
1.825,69.4093,-0.136836
1.857,69.4093,-0.136836
1.888,69.4093,-0.136836
1.919,69.4093,-0.136836
1.950,69.4093,-0.133994
1.981,69.4093,-0.133994
2.013,69.4093,-0.133994
2.045,69.4093,-0.133994
2.076,69.4093,-0.133994
2.108,69.4093,-0.133994
2.139,69.4093,-0.133994
2.167,69.4093,-0.133994
2.202,69.4093,-0.130767
2.232,69.4093,-0.130767
2.264,69.4093,-0.130767
2.294,69.4093,-0.130767
2.324,69.4093,-0.130767
2.355,69.4093,-0.130767
2.386,69.4093,-0.130767
2.417,69.4093,-0.130767
2.449,69.4093,-0.130767
2.479,69.4093,-0.128499
2.511,69.4093,-0.128499
2.542,69.4093,-0.128499
2.573,69.4093,-0.128499
2.603,69.4093,-0.128499
2.634,69.4093,-0.128499
2.665,69.4093,-0.128499
2.695,69.4093,-0.128499
2.726,69.4093,-0.126410
2.758,69.4093,-0.126410
2.789,69.4093,-0.126410
2.822,69.4093,-0.126410
2.851,69.4093,-0.126410
2.883,69.4093,-0.126410
2.913,69.4093,-0.126410
2.944,69.4093,-0.126410
2.976,69.4093,-0.124462
3.007,69.4093,-0.124462
3.038,69.4093,-0.124462
3.070,69.4093,-0.124462
3.101,69.4093,-0.124462
3.132,69.4093,-0.124462
3.162,69.4093,-0.124462
3.194,69.4093,-0.124462
3.222,69.4093,-0.123088
3.256,69.4093,-0.123088
3.288,69.4093,-0.123088
3.319,69.4093,-0.123088
3.349,69.4093,-0.123088
3.380,69.4093,-0.123088
3.412,69.4093,-0.123088
3.443,69.4093,-0.121159
3.475,69.4093,-0.121159
3.506,69.4093,-0.121159
3.535,69.4093,-0.121159
3.567,69.4093,-0.121159
3.598,69.4093,-0.121159
3.629,69.4093,-0.121159
3.660,69.4093,-0.121159
3.691,69.4093,-0.121159
3.722,69.4093,-0.119644
3.754,69.4093,-0.119644
3.785,69.4093,-0.119644
3.817,69.4093,-0.119644
3.847,69.4093,-0.119644
3.879,69.4093,-0.119644
3.910,69.4093,-0.119644
3.940,69.4093,-0.119644
3.971,69.4093,-0.117479
4.002,69.4093,-0.117479
4.033,69.4093,-0.117479
4.064,69.4093,-0.117479
4.096,69.4092,-0.117479
4.127,69.4085,-0.117479
4.158,69.4070,-0.117479
4.189,69.4046,-0.115983
4.220,69.4018,-0.115983
4.251,69.3981,-0.115983
4.282,69.3937,-0.115983
4.313,69.3885,-0.115983
4.344,69.3826,-0.115983
4.376,69.3760,-0.115983
4.406,69.3688,-0.115983
4.437,69.3609,-0.115983
4.468,69.3518,-0.115983
4.499,69.3425,0.037246
4.530,69.3320,0.037246
4.561,69.3210,0.037246
4.592,69.3095,0.037246
4.624,69.2966,0.037246
4.655,69.2836,0.037246
4.686,69.2697,0.037246
4.718,69.2546,0.037246
4.748,69.2396,0.088307
4.779,69.2234,0.088307
4.810,69.2068,0.088307
4.841,69.1887,0.088307
4.873,69.1707,0.088307
4.904,69.1511,0.088307
4.935,69.1320,0.088307
4.966,69.1113,0.088307
4.997,69.0901,-0.006098
5.028,69.0678,-0.006098
5.059,69.0450,-0.006098
5.091,69.0216,-0.006098
5.122,68.9973,-0.006098
5.153,68.9723,-0.006098
5.184,68.9466,-0.006098
5.215,68.9201,-0.006098
5.246,68.8937,0.012356
5.277,68.8659,0.012356
5.308,68.8372,0.012356
5.339,68.8078,0.012356
5.370,68.7778,0.012356
5.400,68.7472,0.012356
5.432,68.7164,0.012356
5.462,68.6841,0.032692
5.498,68.6467,0.032692
5.524,68.6180,0.032692
5.555,68.5840,0.032692
5.587,68.5478,0.032692
5.617,68.5133,0.032692
5.649,68.4748,0.032692
5.680,68.4376,0.032692
5.711,68.4004,0.046779
5.742,68.3622,0.046779
5.773,68.3225,0.046779
5.805,68.2811,0.046779
5.835,68.2418,0.046779
5.866,68.2002,0.046779
5.897,68.1584,0.046779
5.928,68.1152,0.046779
5.958,68.0721,0.046779
5.989,68.0269,0.054336
6.020,67.9821,0.054336
6.051,67.9366,0.054336
6.081,67.8914,0.054336
6.113,67.8448,0.054336
6.143,67.7985,0.054336
6.174,67.7518,0.054336
6.206,67.7039,0.058561
6.237,67.6571,0.058561
6.267,67.6116,0.058561
6.298,67.5664,0.058561
6.329,67.5201,0.058561
6.359,67.4735,0.058561
6.390,67.4278,0.058561
6.421,67.3811,0.058561
6.451,67.3364,0.058561
6.482,67.2902,0.060895
6.513,67.2438,0.060895
6.544,67.1970,0.060895
6.574,67.1527,0.060895
6.607,67.1025,0.060895
6.636,67.0581,0.060895
6.666,67.0136,0.060895
6.697,66.9672,0.060716
6.728,66.9212,0.060716
6.759,66.8744,0.060716
6.790,66.8269,0.060716
6.821,66.7808,0.060716
6.853,66.7337,0.060716
6.883,66.6884,0.060716
6.915,66.6394,0.060716
6.947,66.5925,0.060716
6.978,66.5455,0.061506
7.010,66.4989,0.061506
7.041,66.4524,0.061506
7.071,66.4066,0.061506
7.103,66.3592,0.061506
7.133,66.3141,0.061506
7.164,66.2681,0.061506
7.194,66.2231,0.064819
7.226,66.1748,0.064819
7.256,66.1286,0.064819
7.287,66.0820,0.064819
7.318,66.0364,0.064819
7.349,65.9904,0.064819
7.379,65.9447,0.064819
7.410,65.8975,0.064819
7.441,65.8519,0.064819
7.472,65.8051,0.064819
7.503,65.7608,0.042422
7.533,65.7162,0.042422
7.565,65.6719,0.042422
7.596,65.6271,0.042422
7.627,65.5855,0.042422
7.658,65.5427,0.042422
7.689,65.5022,0.042422
7.720,65.4622,0.042422
7.751,65.4225,0.015433
7.782,65.3829,0.015433
7.813,65.3455,0.015433
7.843,65.3076,0.015433
7.875,65.2709,0.015433
7.906,65.2335,0.015433
7.937,65.1989,0.015433
7.968,65.1646,0.015433
7.999,65.1307,0.015433
8.029,65.0979,0.011876
8.060,65.0639,0.011876
8.092,65.0333,0.011876
8.123,65.0020,0.011876
8.154,64.9723,0.011876
8.185,64.9423,0.011876
8.216,64.9136,0.011876
8.247,64.8858,0.011198
8.278,64.8592,0.011198
8.309,64.8324,0.011198
8.339,64.8068,0.011198
8.371,64.7812,0.011198
8.402,64.7562,0.011198
8.433,64.7332,0.011198
8.464,64.7105,0.011198
8.494,64.6884,0.010869
8.526,64.6664,0.010869
8.557,64.6456,0.010869
8.588,64.6258,0.010869
8.621,64.6054,0.010869
8.652,64.5868,0.010869
8.682,64.5692,0.010869
8.713,64.5520,0.010869
8.744,64.5357,0.010558
8.775,64.5201,0.010558
8.806,64.5052,0.010558
8.837,64.4907,0.010558
8.868,64.4773,0.010558
8.899,64.4649,0.010558
8.931,64.4526,0.010558
8.963,64.4408,0.010558
8.994,64.4304,0.010389
9.026,64.4201,0.010389
9.056,64.4112,0.010389
9.088,64.4028,0.010389
9.119,64.3952,0.010389
9.150,64.3885,0.010389
9.180,64.3822,0.010389
9.211,64.3770,0.010389
9.242,64.3723,0.010201
9.274,64.3682,0.010201
9.305,64.3649,0.010201
9.336,64.3625,0.010201
9.366,64.3607,0.010201
9.397,64.3597,0.010201
9.429,64.3594,0.010201
9.459,64.3594,0.010201
9.490,64.3594,0.010013
9.521,64.3594,0.010013
9.552,64.3594,0.010013
9.582,64.3597,0.010013
9.613,64.3608,0.010013
9.643,64.3627,0.010013
9.674,64.3653,0.010013
9.706,64.3685,0.010013
9.737,64.3726,0.009937
9.767,64.3772,0.009937
9.798,64.3827,0.009937
9.829,64.3888,0.009937
9.859,64.3956,0.009937
9.891,64.4035,0.009937
9.922,64.4117,0.009937
9.953,64.4210,0.009937
9.984,64.4307,0.009815
10.014,64.4413,0.009815
10.046,64.4527,0.009815
10.077,64.4645,0.009815
10.108,64.4774,0.009815
10.139,64.4908,0.009815
10.169,64.5050,0.009815
10.202,64.5203,0.009815
10.232,64.5356,0.009552
10.263,64.5521,0.009552
10.294,64.5693,0.009552
10.326,64.5877,0.009552
10.357,64.6060,0.009552
10.388,64.6255,0.009552
10.420,64.6460,0.009552
10.452,64.6678,0.009552
10.482,64.6883,0.009326
10.513,64.7107,0.009326
10.543,64.7330,0.009326
10.574,64.7569,0.009326
10.605,64.7809,0.009326
10.636,64.8060,0.009326
10.668,64.8323,0.009326
10.700,64.8598,0.009326
10.730,64.8870,0.009090
10.762,64.9152,0.009090
10.793,64.9446,0.009090
10.824,64.9735,0.009090
10.855,65.0045,0.009090
10.886,65.0355,0.009090
10.918,65.0682,0.009090
10.948,65.1003,0.009090
10.979,65.1338,0.008723
11.010,65.1668,0.008723
11.041,65.2025,0.008723
11.073,65.2369,0.008723
11.103,65.2739,0.008723
11.135,65.3105,0.008723
11.166,65.3478,0.008723
11.197,65.3865,0.008121
11.227,65.4248,0.008121
11.259,65.4656,0.008121
11.290,65.5062,0.008121
11.321,65.5464,0.008121
11.351,65.5877,0.008121
11.383,65.6308,0.008121
11.414,65.6759,0.008121
11.444,65.7179,0.008121
11.475,65.7639,0.007519
11.505,65.8072,0.007519
11.536,65.8536,0.007519
11.567,65.8995,0.007519
11.599,65.9488,0.007519
11.632,65.9968,0.007519
11.663,66.0442,0.007519
11.695,66.0927,0.007519
11.725,66.1371,0.006700
11.757,66.1845,0.006700
11.787,66.2296,0.006700
11.820,66.2789,0.006700
11.850,66.3238,0.006700
11.881,66.3718,0.006700
11.914,66.4185,0.006700
11.944,66.4653,0.006700
11.975,66.5112,0.005571
12.006,66.5588,0.005571
12.037,66.6053,0.005571
12.068,66.6506,0.005571
12.099,66.6983,0.005571
12.130,66.7433,0.005571
12.160,66.7900,0.005571
12.192,66.8367,0.005571
12.223,66.8834,0.004244
12.254,66.9300,0.004244
12.285,66.9777,0.004244
12.316,67.0230,0.004244
12.347,67.0695,0.004244
12.378,67.1158,0.004244
12.409,67.1625,0.004244
12.441,67.2110,0.004244
12.472,67.2564,0.002306
12.504,67.3043,0.002306
12.533,67.3488,0.002306
12.565,67.3958,0.002306
12.595,67.4411,0.002306
12.626,67.4888,0.002306
12.658,67.5354,0.002306
12.689,67.5824,0.002306
12.720,67.6299,-0.001120
12.758,67.6854,-0.001120
12.798,67.7469,-0.001120
12.830,67.7933,-0.001120
12.860,67.8398,-0.001120
12.891,67.8853,-0.001120
12.923,67.9328,-0.001120
12.954,67.9770,-0.007688
12.989,68.0276,-0.007688
13.016,68.0659,-0.007688
13.048,68.1106,-0.007688
13.079,68.1526,-0.007688
13.110,68.1945,-0.007688
13.141,68.2346,-0.007688
13.173,68.2768,-0.007688
13.203,68.3145,-0.019480
13.233,68.3527,-0.019480
13.265,68.3902,-0.019480
13.296,68.4273,-0.019480
13.327,68.4648,-0.019480
13.364,68.5068,-0.019480
13.404,68.5517,-0.019480
13.435,68.5856,-0.019480
13.466,68.6187,-0.038178
13.497,68.6521,-0.038178
13.528,68.6832,-0.038178
13.559,68.7149,-0.038178
13.588,68.7428,-0.038178
13.619,68.7730,-0.038178
13.650,68.8016,-0.038178
13.682,68.8299,-0.038178
13.713,68.8573,-0.064028
13.745,68.8848,-0.064028
13.776,68.9108,-0.064028
13.805,68.9353,-0.064028
13.837,68.9601,-0.064028
13.869,68.9848,-0.064028
13.900,69.0073,-0.064028
13.931,69.0297,-0.064028
13.962,69.0513,-0.096372
13.993,69.0719,-0.096372
14.024,69.0918,-0.096372
14.055,69.1113,-0.096372
14.086,69.1299,-0.096372
14.118,69.1485,-0.096372
14.149,69.1655,-0.096372
14.180,69.1818,-0.096372
14.211,69.1975,-0.143226
14.242,69.2130,-0.143226
14.274,69.2277,-0.143226
14.305,69.2408,-0.143226
14.335,69.2530,-0.143226
14.366,69.2654,-0.143226
14.397,69.2766,-0.143226
14.429,69.2876,-0.143226
14.459,69.2971,-0.226536
14.490,69.3063,-0.226536
14.521,69.3147,-0.226536
14.552,69.3225,-0.226536
14.582,69.3293,-0.226536
14.614,69.3356,-0.226536
14.644,69.3410,-0.226536
14.675,69.3458,-0.226536
14.707,69.3499,-0.226536
14.738,69.3533,-0.333335
14.768,69.3559,-0.333335
14.799,69.3578,-0.333335
14.830,69.3589,-0.333335
14.861,69.3594,-0.333335
14.892,69.3594,-0.333335
14.924,69.3594,-0.333335
14.954,69.3594,-0.352739
14.985,69.3594,-0.352739
15.016,69.3594,-0.352739
15.046,69.3594,-0.352739
15.077,69.3594,-0.352739
15.108,69.3594,-0.352739
15.139,69.3594,-0.352739
15.171,69.3594,-0.352739
15.201,69.3594,-0.257543
15.232,69.3594,-0.257543
15.265,69.3594,-0.257543
15.295,69.3594,-0.257543
15.325,69.3594,-0.257543
15.357,69.3594,-0.257543
15.388,69.3594,-0.257543
15.419,69.3594,-0.257543
15.450,69.3594,-0.257543
15.481,69.3594,-0.182759
15.511,69.3594,-0.182759
15.542,69.3594,-0.182759
15.573,69.3594,-0.182759
15.605,69.3594,-0.182759
15.636,69.3594,-0.182759
15.668,69.3594,-0.182759
15.698,69.3594,-0.182759
15.729,69.3594,-0.163797
15.760,69.3594,-0.163797
15.791,69.3594,-0.163797
15.823,69.3594,-0.163797
15.854,69.3594,-0.163797
15.885,69.3594,-0.163797
15.916,69.3594,-0.163797
15.948,69.3594,-0.163797
15.980,69.3594,-0.153926
16.012,69.3594,-0.153926
16.044,69.3594,-0.153926
16.074,69.3594,-0.153926
16.106,69.3594,-0.153926
16.136,69.3594,-0.153926
16.167,69.3594,-0.153926
16.198,69.3594,-0.153926
16.229,69.3594,-0.147141
16.260,69.3594,-0.147141
16.291,69.3594,-0.147141
16.323,69.3594,-0.147141
16.353,69.3594,-0.147141
16.384,69.3594,-0.147141
16.415,69.3594,-0.147141
16.447,69.3594,-0.147141
16.478,69.3594,-0.141532
16.509,69.3594,-0.141532
16.541,69.3594,-0.141532
16.571,69.3594,-0.141532
16.603,69.3594,-0.141532
16.634,69.3594,-0.141532
16.664,69.3594,-0.141532
16.696,69.3594,-0.141532
16.728,69.3594,-0.141532
16.758,69.3594,-0.137495
16.789,69.3594,-0.137495
16.822,69.3594,-0.137495
16.851,69.3594,-0.137495
16.881,69.3594,-0.137495
16.912,69.3594,-0.137495
16.944,69.3594,-0.137495
16.973,69.3594,-0.137495
17.005,69.3594,-0.134314
17.036,69.3594,-0.134314
17.067,69.3594,-0.134314
17.098,69.3594,-0.134314
17.128,69.3594,-0.134314
17.160,69.3594,-0.134314
17.188,69.3594,-0.134314
17.222,69.3594,-0.131068
17.253,69.3594,-0.131068
17.283,69.3594,-0.131068
17.315,69.3594,-0.131068
17.346,69.3594,-0.131068
17.377,69.3594,-0.131068
17.408,69.3594,-0.131068
17.439,69.3594,-0.131068
17.470,69.3594,-0.131068
17.501,69.3594,-0.128781
17.532,69.3594,-0.128781
17.564,69.3594,-0.128781
17.594,69.3594,-0.128781
17.625,69.3594,-0.128781
17.656,69.3594,-0.128781
17.687,69.3594,-0.128781
17.719,69.3594,-0.126748
17.750,69.3594,-0.126748
17.781,69.3594,-0.126748
17.812,69.3594,-0.126748
17.844,69.3594,-0.126748
17.875,69.3594,-0.126748
17.907,69.3594,-0.126748
17.938,69.3594,-0.126748
17.969,69.3594,-0.124546
17.999,69.3594,-0.124546
18.031,69.3594,-0.124546
18.062,69.3594,-0.124546
18.093,69.3594,-0.124546
18.124,69.3594,-0.124546
18.155,69.3594,-0.124546
18.186,69.3594,-0.124546
18.218,69.3594,-0.124546
18.249,69.3594,-0.123398
18.280,69.3594,-0.123398
18.312,69.3594,-0.123398
18.343,69.3594,-0.123398
18.374,69.3594,-0.123398
18.406,69.3594,-0.123398
18.437,69.3594,-0.123398
18.468,69.3594,-0.121498
18.499,69.3594,-0.121498
18.529,69.3594,-0.121498
18.561,69.3594,-0.121498
18.591,69.3594,-0.121498
18.623,69.3594,-0.121498
18.655,69.3594,-0.121498
18.686,69.3594,-0.121498
18.717,69.3594,-0.119446
18.748,69.3594,-0.119446
18.778,69.3594,-0.119446
18.809,69.3594,-0.119446
18.840,69.3594,-0.119446
18.871,69.3594,-0.119446
18.901,69.3594,-0.119446
18.933,69.3594,-0.119446
18.963,69.3594,-0.118289
18.994,69.3594,-0.118289
19.026,69.3594,-0.118289
19.059,69.3594,-0.118289
19.089,69.3594,-0.118289
19.120,69.3590,-0.118289
19.151,69.3579,-0.118289
19.182,69.3559,-0.118289
19.213,69.3534,-0.115757
19.245,69.3499,-0.115757
19.276,69.3460,-0.115757
19.307,69.3411,-0.115757
19.338,69.3356,-0.115757
19.369,69.3293,-0.115757
19.400,69.3222,-0.115757
19.431,69.3146,-0.115757
19.464,69.3055,0.036653
19.493,69.2970,0.036653
19.525,69.2867,0.036653
19.556,69.2763,0.036653
19.588,69.2645,0.036653
19.618,69.2528,0.036653
19.652,69.2383,0.036653
19.680,69.2267,0.036653
19.711,69.2123,0.036653
19.742,69.1974,0.086783
19.774,69.1809,0.086783
19.804,69.1649,0.086783
19.835,69.1478,0.086783
19.865,69.1303,0.086783
19.896,69.1119,0.086783
19.927,69.0922,0.086783
19.958,69.0725,0.086783
19.989,69.0515,0.086783
20.020,69.0303,-0.006813
20.051,69.0076,-0.006813
20.082,68.9848,-0.006813
20.114,68.9604,-0.006813
20.145,68.9361,-0.006813
20.175,68.9111,-0.006813
20.206,68.8851,-0.006813
20.237,68.8592,0.011415
20.268,68.8315,0.011415
20.299,68.8041,0.011415
20.330,68.7747,0.011415
20.361,68.7454,0.011415
20.391,68.7157,0.011415
20.422,68.6843,0.011415
20.453,68.6533,0.011415
20.483,68.6215,0.031864
20.515,68.5877,0.031864
20.545,68.5548,0.031864
20.576,68.5195,0.031864
20.607,68.4860,0.031864
20.638,68.4495,0.031864
20.668,68.4138,0.031864
20.700,68.3749,0.031864
20.731,68.3374,0.046299
20.762,68.2976,0.046299
20.794,68.2578,0.046299
20.824,68.2180,0.046299
20.855,68.1764,0.046299
20.887,68.1330,0.046299
20.918,68.0912,0.046299
20.950,68.0462,0.046299
20.980,68.0034,0.054006
21.012,67.9579,0.054006
21.043,67.9121,0.054006
21.075,67.8645,0.054006
21.105,67.8195,0.054006
21.137,67.7714,0.054006
21.167,67.7257,0.054006
21.202,67.6717,0.054006
21.229,67.6335,0.054006
21.260,67.5866,0.058570
21.290,67.5401,0.058570
21.321,67.4944,0.058570
21.353,67.4473,0.058570
21.384,67.4003,0.058570
21.416,67.3533,0.058570
21.446,67.3069,0.058570
21.477,67.2616,0.058570
21.507,67.2147,0.061582
21.537,67.1715,0.061582
21.569,67.1228,0.061582
21.599,67.0780,0.061582
21.631,67.0297,0.061582
21.661,66.9849,0.061582
21.693,66.9364,0.061582
21.723,66.8919,0.061459
21.754,66.8455,0.061459
21.784,66.8010,0.061459
21.820,66.7453,0.061459
21.846,66.7064,0.061459
21.877,66.6601,0.061459
21.908,66.6147,0.061459
21.938,66.5704,0.061459
21.969,66.5233,0.061883
22.001,66.4740,0.061883
22.031,66.4309,0.061883
22.061,66.3844,0.061883
22.093,66.3365,0.061883
22.124,66.2911,0.061883
22.155,66.2440,0.061883
22.187,66.1952,0.061883
22.218,66.1495,0.065242
22.249,66.1035,0.065242
22.280,66.0564,0.065242
22.311,66.0104,0.065242
22.342,65.9624,0.065242
22.372,65.9186,0.065242
22.402,65.8732,0.065242
22.433,65.8264,0.065242
22.465,65.7792,0.043467
22.497,65.7320,0.043467
22.526,65.6889,0.043467
22.558,65.6435,0.043467
22.589,65.6007,0.043467
22.620,65.5571,0.043467
22.651,65.5145,0.043467
22.682,65.4733,0.043467
22.713,65.4328,0.016148
22.744,65.3919,0.016148
22.775,65.3530,0.016148
22.807,65.3136,0.016148
22.838,65.2758,0.016148
22.869,65.2372,0.016148
22.900,65.2005,0.016148
22.931,65.1659,0.016148
22.962,65.1299,0.011914
22.994,65.0966,0.011914
23.025,65.0620,0.011914
23.055,65.0313,0.011914
23.086,64.9985,0.011914
23.117,64.9681,0.011914
23.149,64.9359,0.011914
23.179,64.9074,0.011914
23.210,64.8778,0.011142
23.241,64.8489,0.011142
23.273,64.8215,0.011142
23.304,64.7937,0.011142
23.335,64.7680,0.011142
23.366,64.7423,0.011142
23.397,64.7172,0.011142
23.428,64.6934,0.011142
23.460,64.6688,0.010831
23.491,64.6468,0.010831
23.522,64.6245,0.010831
23.553,64.6043,0.010831
23.583,64.5838,0.010831
23.615,64.5644,0.010831
23.646,64.5451,0.010831
23.676,64.5275,0.010831
23.706,64.5108,0.010511
23.738,64.4937,0.010511
23.769,64.4774,0.010511
23.802,64.4617,0.010511
23.832,64.4473,0.010511
23.863,64.4334,0.010511
23.894,64.4206,0.010511
23.925,64.4080,0.010511
23.955,64.3967,0.010417
23.986,64.3857,0.010417
24.017,64.3757,0.010417
24.054,64.3644,0.010417
24.081,64.3570,0.010417
24.112,64.3489,0.010417
24.143,64.3419,0.010417
24.173,64.3353,0.010417
24.204,64.3297,0.010417
24.235,64.3245,0.010220
24.267,64.3202,0.010220
24.298,64.3166,0.010220
24.329,64.3137,0.010220
24.360,64.3115,0.010220
24.390,64.3101,0.010220
24.421,64.3095,0.010220
24.453,64.3094,0.010088
24.484,64.3094,0.010088
24.518,64.3094,0.010088
24.547,64.3094,0.010088
24.577,64.3094,0.010088
24.608,64.3096,0.010088
24.639,64.3106,0.010088
24.671,64.3124,0.010088
24.702,64.3147,0.010088
24.733,64.3179,0.010088
24.762,64.3215,0.009956
24.796,64.3266,0.009956
24.828,64.3321,0.009956
24.859,64.3384,0.009956
24.890,64.3452,0.009956
24.920,64.3524,0.009956
24.951,64.3607,0.009956
24.982,64.3700,0.009815
25.013,64.3795,0.009815
25.043,64.3897,0.009815
25.075,64.4012,0.009815
25.107,64.4134,0.009815
25.138,64.4261,0.009815
25.168,64.4391,0.009815
25.198,64.4530,0.009815
25.229,64.4676,0.009693
25.260,64.4829,0.009693
25.292,64.4995,0.009693
25.323,64.5169,0.009693
25.354,64.5341,0.009693
25.385,64.5530,0.009693
25.416,64.5721,0.009693
25.448,64.5930,0.009420
25.478,64.6127,0.009420
25.510,64.6348,0.009420
25.540,64.6561,0.009420
25.572,64.6796,0.009420
25.603,64.7034,0.009420
25.634,64.7273,0.009420
25.665,64.7529,0.009420
25.696,64.7787,0.009420
25.727,64.8049,0.009072
25.758,64.8329,0.009072
25.789,64.8600,0.009072
25.824,64.8934,0.009072
25.851,64.9183,0.009072
25.882,64.9488,0.009072
25.913,64.9790,0.009072
25.944,65.0107,0.009072
25.974,65.0419,0.008705
26.006,65.0763,0.008705
26.036,65.1092,0.008705
26.067,65.1436,0.008705
26.098,65.1784,0.008705
26.129,65.2139,0.008705
26.159,65.2497,0.008705
26.190,65.2875,0.008705
26.221,65.3254,0.008319
26.252,65.3648,0.008319
26.283,65.4034,0.008319
26.315,65.4453,0.008319
26.345,65.4845,0.008319
26.372,65.5210,0.008319
26.408,65.5700,0.008319
26.439,65.6146,0.008319
26.470,65.6581,0.008319
26.501,65.7024,0.007641
26.531,65.7464,0.007641
26.562,65.7921,0.007641
26.594,65.8398,0.007641
26.624,65.8851,0.007641
26.656,65.9322,0.007641
26.686,65.9784,0.007641
26.717,66.0246,0.006785
26.748,66.0705,0.006785
26.778,66.1173,0.006785
26.809,66.1625,0.006785
26.839,66.2090,0.006785
26.870,66.2541,0.006785
26.901,66.3017,0.006785
26.933,66.3482,0.006785
26.962,66.3936,0.006785
26.994,66.4401,0.005759
27.025,66.4872,0.005759
27.056,66.5330,0.005759
27.087,66.5796,0.005759
27.118,66.6251,0.005759
27.149,66.6720,0.005759
27.179,66.7188,0.005759
27.210,66.7643,0.004432
27.242,66.8118,0.004432
27.273,66.8586,0.004432
27.303,66.9041,0.004432
27.334,66.9501,0.004432
27.364,66.9954,0.004432
27.396,67.0425,0.004432
27.427,67.0894,0.004432
27.458,67.1370,0.002625
27.489,67.1825,0.002625
27.520,67.2293,0.002625
27.552,67.2774,0.002625
27.582,67.3236,0.002625
27.613,67.3689,0.002625
27.645,67.4157,0.002625
27.675,67.4621,0.002625
27.707,67.5091,-0.000555
27.737,67.5546,-0.000555
27.768,67.6001,-0.000555
27.798,67.6472,-0.000555
27.829,67.6929,-0.000555
27.860,67.7406,-0.000555
27.891,67.7861,-0.000555
27.924,67.8350,-0.000555
27.954,67.8789,-0.000555
27.986,67.9260,-0.006597
28.017,67.9702,-0.006597
28.047,68.0148,-0.006597
28.077,68.0554,-0.006597
28.108,68.0971,-0.006597
28.142,68.1432,-0.006597
28.170,68.1799,-0.006597
28.202,68.2226,-0.006597
28.232,68.2588,-0.006597
28.263,68.2982,-0.017626
28.294,68.3358,-0.017626
28.325,68.3741,-0.017626
28.356,68.4100,-0.017626
28.387,68.4463,-0.017626
28.419,68.4812,-0.017626
28.451,68.5170,-0.017626
28.480,68.5490,-0.017626
28.511,68.5825,-0.035477
28.543,68.6144,-0.035477
28.574,68.6462,-0.035477
28.605,68.6767,-0.035477
28.636,68.7069,-0.035477
28.668,68.7373,-0.035477
28.698,68.7648,-0.035477
28.729,68.7921,-0.035477
28.760,68.8197,-0.060697
28.792,68.8464,-0.060697
28.823,68.8723,-0.060697
28.854,68.8976,-0.060697
28.885,68.9214,-0.060697
28.917,68.9452,-0.060697
28.947,68.9677,-0.060697
28.978,68.9893,-0.092457
29.009,69.0106,-0.092457
29.040,69.0306,-0.092457
29.070,69.0505,-0.092457
29.101,69.0691,-0.092457
29.134,69.0884,-0.092457
29.165,69.1061,-0.092457
29.198,69.1240,-0.092457
29.228,69.1395,-0.136460
29.259,69.1551,-0.136460
29.290,69.1695,-0.136460
29.320,69.1834,-0.136460
29.355,69.1978,-0.136460
29.383,69.2089,-0.136460
29.414,69.2210,-0.136460
29.444,69.2312,-0.136460
29.474,69.2415,-0.215197
29.506,69.2512,-0.215197
29.536,69.2599,-0.215197
29.567,69.2681,-0.215197
29.599,69.2755,-0.215197
29.630,69.2822,-0.215197
29.660,69.2880,-0.215197
29.692,69.2934,-0.215197
29.723,69.2978,-0.322183
29.754,69.3016,-0.322183
29.785,69.3045,-0.322183
29.818,69.3069,-0.322183
29.847,69.3084,-0.322183
29.878,69.3093,-0.322183
29.909,69.3094,-0.322183
29.940,69.3094,-0.322183
29.971,69.3094,-0.362733
30.001,69.3094,-0.362733
30.032,69.3094,-0.362733
30.063,69.3094,-0.362733
30.094,69.3094,-0.362733
30.125,69.3094,-0.362733
30.156,69.3094,-0.362733
30.187,69.3094,-0.362733
30.218,69.3094,-0.362733
30.250,69.3094,-0.275875
30.281,69.3094,-0.275875
30.312,69.3094,-0.275875
30.343,69.3094,-0.275875
30.375,69.3094,-0.275875
30.406,69.3094,-0.275875
30.437,69.3094,-0.275875
30.467,69.3094,-0.275875
30.497,69.3094,-0.189073
30.529,69.3094,-0.189073
30.561,69.3094,-0.189073
30.591,69.3094,-0.189073
30.622,69.3094,-0.189073
30.653,69.3094,-0.189073
30.685,69.3094,-0.189073
30.716,69.3094,-0.167495
30.748,69.3094,-0.167495
30.780,69.3094,-0.167495
30.810,69.3094,-0.167495
30.841,69.3094,-0.167495
30.872,69.3094,-0.167495
30.904,69.3094,-0.167495
30.934,69.3094,-0.167495
30.966,69.3094,-0.167495
30.996,69.3094,-0.156608
31.027,69.3094,-0.156608
31.057,69.3094,-0.156608
31.088,69.3094,-0.156608
31.119,69.3094,-0.156608
31.150,69.3094,-0.156608
31.181,69.3094,-0.156608
31.212,69.3094,-0.156608
31.243,69.3094,-0.149484
31.274,69.3094,-0.149484
31.305,69.3094,-0.149484
31.336,69.3094,-0.149484
31.367,69.3094,-0.149484
31.398,69.3094,-0.149484
31.428,69.3094,-0.149484
31.459,69.3094,-0.149484
31.490,69.3094,-0.143555
31.521,69.3094,-0.143555
31.552,69.3094,-0.143555
31.582,69.3094,-0.143555
31.613,69.3094,-0.143555
31.644,69.3094,-0.143555
31.676,69.3094,-0.143555
31.707,69.3094,-0.143555
31.737,69.3094,-0.143555
31.770,69.3094,-0.140045
31.798,69.3094,-0.140045
31.829,69.3094,-0.140045
31.860,69.3094,-0.140045
31.891,69.3094,-0.140045
31.923,69.3094,-0.140045
31.954,69.3094,-0.140045
31.984,69.3094,-0.137015
32.015,69.3094,-0.137015
32.048,69.3094,-0.137015
32.078,69.3094,-0.137015
32.109,69.3094,-0.137015
32.140,69.3094,-0.137015
32.171,69.3094,-0.137015
32.203,69.3094,-0.137015
32.234,69.3094,-0.132790
32.264,69.3094,-0.132790
32.296,69.3094,-0.132790
32.328,69.3094,-0.132790
32.359,69.3094,-0.132790
32.389,69.3094,-0.132790
32.420,69.3094,-0.132790
32.451,69.3094,-0.132790
32.482,69.3094,-0.130531
32.513,69.3094,-0.130531
32.544,69.3094,-0.130531
32.575,69.3094,-0.130531
32.607,69.3094,-0.130531
32.638,69.3094,-0.130531
32.668,69.3094,-0.130531
32.699,69.3094,-0.130531
32.730,69.3094,-0.128772
32.761,69.3094,-0.128772
32.792,69.3094,-0.128772
32.823,69.3094,-0.128772
32.854,69.3094,-0.128772
32.885,69.3094,-0.128772
32.916,69.3094,-0.128772
32.947,69.3094,-0.128772
32.978,69.3094,-0.126240
33.009,69.3094,-0.126240
33.040,69.3094,-0.126240
33.071,69.3094,-0.126240
33.102,69.3094,-0.126240
33.133,69.3094,-0.126240
33.165,69.3094,-0.126240
33.196,69.3094,-0.126240
33.227,69.3094,-0.124641
33.259,69.3094,-0.124641
33.290,69.3094,-0.124641
33.321,69.3094,-0.124641
33.351,69.3094,-0.124641
33.382,69.3094,-0.124641
33.413,69.3094,-0.124641
33.443,69.3094,-0.124641
33.473,69.3094,-0.123568
33.504,69.3094,-0.123568
33.535,69.3094,-0.123568
33.566,69.3094,-0.123568
33.596,69.3094,-0.123568
33.627,69.3094,-0.123568
33.657,69.3094,-0.123568
33.693,69.3094,-0.123568
33.720,69.3094,-0.123568
33.751,69.3094,-0.121987
33.783,69.3094,-0.121987
33.813,69.3094,-0.121987
33.844,69.3094,-0.121987
33.875,69.3094,-0.121987
33.905,69.3094,-0.121987
33.936,69.3094,-0.121987
33.967,69.3094,-0.120914
33.998,69.3094,-0.120914
34.029,69.3094,-0.120914
34.059,69.3094,-0.120914
34.091,69.3094,-0.120914
34.122,69.3094,-0.120914
34.153,69.3094,-0.120914
34.183,69.3094,-0.120914
34.214,69.3094,-0.116726
34.244,69.3090,-0.116726
34.275,69.3080,-0.116726
34.306,69.3062,-0.116726
34.337,69.3036,-0.116726
34.368,69.3003,-0.116726
34.400,69.2961,-0.116726
34.433,69.2910,-0.116726
34.462,69.2858,-0.116726
34.488,69.2807,-0.096814
34.524,69.2728,-0.096814
34.555,69.2652,-0.096814
34.585,69.2570,-0.096814
34.616,69.2479,-0.096814
34.647,69.2382,-0.096814
34.678,69.2274,-0.096814
34.709,69.2161,-0.036992
34.740,69.2041,-0.036992
34.771,69.1913,-0.036992
34.802,69.1780,-0.036992
34.832,69.1640,-0.036992
34.865,69.1484,-0.036992
34.893,69.1343,-0.036992
34.923,69.1184,-0.036992
34.954,69.1010,-0.000960
34.986,69.0832,-0.000960
35.016,69.0656,-0.000960
35.048,69.0457,-0.000960
35.079,69.0256,-0.000960
35.110,69.0048,-0.000960
35.142,68.9832,-0.000960
35.173,68.9606,-0.000960
35.203,68.9384,0.001092
35.234,68.9147,0.001092
35.265,68.8901,0.001092
35.297,68.8646,0.001092
35.331,68.8366,0.001092
35.357,68.8139,0.001092
35.390,68.7855,0.001092
35.421,68.7570,0.001092
35.452,68.7290,0.001092
35.483,68.6994,0.021879
35.513,68.6695,0.021879
35.549,68.6337,0.021879
35.576,68.6072,0.021879
35.608,68.5736,0.021879
35.638,68.5402,0.021879
35.668,68.5077,0.021879
35.699,68.4731,0.039505
35.731,68.4369,0.039505
35.762,68.4019,0.039505
35.793,68.3649,0.039505
35.823,68.3281,0.039505
35.855,68.2889,0.039505
35.885,68.2508,0.039505
35.917,68.2104,0.039505
35.947,68.1715,0.039505
35.979,68.1289,0.050186
36.009,68.0885,0.050186
36.041,68.0441,0.050186
36.073,68.0004,0.050186
36.104,67.9558,0.050186
36.135,67.9115,0.050186
36.166,67.8659,0.050186
36.198,67.8189,0.050186
36.228,67.7730,0.055794
36.260,67.7256,0.055794
36.291,67.6783,0.055794
36.322,67.6317,0.055794
36.353,67.5863,0.055794
36.385,67.5386,0.055794
36.415,67.4922,0.055794
36.447,67.4453,0.055794
36.477,67.3993,0.059285
36.508,67.3535,0.059285
36.540,67.3063,0.059285
36.571,67.2588,0.059285
36.602,67.2131,0.059285
36.632,67.1664,0.059285
36.664,67.1196,0.059285
36.695,67.0715,0.059285
36.726,67.0264,0.060753
36.757,66.9798,0.060753
36.787,66.9346,0.060753
36.819,66.8866,0.060753
36.851,66.8392,0.060753
36.883,66.7910,0.060753
36.915,66.7432,0.060753
36.945,66.6976,0.060753
36.976,66.6507,0.060010
37.007,66.6048,0.060010
37.038,66.5580,0.060010
37.069,66.5113,0.060010
37.100,66.4647,0.060010
37.132,66.4168,0.060010
37.164,66.3703,0.060010
37.195,66.3236,0.060010
37.226,66.2773,0.062090
37.256,66.2303,0.062090
37.287,66.1842,0.062090
37.317,66.1395,0.062090
37.348,66.0932,0.062090
37.379,66.0466,0.062090
37.409,66.0023,0.062090
37.440,65.9555,0.062090
37.471,65.9082,0.056265
37.502,65.8612,0.056265
37.533,65.8158,0.056265
37.565,65.7680,0.056265
37.596,65.7218,0.056265
37.628,65.6744,0.056265
37.658,65.6307,0.056265
37.689,65.5864,0.056265
37.720,65.5423,0.056265
37.751,65.4991,0.030697
37.782,65.4576,0.030697
37.814,65.4159,0.030697
37.844,65.3754,0.030697
37.875,65.3358,0.030697
37.907,65.2960,0.030697
37.938,65.2567,0.030697
37.969,65.2190,0.012873
38.000,65.1816,0.012873
38.031,65.1455,0.012873
38.062,65.1101,0.012873
38.093,65.0755,0.012873
38.125,65.0399,0.012873
38.156,65.0073,0.012873
38.186,64.9746,0.012873
38.217,64.9435,0.011518
38.248,64.9116,0.011518
38.279,64.8819,0.011518
38.311,64.8509,0.011518
38.341,64.8227,0.011518
38.372,64.7946,0.011518
38.404,64.7668,0.011518
38.435,64.7400,0.011518
38.466,64.7139,0.010963
38.496,64.6893,0.010963
38.526,64.6646,0.010963
38.563,64.6361,0.010963
38.604,64.6060,0.010963
38.635,64.5843,0.010963
38.666,64.5631,0.010963
38.697,64.5422,0.010681
38.728,64.5221,0.010681
38.759,64.5030,0.010681
38.791,64.4841,0.010681
38.821,64.4665,0.010681
38.853,64.4494,0.010681
38.884,64.4329,0.010681
38.915,64.4173,0.010681
38.945,64.4033,0.010681
38.976,64.3890,0.010483
39.007,64.3757,0.010483
39.038,64.3631,0.010483
39.069,64.3510,0.010483
39.100,64.3400,0.010483
39.130,64.3298,0.010483
39.161,64.3202,0.010483
39.192,64.3109,0.010295
39.223,64.3026,0.010295
39.254,64.2952,0.010295
39.286,64.2882,0.010295
39.316,64.2822,0.010295
39.348,64.2766,0.010295
39.378,64.2720,0.010295
39.410,64.2680,0.010295
39.441,64.2649,0.010295
39.473,64.2624,0.010295
39.503,64.2606,0.010163
39.535,64.2596,0.010163
39.566,64.2594,0.010163
39.597,64.2594,0.010163
39.627,64.2594,0.010163
39.658,64.2594,0.010163
39.690,64.2594,0.010163
39.720,64.2594,0.010163
39.751,64.2594,0.010079
39.782,64.2599,0.010079
39.814,64.2610,0.010079
39.845,64.2630,0.010079
39.876,64.2656,0.010079
39.907,64.2691,0.010079
39.938,64.2732,0.010079
39.969,64.2780,0.010079
40.001,64.2837,0.009984
40.031,64.2899,0.009984
40.062,64.2969,0.009984
40.094,64.3049,0.009984
40.124,64.3131,0.009984
40.156,64.3228,0.009984
40.187,64.3326,0.009984
40.218,64.3432,0.009984
40.249,64.3546,0.009824
40.280,64.3666,0.009824
40.310,64.3797,0.009824
40.341,64.3928,0.009824
40.372,64.4070,0.009824
40.403,64.4222,0.009824
40.434,64.4375,0.009824
40.459,64.4510,0.009824
40.494,64.4702,0.009608
40.525,64.4882,0.009608
40.556,64.5068,0.009608
40.587,64.5265,0.009608
40.618,64.5460,0.009608
40.649,64.5672,0.009608
40.681,64.5890,0.009608
40.711,64.6115,0.009608
40.743,64.6342,0.009326
40.773,64.6581,0.009326
40.806,64.6831,0.009326
40.836,64.7082,0.009326
40.867,64.7340,0.009326
40.898,64.7606,0.009326
40.929,64.7882,0.009326
40.960,64.8158,0.009326
40.991,64.8458,0.009025
41.022,64.8748,0.009025
41.054,64.9058,0.009025
41.085,64.9367,0.009025
41.116,64.9694,0.009025
41.147,65.0019,0.009025
41.178,65.0347,0.009025
41.211,65.0705,0.009025
41.240,65.1024,0.008667
41.271,65.1377,0.008667
41.301,65.1730,0.008667
41.332,65.2109,0.008667
41.364,65.2481,0.008667
41.394,65.2861,0.008667
41.425,65.3251,0.008667
41.461,65.3716,0.008667
41.488,65.4055,0.008667
41.519,65.4474,0.008149
41.549,65.4883,0.008149
41.580,65.5311,0.008149
41.612,65.5753,0.008149
41.644,65.6208,0.008149
41.675,65.6653,0.008149
41.706,65.7105,0.008149
41.736,65.7561,0.007359
41.766,65.8013,0.007359
41.797,65.8481,0.007359
41.828,65.8945,0.007359
41.860,65.9424,0.007359
41.891,65.9885,0.007359
41.922,66.0349,0.007359
41.954,66.0834,0.007359
41.984,66.1281,0.006484
42.015,66.1754,0.006484
42.046,66.2203,0.006484
42.077,66.2680,0.006484
42.108,66.3137,0.006484
42.138,66.3604,0.006484
42.169,66.4059,0.006484
42.201,66.4539,0.006484
42.231,66.4989,0.005449
42.263,66.5475,0.005449
42.294,66.5933,0.005449
42.326,66.6408,0.005449
42.356,66.6860,0.005449
42.386,66.7317,0.005449
42.417,66.7783,0.005449
42.449,66.8263,0.005449
42.480,66.8739,0.004018
42.511,66.9193,0.004018
42.542,66.9658,0.004018
42.573,67.0117,0.004018
42.604,67.0580,0.004018
42.636,67.1062,0.004018
42.666,67.1509,0.004018
42.697,67.1992,0.004018
42.729,67.2450,0.001807
42.760,67.2925,0.001807
42.791,67.3389,0.001807
42.823,67.3864,0.001807
42.854,67.4327,0.001807
42.884,67.4787,0.001807
42.915,67.5243,0.001807
42.946,67.5708,0.001807
42.976,67.6168,-0.002070
43.007,67.6638,-0.002070
43.038,67.7087,-0.002070
43.070,67.7576,-0.002070
43.101,67.8037,-0.002070
43.131,67.8476,-0.002070
43.162,67.8925,-0.002070
43.193,67.9368,-0.002070
43.223,67.9791,-0.009664
43.254,68.0225,-0.009664
43.285,68.0641,-0.009664
43.317,68.1065,-0.009664
43.348,68.1465,-0.009664
43.380,68.1886,-0.009664
43.411,68.2273,-0.009664
43.443,68.2676,-0.009664
43.474,68.3043,-0.022773
43.504,68.3406,-0.022773
43.535,68.3772,-0.022773
43.566,68.4128,-0.022773
43.596,68.4456,-0.022773
43.627,68.4798,-0.022773
43.658,68.5132,-0.022773
43.689,68.5459,-0.022773
43.719,68.5763,-0.022773
43.750,68.6082,-0.043118
43.781,68.6382,-0.043118
43.813,68.6687,-0.043118
43.844,68.6971,-0.043118
43.875,68.7262,-0.043118
43.906,68.7531,-0.043118
43.937,68.7803,-0.043118
43.967,68.8054,-0.070710
43.999,68.8321,-0.070710
44.030,68.8562,-0.070710
44.061,68.8800,-0.070710
44.091,68.9020,-0.070710
44.121,68.9242,-0.070710
44.151,68.9460,-0.070710
44.183,68.9668,-0.070710
44.215,68.9879,-0.105011
44.246,69.0070,-0.105011
44.276,69.0254,-0.105011
44.307,69.0435,-0.105011
44.338,69.0610,-0.105011
44.369,69.0775,-0.105011
44.399,69.0931,-0.105011
44.431,69.1085,-0.105011
44.461,69.1227,-0.158998
44.493,69.1365,-0.158998
44.524,69.1495,-0.158998
44.554,69.1617,-0.158998
44.585,69.1731,-0.158998
44.616,69.1842,-0.158998
44.648,69.1944,-0.158998
44.680,69.2041,-0.158998
44.710,69.2125,-0.251558
44.741,69.2203,-0.251558
44.772,69.2278,-0.251558
44.803,69.2340,-0.251558
44.834,69.2397,-0.251558
44.865,69.2448,-0.251558
44.897,69.2490,-0.251558
44.928,69.2526,-0.251558
44.958,69.2553,-0.251558
44.991,69.2574,-0.354461
45.020,69.2588,-0.354461
45.052,69.2594,-0.354461
45.082,69.2594,-0.354461
45.112,69.2594,-0.354461
45.143,69.2594,-0.354461
45.174,69.2594,-0.354461
45.205,69.2594,-0.354461
45.236,69.2594,-0.339781
45.267,69.2594,-0.339781
45.299,69.2594,-0.339781
45.329,69.2594,-0.339781
45.360,69.2594,-0.339781
45.391,69.2594,-0.339781
45.422,69.2594,-0.339781
45.453,69.2594,-0.339781
45.483,69.2594,-0.235721
45.514,69.2594,-0.235721
45.544,69.2594,-0.235721
45.579,69.2594,-0.235721
45.607,69.2594,-0.235721
45.637,69.2594,-0.235721
45.668,69.2594,-0.235721
45.698,69.2594,-0.235721
45.729,69.2594,-0.180830
45.762,69.2594,-0.180830
45.791,69.2594,-0.180830
45.822,69.2594,-0.180830
45.854,69.2594,-0.180830
45.888,69.2594,-0.180830
45.916,69.2594,-0.180830
45.948,69.2594,-0.180830
45.978,69.2594,-0.163769
46.010,69.2594,-0.163769
46.041,69.2594,-0.163769
46.072,69.2594,-0.163769
46.103,69.2594,-0.163769
46.134,69.2594,-0.163769
46.165,69.2594,-0.163769
46.197,69.2594,-0.163769
46.229,69.2594,-0.154631
46.261,69.2594,-0.154631
46.292,69.2594,-0.154631
46.323,69.2594,-0.154631
46.354,69.2594,-0.154631
46.384,69.2594,-0.154631
46.415,69.2594,-0.154631
46.446,69.2594,-0.154631
46.477,69.2594,-0.154631
46.507,69.2594,-0.148468
46.538,69.2594,-0.148468
46.569,69.2594,-0.148468
46.600,69.2594,-0.148468
46.632,69.2594,-0.148468
46.663,69.2594,-0.148468
46.695,69.2594,-0.148468
46.726,69.2594,-0.142981
46.758,69.2594,-0.142981
46.789,69.2594,-0.142981
46.820,69.2594,-0.142981
46.852,69.2594,-0.142981
46.884,69.2594,-0.142981
46.914,69.2594,-0.142981
46.944,69.2594,-0.142981
46.975,69.2594,-0.139133
47.007,69.2594,-0.139133
47.038,69.2594,-0.139133
47.068,69.2594,-0.139133
47.098,69.2594,-0.139133
47.130,69.2594,-0.139133
47.161,69.2594,-0.139133
47.191,69.2594,-0.139133
47.222,69.2594,-0.135914
47.253,69.2594,-0.135914
47.283,69.2594,-0.135914
47.319,69.2594,-0.135914
47.345,69.2594,-0.135914
47.376,69.2594,-0.135914
47.407,69.2594,-0.135914
47.439,69.2594,-0.135914
47.469,69.2594,-0.132959
47.500,69.2594,-0.132959
47.532,69.2594,-0.132959
47.563,69.2594,-0.132959
47.596,69.2594,-0.132959
47.626,69.2594,-0.132959
47.657,69.2594,-0.132959
47.689,69.2594,-0.132959
47.719,69.2594,-0.130324
47.749,69.2594,-0.130324
47.780,69.2594,-0.130324
47.812,69.2594,-0.130324
47.844,69.2594,-0.130324
47.874,69.2594,-0.130324
47.905,69.2594,-0.130324
47.936,69.2594,-0.130324
47.967,69.2594,-0.128376
47.999,69.2594,-0.128376
48.030,69.2594,-0.128376
48.062,69.2594,-0.128376
48.093,69.2594,-0.128376
48.123,69.2594,-0.128376
48.157,69.2594,-0.128376
48.184,69.2594,-0.128376
48.216,69.2594,-0.126438
48.246,69.2594,-0.126438
48.277,69.2594,-0.126438
48.308,69.2594,-0.126438
48.340,69.2594,-0.126438
48.371,69.2594,-0.126438
48.403,69.2594,-0.126438
48.436,69.2594,-0.126438
48.467,69.2594,-0.126438
48.498,69.2594,-0.124725
48.529,69.2594,-0.124725
48.559,69.2594,-0.124725
48.590,69.2594,-0.124725
48.621,69.2594,-0.124725
48.652,69.2594,-0.124725
48.683,69.2594,-0.124725
48.714,69.2594,-0.124725
48.745,69.2594,-0.123191
48.778,69.2594,-0.123191
48.808,69.2594,-0.123191
48.839,69.2594,-0.123191
48.870,69.2594,-0.123191
48.902,69.2594,-0.123191
48.932,69.2594,-0.123191
48.963,69.2594,-0.123191
48.994,69.2594,-0.121074
49.024,69.2594,-0.121074
49.055,69.2594,-0.121074
49.086,69.2594,-0.121074
49.118,69.2594,-0.121074
49.149,69.2594,-0.121074
49.181,69.2594,-0.121074
49.211,69.2594,-0.121074
49.242,69.2594,-0.119051
49.273,69.2589,-0.119051
49.304,69.2578,-0.119051
49.335,69.2558,-0.119051
49.366,69.2532,-0.119051
49.397,69.2499,-0.119051
49.428,69.2458,-0.119051
49.459,69.2410,-0.119051
49.490,69.2355,-0.109556
49.522,69.2288,-0.109556
49.552,69.2221,-0.109556
49.583,69.2144,-0.109556
49.613,69.2061,-0.109556
49.644,69.1970,-0.109556
49.675,69.1873,-0.109556
49.706,69.1767,-0.109556
49.736,69.1658,-0.036851
49.766,69.1540,-0.036851
49.797,69.1413,-0.036851
49.828,69.1274,-0.036851
49.859,69.1135,-0.036851
49.891,69.0980,-0.036851
49.921,69.0829,-0.036851
49.953,69.0657,-0.036851
49.984,69.0486,0.008225
50.015,69.0309,0.008225
50.046,69.0127,0.008225
50.077,68.9932,0.008225
50.108,68.9732,0.008225
50.140,68.9511,0.008225
50.170,68.9311,0.008225
50.201,68.9084,0.008225
50.231,68.8866,-0.000847
50.261,68.8634,-0.000847
50.293,68.8386,-0.000847
50.324,68.8133,-0.000847
50.355,68.7875,-0.000847
50.386,68.7603,-0.000847
50.418,68.7327,-0.000847
50.449,68.7041,-0.000847
50.479,68.6760,0.020138
50.510,68.6473,0.020138
50.541,68.6171,0.020138
50.572,68.5860,0.020138
50.603,68.5547,0.020138
50.634,68.5218,0.020138
50.664,68.4898,0.020138
50.696,68.4545,0.020138
50.727,68.4209,0.038780
50.759,68.3838,0.038780
50.790,68.3480,0.038780
50.821,68.3102,0.038780
50.852,68.2743,0.038780
50.883,68.2353,0.038780
50.914,68.1965,0.038780
50.944,68.1581,0.038780
50.975,68.1175,0.050374
51.005,68.0778,0.050374
51.036,68.0350,0.050374
51.067,67.9934,0.050374
51.100,67.9474,0.050374
51.130,67.9044,0.050374
51.161,67.8602,0.050374
51.192,67.8145,0.050374
51.223,67.7683,0.050374
51.254,67.7216,0.056378
51.286,67.6749,0.056378
51.317,67.6280,0.056378
51.348,67.5814,0.056378
51.379,67.5345,0.056378
51.411,67.4872,0.056378
51.441,67.4413,0.056378
51.473,67.3933,0.056378
51.504,67.3477,0.059765
51.535,67.2997,0.059765
51.566,67.2541,0.059765
51.596,67.2073,0.059765
51.627,67.1613,0.059765
51.659,67.1144,0.059765
51.690,67.0680,0.059765
51.721,67.0214,0.059765
51.752,66.9755,0.061111
51.783,66.9289,0.061111
51.814,66.8814,0.061111
51.845,66.8356,0.061111
51.876,66.7893,0.061111
51.906,66.7440,0.061111
51.937,66.6978,0.061111
51.968,66.6508,0.061111
51.999,66.6032,0.060744
52.031,66.5564,0.060744
52.060,66.5134,0.060744
52.091,66.4669,0.060744
52.122,66.4193,0.060744
52.157,66.3659,0.060744
52.184,66.3275,0.060744
52.215,66.2807,0.060744
52.246,66.2343,0.063181
52.277,66.1868,0.063181
52.308,66.1411,0.063181
52.339,66.0935,0.063181
52.370,66.0488,0.063181
52.401,66.0006,0.063181
52.432,65.9552,0.063181
52.463,65.9079,0.063181
52.494,65.8614,0.062043
52.525,65.8146,0.062043
52.559,65.7650,0.062043
52.588,65.7203,0.062043
52.619,65.6746,0.062043
52.650,65.6274,0.062043
52.680,65.5846,0.062043
52.712,65.5398,0.036456
52.743,65.4953,0.036456
52.774,65.4513,0.036456
52.805,65.4092,0.036456
52.836,65.3690,0.036456
52.868,65.3276,0.036456
52.898,65.2879,0.036456
52.931,65.2464,0.036456
52.960,65.2104,0.013466
52.991,65.1725,0.013466
53.022,65.1359,0.013466
53.053,65.0992,0.013466
53.085,65.0633,0.013466
53.116,65.0277,0.013466
53.147,64.9937,0.013466
53.181,64.9563,0.013466
53.211,64.9255,0.013466
53.241,64.8944,0.011650
53.272,64.8631,0.011650
53.302,64.8340,0.011650
53.333,64.8047,0.011650
53.363,64.7755,0.011650
53.395,64.7474,0.011650
53.425,64.7196,0.011650
53.456,64.6934,0.011095
53.487,64.6666,0.011095
53.517,64.6425,0.011095
53.549,64.6167,0.011095
53.579,64.5935,0.011095
53.610,64.5704,0.011095
53.640,64.5480,0.011095
53.672,64.5260,0.011095
53.702,64.5057,0.010794
53.733,64.4852,0.010794
53.764,64.4653,0.010794
53.795,64.4467,0.010794
53.826,64.4278,0.010794
53.857,64.4106,0.010794
53.888,64.3937,0.010794
53.919,64.3780,0.010794
53.950,64.3628,0.010794
53.981,64.3482,0.010502
54.012,64.3342,0.010502
54.042,64.3214,0.010502
54.073,64.3089,0.010502
54.104,64.2975,0.010502
54.135,64.2866,0.010502
54.165,64.2765,0.010502
54.202,64.2652,0.010502
54.228,64.2579,0.010361
54.259,64.2498,0.010361
54.290,64.2427,0.010361
54.326,64.2350,0.010361
54.351,64.2302,0.010361
54.383,64.2250,0.010361
54.414,64.2206,0.010361
54.446,64.2169,0.010361
54.476,64.2138,0.010361
54.508,64.2116,0.010229
54.539,64.2102,0.010229
54.570,64.2094,0.010229
54.600,64.2093,0.010229
54.632,64.2093,0.010229
54.662,64.2093,0.010229
54.694,64.2093,0.010229
54.725,64.2093,0.010069
54.756,64.2093,0.010069
54.786,64.2093,0.010069
54.817,64.2098,0.010069
54.848,64.2110,0.010069
54.878,64.2129,0.010069
54.909,64.2155,0.010069
54.941,64.2190,0.010069
54.971,64.2229,0.010022
55.003,64.2279,0.010022
55.034,64.2335,0.010022
55.065,64.2399,0.010022
55.095,64.2466,0.010022
55.127,64.2547,0.010022
55.158,64.2634,0.010022
55.189,64.2727,0.010022
55.220,64.2823,0.009853
55.252,64.2933,0.009853
55.281,64.3042,0.009853
55.312,64.3161,0.009853
55.343,64.3287,0.009853
55.375,64.3429,0.009853
55.406,64.3571,0.009853
55.437,64.3720,0.009853
55.468,64.3878,0.009599
55.499,64.4040,0.009599
55.530,64.4214,0.009599
55.561,64.4394,0.009599
55.591,64.4575,0.009599
55.622,64.4774,0.009599
55.653,64.4968,0.009599
55.684,64.5179,0.009599
55.714,64.5387,0.009429
55.745,64.5611,0.009429
55.776,64.5837,0.009429
55.806,64.6074,0.009429
55.837,64.6311,0.009429
55.871,64.6599,0.009429
55.899,64.6818,0.009429
55.930,64.7092,0.009429
55.961,64.7364,0.009137
55.996,64.7686,0.009137
56.023,64.7936,0.009137
56.055,64.8231,0.009137
56.085,64.8535,0.009137
56.116,64.8839,0.009137
56.147,64.9159,0.009137
56.177,64.9476,0.009137
56.208,64.9796,0.008752
56.239,65.0137,0.008752
56.269,65.0474,0.008752
56.300,65.0825,0.008752
56.330,65.1175,0.008752
56.362,65.1548,0.008752
56.392,65.1918,0.008752
56.424,65.2319,0.008752
56.455,65.2698,0.008253
56.486,65.3101,0.008253
56.517,65.3502,0.008253
56.548,65.3914,0.008253
56.578,65.4329,0.008253
56.609,65.4742,0.008253
56.641,65.5190,0.008253
56.672,65.5624,0.008253
56.703,65.6077,0.008253
56.733,65.6518,0.007585
56.765,65.6991,0.007585
56.796,65.7456,0.007585
56.830,65.7978,0.007585
56.857,65.8378,0.007585
56.889,65.8848,0.007585
56.920,65.9321,0.007585
56.952,65.9796,0.007585
56.982,66.0264,0.006710
57.013,66.0716,0.006710
57.044,66.1178,0.006710
57.075,66.1634,0.006710
57.105,66.2089,0.006710
57.136,66.2558,0.006710
57.167,66.3016,0.006710
57.198,66.3486,0.006710
57.228,66.3945,0.006710
57.260,66.4422,0.005646
57.290,66.4871,0.005646
57.322,66.5344,0.005646
57.352,66.5794,0.005646
57.383,66.6270,0.005646
57.414,66.6725,0.005646
57.447,66.7226,0.005646
57.477,66.7680,0.004235
57.508,66.8132,0.004235
57.539,66.8605,0.004235
57.570,66.9067,0.004235
57.601,66.9531,0.004235
57.632,67.0006,0.004235
57.663,67.0471,0.004235
57.694,67.0940,0.004235
57.725,67.1397,0.002174
57.756,67.1866,0.002174
57.786,67.2306,0.002174
57.817,67.2782,0.002174
57.849,67.3244,0.002174
57.879,67.3714,0.002174
57.910,67.4162,0.002174
57.941,67.4640,0.002174
57.972,67.5108,-0.001449
58.004,67.5573,-0.001449
58.035,67.6044,-0.001449
58.070,67.6570,-0.001449
58.099,67.6993,-0.001449
58.129,67.7448,-0.001449
58.163,67.7965,-0.001449
58.191,67.8354,-0.001449
58.222,67.8810,-0.008441
58.253,67.9239,-0.008441
58.284,67.9667,-0.008441
58.315,68.0087,-0.008441
58.346,68.0499,-0.008441
58.378,68.0921,-0.008441
58.408,68.1307,-0.008441
58.439,68.1696,-0.008441
58.470,68.2093,-0.020740
58.501,68.2465,-0.020740
58.532,68.2838,-0.020740
58.563,68.3194,-0.020740
58.596,68.3587,-0.020740
58.625,68.3897,-0.020740
58.655,68.4239,-0.020740
58.685,68.4559,-0.020740
58.716,68.4887,-0.040116
58.747,68.5202,-0.040116
58.778,68.5517,-0.040116
58.809,68.5825,-0.040116
58.844,68.6162,-0.040116
58.870,68.6414,-0.040116
58.902,68.6698,-0.040116
58.933,68.6968,-0.040116
58.963,68.7236,-0.066908
58.995,68.7513,-0.066908
59.025,68.7761,-0.066908
59.056,68.8003,-0.066908
59.088,68.8249,-0.066908
59.117,68.8468,-0.066908
59.148,68.8691,-0.066908
59.179,68.8917,-0.066908
59.211,68.9125,-0.066908
59.243,68.9340,-0.099985
59.273,68.9531,-0.099985
59.305,68.9727,-0.099985
59.336,68.9908,-0.099985
59.366,69.0081,-0.099985
59.398,69.0249,-0.099985
59.428,69.0410,-0.099985
59.460,69.0560,-0.099985
59.490,69.0704,-0.149682
59.522,69.0847,-0.149682
59.552,69.0974,-0.149682
59.584,69.1101,-0.149682
59.613,69.1214,-0.149682
59.645,69.1324,-0.149682
59.676,69.1426,-0.149682
59.707,69.1520,-0.149682
59.738,69.1608,-0.237330
59.768,69.1686,-0.237330
59.800,69.1761,-0.237330
59.831,69.1826,-0.237330
59.860,69.1883,-0.237330
59.891,69.1934,-0.237330
59.922,69.1979,-0.237330
59.953,69.2015,-0.237330
59.983,69.2046,-0.237330
60.015,69.2068,-0.342500
60.046,69.2083,-0.342500
60.077,69.2092,-0.342500
60.108,69.2093,-0.342500
60.138,69.2093,-0.342500
60.170,69.2093,-0.342500
60.202,69.2093,-0.342500
60.233,69.2093,-0.350396
60.264,69.2093,-0.350396
60.295,69.2093,-0.350396
60.327,69.2093,-0.350396
60.359,69.2093,-0.350396
60.390,69.2093,-0.350396
60.421,69.2093,-0.350396
60.452,69.2093,-0.350396
60.482,69.2093,-0.252528
60.513,69.2093,-0.252528
60.544,69.2093,-0.252528
60.576,69.2093,-0.252528
60.606,69.2093,-0.252528
60.638,69.2093,-0.252528
60.668,69.2093,-0.252528
60.698,69.2093,-0.252528
60.729,69.2093,-0.183653
60.760,69.2093,-0.183653
60.791,69.2093,-0.183653
60.822,69.2093,-0.183653
60.854,69.2093,-0.183653
60.885,69.2093,-0.183653
60.916,69.2093,-0.183653
60.947,69.2093,-0.183653
60.978,69.2093,-0.165293
61.009,69.2093,-0.165293
61.041,69.2093,-0.165293
61.072,69.2093,-0.165293
61.103,69.2093,-0.165293
61.133,69.2093,-0.165293
61.163,69.2093,-0.165293
61.198,69.2093,-0.165293
61.225,69.2093,-0.155441
61.257,69.2093,-0.155441
61.288,69.2093,-0.155441
61.319,69.2093,-0.155441
61.349,69.2093,-0.155441
61.379,69.2093,-0.155441
61.410,69.2093,-0.155441
61.441,69.2093,-0.155441
61.472,69.2093,-0.148637
61.503,69.2093,-0.148637
61.534,69.2093,-0.148637
61.565,69.2093,-0.148637
61.596,69.2093,-0.148637
61.628,69.2093,-0.148637
61.658,69.2093,-0.148637
61.689,69.2093,-0.148637
61.720,69.2093,-0.143424
61.750,69.2093,-0.143424
61.781,69.2093,-0.143424
61.814,69.2093,-0.143424
61.844,69.2093,-0.143424
61.874,69.2093,-0.143424
61.905,69.2093,-0.143424
61.936,69.2093,-0.143424
61.967,69.2093,-0.139330
61.999,69.2093,-0.139330
62.030,69.2093,-0.139330
62.062,69.2093,-0.139330
62.092,69.2093,-0.139330
62.123,69.2093,-0.139330
62.154,69.2093,-0.139330
62.186,69.2093,-0.139330
62.217,69.2093,-0.135961
62.248,69.2093,-0.135961
62.279,69.2093,-0.135961
62.310,69.2093,-0.135961
62.341,69.2093,-0.135961
62.372,69.2093,-0.135961
62.404,69.2093,-0.135961
62.435,69.2093,-0.135961
62.467,69.2093,-0.133091
62.498,69.2093,-0.133091
62.529,69.2093,-0.133091
62.561,69.2093,-0.133091
62.591,69.2093,-0.133091
62.623,69.2093,-0.133091
62.654,69.2093,-0.133091
62.685,69.2093,-0.133091
62.716,69.2093,-0.130579
62.747,69.2093,-0.130579
62.778,69.2093,-0.130579
62.809,69.2093,-0.130579
62.841,69.2093,-0.130579
62.871,69.2093,-0.130579
62.902,69.2093,-0.130579
62.933,69.2093,-0.130579
62.964,69.2093,-0.128348
62.995,69.2093,-0.128348
63.026,69.2093,-0.128348
63.058,69.2093,-0.128348
63.089,69.2093,-0.128348
63.120,69.2093,-0.128348
63.151,69.2093,-0.128348
63.183,69.2093,-0.128348
63.213,69.2093,-0.126457
63.244,69.2093,-0.126457
63.275,69.2093,-0.126457
63.305,69.2093,-0.126457
63.336,69.2093,-0.126457
63.367,69.2093,-0.126457
63.398,69.2093,-0.126457
63.429,69.2093,-0.126457
63.460,69.2093,-0.126457
63.491,69.2093,-0.124744
63.523,69.2093,-0.124744
63.554,69.2093,-0.124744
63.586,69.2093,-0.124744
63.618,69.2093,-0.124744
63.649,69.2093,-0.124744
63.680,69.2093,-0.124744
63.712,69.2093,-0.123257
63.743,69.2093,-0.123257
63.774,69.2093,-0.123257
63.804,69.2093,-0.123257
63.835,69.2093,-0.123257
63.867,69.2093,-0.123257
63.898,69.2093,-0.123257
63.931,69.2093,-0.123257
63.962,69.2093,-0.121498
63.993,69.2093,-0.121498
64.025,69.2093,-0.121498
64.056,69.2093,-0.121498
64.087,69.2093,-0.121498
64.119,69.2093,-0.121498
64.150,69.2093,-0.121498
64.182,69.2093,-0.121498
64.212,69.2093,-0.121498
64.242,69.2093,-0.119446
64.273,69.2093,-0.119446
64.303,69.2093,-0.119446
64.334,69.2093,-0.119446
64.366,69.2093,-0.119446
64.396,69.2093,-0.119446
64.428,69.2092,-0.119446
64.459,69.2086,-0.117479
64.489,69.2071,-0.117479
64.521,69.2050,-0.117479
64.552,69.2021,-0.117479
64.582,69.1986,-0.117479
64.613,69.1943,-0.117479
64.645,69.1891,-0.117479
64.675,69.1834,-0.117479
64.706,69.1769,-0.043815
64.737,69.1697,-0.043815
64.768,69.1617,-0.043815
64.798,69.1535,-0.043815
64.829,69.1439,-0.043815
64.860,69.1338,-0.043815
64.892,69.1226,-0.043815
64.922,69.1113,-0.043815
64.954,69.0990,0.010380
64.985,69.0858,0.010380
65.016,69.0720,0.010380
65.048,69.0572,0.010380
65.078,69.0425,0.010380
65.109,69.0264,0.010380
65.139,69.0100,0.010380
65.171,68.9924,0.010380
65.201,68.9740,0.010380
65.232,68.9557,0.010380
65.263,68.9359,-0.006757
65.294,68.9160,-0.006757
65.325,68.8946,-0.006757
65.356,68.8734,-0.006757
65.387,68.8507,-0.006757
65.418,68.8277,-0.006757
65.448,68.8040,-0.006757
65.479,68.7797,0.005345
65.511,68.7534,0.005345
65.542,68.7275,0.005345
65.574,68.6998,0.005345
65.605,68.6720,0.005345
65.635,68.6444,0.005345
65.666,68.6161,0.005345
65.697,68.5858,0.026255
65.728,68.5548,0.026255
65.759,68.5239,0.026255
65.792,68.4907,0.026255
65.821,68.4602,0.026255
65.851,68.4271,0.026255
65.883,68.3919,0.026255
65.915,68.3565,0.026255
65.945,68.3222,0.026255
65.975,68.2862,0.042629
66.008,68.2477,0.042629
66.038,68.2099,0.042629
66.069,68.1728,0.042629
66.100,68.1328,0.042629
66.130,68.0933,0.042629
66.161,68.0528,0.042629
66.192,68.0122,0.042629
66.224,67.9697,0.042629
66.255,67.9255,0.051936
66.286,67.8821,0.051936
66.316,67.8407,0.051936
66.347,67.7941,0.051936
66.378,67.7493,0.051936
66.409,67.7015,0.051936
66.440,67.6563,0.051936
66.472,67.6077,0.051936
66.502,67.5633,0.056716
66.533,67.5156,0.056716
66.564,67.4705,0.056716
66.595,67.4242,0.056716
66.626,67.3781,0.056716
66.657,67.3313,0.056716
66.687,67.2853,0.056716
66.718,67.2389,0.059558
66.749,67.1912,0.059558
66.780,67.1453,0.059558
66.811,67.0982,0.059558
66.842,67.0520,0.059558
66.874,67.0045,0.059558
66.905,66.9584,0.059558
66.935,66.9125,0.059558
66.967,66.8660,0.059558
66.999,66.8176,0.060744
67.030,66.7715,0.060744
67.060,66.7247,0.060744
67.092,66.6781,0.060744
67.123,66.6315,0.060744
67.153,66.5864,0.060744
67.184,66.5392,0.060744
67.215,66.4926,0.060744
67.247,66.4464,0.060321
67.277,66.4004,0.060321
67.308,66.3544,0.060321
67.339,66.3070,0.060321
67.371,66.2603,0.060321
67.401,66.2141,0.060321
67.433,66.1675,0.060321
67.463,66.1217,0.062720
67.495,66.0726,0.062720
67.520,66.0353,0.062720
67.557,65.9810,0.062720
67.588,65.9342,0.062720
67.619,65.8878,0.062720
67.651,65.8400,0.062720
67.682,65.7927,0.062720
67.713,65.7453,0.047842
67.746,65.6979,0.047842
67.777,65.6509,0.047842
67.808,65.6041,0.047842
67.839,65.5584,0.047842
67.870,65.5136,0.047842
67.901,65.4701,0.047842
67.933,65.4251,0.047842
67.964,65.3823,0.021663
67.995,65.3417,0.021663
68.025,65.3011,0.021663
68.057,65.2588,0.021663
68.088,65.2205,0.021663
68.118,65.1815,0.021663
68.150,65.1436,0.021663
68.180,65.1062,0.021663
68.211,65.0698,0.012506
68.242,65.0338,0.012506
68.273,64.9985,0.012506
68.304,64.9632,0.012506
68.335,64.9297,0.012506
68.367,64.8963,0.012506
68.398,64.8634,0.012506
68.430,64.8305,0.012506
68.461,64.7998,0.011490
68.491,64.7705,0.011490
68.523,64.7407,0.011490
68.553,64.7125,0.011490
68.584,64.6845,0.011490
68.615,64.6578,0.011490
68.646,64.6310,0.011490
68.677,64.6050,0.011490
68.708,64.5799,0.011038
68.739,64.5551,0.011038
68.770,64.5318,0.011038
68.801,64.5084,0.011038
68.833,64.4864,0.011038
68.864,64.4642,0.011038
68.895,64.4442,0.011038
68.925,64.4245,0.011038
68.956,64.4052,0.010718
68.987,64.3864,0.010718
69.018,64.3688,0.010718
69.048,64.3523,0.010718
69.080,64.3353,0.010718
69.111,64.3197,0.010718
69.142,64.3047,0.010718
69.174,64.2903,0.010718
69.205,64.2769,0.010493
69.236,64.2640,0.010493
69.267,64.2520,0.010493
69.298,64.2408,0.010493
69.329,64.2301,0.010493
69.361,64.2203,0.010493
69.391,64.2113,0.010493
69.422,64.2030,0.010493
69.453,64.1955,0.010333
69.484,64.1885,0.010333
69.516,64.1824,0.010333
69.547,64.1767,0.010333
69.579,64.1720,0.010333
69.611,64.1680,0.010333
69.642,64.1648,0.010333
69.672,64.1623,0.010333
69.703,64.1607,0.010229
69.733,64.1597,0.010229
69.764,64.1593,0.010229
69.796,64.1593,0.010229
69.827,64.1593,0.010229
69.859,64.1593,0.010229
69.889,64.1593,0.010229
69.920,64.1594,0.010229
69.951,64.1602,0.010229
69.982,64.1617,0.010154
70.013,64.1639,0.010154
70.045,64.1670,0.010154
70.075,64.1705,0.010154
70.106,64.1751,0.010154
70.137,64.1800,0.010154
70.168,64.1860,0.010154
70.200,64.1927,0.010154
70.232,64.2002,0.009994
70.261,64.2080,0.009994
70.292,64.2166,0.009994
70.323,64.2262,0.009994
70.355,64.2366,0.009994
70.386,64.2476,0.009994
70.417,64.2593,0.009994
70.448,64.2715,0.009994
70.478,64.2846,0.009994
70.510,64.2988,0.009787
70.540,64.3127,0.009787
70.572,64.3288,0.009787
70.600,64.3431,0.009787
70.630,64.3595,0.009787
70.661,64.3770,0.009787
70.692,64.3950,0.009787
70.723,64.4139,0.009787
70.754,64.4330,0.009608
70.784,64.4531,0.009608
70.815,64.4745,0.009608
70.846,64.4960,0.009608
70.877,64.5185,0.009608
70.910,64.5434,0.009608
70.939,64.5654,0.009608
70.971,64.5905,0.009326
71.002,64.6170,0.009326
71.033,64.6428,0.009326
71.065,64.6703,0.009326
71.097,64.6989,0.009326
71.128,64.7278,0.009326
71.160,64.7573,0.009326
71.191,64.7870,0.009326
71.221,64.8164,0.009326
71.253,64.8489,0.008968
71.283,64.8806,0.008968
71.311,64.9101,0.008968
71.345,64.9466,0.008968
71.376,64.9811,0.008968
71.407,65.0147,0.008968
71.437,65.0502,0.008968
71.469,65.0869,0.008545
71.499,65.1235,0.008545
71.530,65.1622,0.008545
71.562,65.2002,0.008545
71.593,65.2403,0.008545
71.624,65.2797,0.008545
71.655,65.3219,0.008545
71.687,65.3639,0.008545
71.718,65.4064,0.007971
71.748,65.4480,0.007971
71.779,65.4928,0.007971
71.811,65.5362,0.007971
71.842,65.5827,0.007971
71.873,65.6287,0.007971
71.904,65.6741,0.007971
71.937,65.7256,0.007971
71.966,65.7688,0.007114
71.998,65.8155,0.007114
72.029,65.8619,0.007114
72.063,65.9134,0.007114
72.091,65.9549,0.007114
72.123,66.0030,0.007114
72.154,66.0493,0.007114
72.185,66.0967,0.007114
72.216,66.1419,0.006154
72.247,66.1891,0.006154
72.279,66.2368,0.006154
72.310,66.2838,0.006154
72.341,66.3310,0.006154
72.371,66.3762,0.006154
72.403,66.4227,0.006154
72.434,66.4705,0.006154
72.465,66.5156,0.005053
72.496,66.5624,0.005053
72.526,66.6075,0.005053
72.557,66.6540,0.005053
72.588,66.7007,0.005053
72.619,66.7471,0.005053
72.650,66.7934,0.005053
72.681,66.8401,0.005053
72.711,66.8846,0.003341
72.742,66.9330,0.003341
72.773,66.9782,0.003341
72.804,67.0247,0.003341
72.835,67.0720,0.003341
72.866,67.1185,0.003341
72.897,67.1656,0.003341
72.929,67.2114,0.003341
72.959,67.2573,0.000640
72.991,67.3057,0.000640
73.022,67.3520,0.000640
73.052,67.3977,0.000640
73.083,67.4444,0.000640
73.115,67.4905,0.000640
73.146,67.5382,0.000640
73.176,67.5825,0.000640
73.207,67.6282,-0.004338
73.238,67.6764,-0.004338
73.269,67.7218,-0.004338
73.300,67.7670,-0.004338
73.331,67.8117,-0.004338
73.362,67.8562,-0.004338
73.393,67.8989,-0.004338
73.425,67.9426,-0.004338
73.455,67.9833,-0.004338
73.488,68.0266,-0.013796
73.518,68.0651,-0.013796
73.549,68.1059,-0.013796
73.579,68.1428,-0.013796
73.610,68.1810,-0.013796
73.641,68.2180,-0.013796
73.673,68.2561,-0.013796
73.704,68.2911,-0.029539
73.735,68.3274,-0.029539
73.766,68.3612,-0.029539
73.796,68.3936,-0.029539
73.827,68.4271,-0.029539
73.858,68.4598,-0.029539
73.889,68.4918,-0.029539
73.921,68.5223,-0.029539
73.952,68.5523,-0.029539
73.983,68.5821,-0.029539
74.014,68.6113,-0.052821
74.045,68.6379,-0.052821
74.075,68.6653,-0.052821
74.106,68.6916,-0.052821
74.138,68.7179,-0.052821
74.169,68.7428,-0.052821
74.200,68.7674,-0.052821
74.231,68.7908,-0.082981
74.264,68.8153,-0.082981
74.295,68.8366,-0.082981
74.325,68.8579,-0.082981
74.356,68.8784,-0.082981
74.387,68.8980,-0.082981
74.417,68.9167,-0.082981
74.447,68.9346,-0.082981
74.479,68.9527,-0.121639
74.515,68.9727,-0.121639
74.541,68.9858,-0.121639
74.572,69.0019,-0.121639
74.604,69.0163,-0.121639
74.634,69.0302,-0.121639
74.665,69.0435,-0.121639
74.696,69.0562,-0.121639
74.728,69.0683,-0.189996
74.759,69.0798,-0.189996
74.790,69.0901,-0.189996
74.821,69.0999,-0.189996
74.851,69.1085,-0.189996
74.883,69.1170,-0.189996
74.915,69.1243,-0.189996
74.946,69.1313,-0.189996
74.976,69.1374,-0.293585
75.007,69.1426,-0.293585
75.037,69.1469,-0.293585
75.067,69.1508,-0.293585
75.098,69.1539,-0.293585
75.129,69.1563,-0.293585
75.160,69.1581,-0.293585
75.191,69.1591,-0.293585
75.221,69.1593,-0.368539
75.252,69.1593,-0.368539
75.283,69.1593,-0.368539
75.314,69.1593,-0.368539
75.346,69.1593,-0.368539
75.377,69.1593,-0.368539
75.408,69.1593,-0.368539
75.439,69.1593,-0.368539
75.470,69.1593,-0.307447
75.501,69.1593,-0.307447
75.532,69.1593,-0.307447
75.564,69.1593,-0.307447
75.594,69.1593,-0.307447
75.625,69.1593,-0.307447
75.656,69.1593,-0.307447
75.688,69.1593,-0.307447
75.717,69.1593,-0.204497
75.750,69.1593,-0.204497
75.780,69.1593,-0.204497
75.811,69.1593,-0.204497
75.842,69.1593,-0.204497
75.873,69.1593,-0.204497
75.905,69.1593,-0.204497
75.935,69.1593,-0.204497
75.966,69.1593,-0.172191
75.998,69.1593,-0.172191
76.029,69.1593,-0.172191
76.060,69.1593,-0.172191
76.090,69.1593,-0.172191
76.121,69.1593,-0.172191
76.152,69.1593,-0.172191
76.183,69.1593,-0.172191
76.214,69.1593,-0.172191
76.245,69.1593,-0.159478
76.276,69.1593,-0.159478
76.309,69.1593,-0.159478
76.338,69.1593,-0.159478
76.370,69.1593,-0.159478
76.400,69.1593,-0.159478
76.431,69.1593,-0.159478
76.462,69.1593,-0.151413
76.493,69.1593,-0.151413
76.523,69.1593,-0.151413
76.555,69.1593,-0.151413
76.586,69.1593,-0.151413
76.617,69.1593,-0.151413
76.648,69.1593,-0.151413
76.679,69.1593,-0.151413
76.710,69.1593,-0.145532
76.740,69.1593,-0.145532
76.771,69.1593,-0.145532
76.803,69.1593,-0.145532
76.833,69.1593,-0.145532
76.864,69.1593,-0.145532
76.895,69.1593,-0.145532
76.926,69.1593,-0.145532
76.957,69.1593,-0.140958
76.988,69.1593,-0.140958
77.019,69.1593,-0.140958
77.051,69.1593,-0.140958
77.081,69.1593,-0.140958
77.111,69.1593,-0.140958
77.142,69.1593,-0.140958
77.174,69.1593,-0.140958
77.206,69.1593,-0.137288
77.237,69.1593,-0.137288
77.268,69.1593,-0.137288
77.299,69.1593,-0.137288
77.330,69.1593,-0.137288
77.361,69.1593,-0.137288
77.392,69.1593,-0.137288
77.421,69.1593,-0.137288
77.452,69.1593,-0.134202
77.483,69.1593,-0.134202
77.515,69.1593,-0.134202
77.546,69.1593,-0.134202
77.579,69.1593,-0.134202
77.607,69.1593,-0.134202
77.638,69.1593,-0.134202
77.670,69.1593,-0.134202
77.701,69.1593,-0.134202
77.732,69.1593,-0.131520
77.764,69.1593,-0.131520
77.794,69.1593,-0.131520
77.825,69.1593,-0.131520
77.856,69.1593,-0.131520
77.886,69.1593,-0.131520
77.917,69.1593,-0.131520
77.949,69.1593,-0.131520
77.980,69.1593,-0.129195
78.013,69.1593,-0.129195
78.041,69.1593,-0.129195
78.074,69.1593,-0.129195
78.104,69.1593,-0.129195
78.133,69.1593,-0.129195
78.165,69.1593,-0.129195
78.195,69.1593,-0.129195
78.227,69.1593,-0.127238
78.257,69.1593,-0.127238
78.288,69.1593,-0.127238
78.319,69.1593,-0.127238
78.350,69.1593,-0.127238
78.381,69.1593,-0.127238
78.412,69.1593,-0.127238
78.442,69.1593,-0.127238
78.473,69.1593,-0.125440
78.505,69.1593,-0.125440
78.536,69.1593,-0.125440
78.567,69.1593,-0.125440
78.598,69.1593,-0.125440
78.629,69.1593,-0.125440
78.659,69.1593,-0.125440
78.690,69.1593,-0.125440
78.721,69.1593,-0.123765
78.751,69.1593,-0.123765
78.783,69.1593,-0.123765
78.814,69.1593,-0.123765
78.845,69.1593,-0.123765
78.876,69.1593,-0.123765
78.907,69.1593,-0.123765
78.938,69.1593,-0.123765
78.969,69.1593,-0.123765
78.999,69.1593,-0.122156
79.031,69.1593,-0.122156
79.062,69.1593,-0.122156
79.093,69.1593,-0.122156
79.124,69.1593,-0.122156
79.156,69.1593,-0.122156
79.186,69.1593,-0.122156
79.217,69.1593,-0.120237
79.248,69.1593,-0.120237
79.279,69.1593,-0.120237
79.311,69.1593,-0.120237
79.341,69.1593,-0.120237
79.372,69.1593,-0.120237
79.402,69.1593,-0.120237
79.434,69.1593,-0.120237
79.464,69.1593,-0.120237
79.495,69.1593,-0.118157
79.526,69.1593,-0.118157
79.557,69.1593,-0.118157
79.588,69.1588,-0.118157
79.619,69.1575,-0.118157
79.650,69.1555,-0.118157
79.681,69.1527,-0.118157
79.712,69.1494,-0.116491
79.743,69.1452,-0.116491
79.774,69.1405,-0.116491
79.805,69.1348,-0.116491
79.835,69.1284,-0.116491
79.866,69.1215,-0.116491
79.898,69.1135,-0.116491
79.929,69.1050,-0.116491
79.960,69.0957,0.017795
79.991,69.0856,0.017795
80.021,69.0753,0.017795
80.052,69.0639,0.017795
80.083,69.0518,0.017795
80.114,69.0390,0.017795
80.146,69.0250,0.017795
80.176,69.0111,0.017795
80.207,68.9957,0.017795
80.239,68.9797,0.069439
80.271,68.9627,0.069439
80.301,68.9459,0.069439
80.333,68.9275,0.069439
80.362,68.9095,0.069439
80.394,68.8901,0.069439
80.424,68.8701,0.069439
80.456,68.8489,0.069439
80.486,68.8278,-0.004131
80.518,68.8049,-0.004131
80.548,68.7818,-0.004131
80.579,68.7588,-0.004131
80.610,68.7340,-0.004131
80.641,68.7087,-0.004131
80.672,68.6832,-0.004131
80.704,68.6557,-0.004131
80.735,68.6284,0.015339
80.765,68.6006,0.015339
80.797,68.5714,0.015339
80.828,68.5412,0.015339
80.859,68.5112,0.015339
80.890,68.4795,0.015339
80.921,68.4484,0.015339
80.956,68.4110,0.015339
80.983,68.3823,0.035054
81.014,68.3478,0.035054
81.045,68.3137,0.035054
81.076,68.2773,0.035054
81.108,68.2407,0.035054
81.139,68.2033,0.035054
81.170,68.1663,0.035054
81.201,68.1284,0.035054
81.232,68.0895,0.048407
81.262,68.0502,0.048407
81.294,68.0090,0.048407
81.325,67.9678,0.048407
81.355,67.9263,0.048407
81.387,67.8821,0.048407
81.417,67.8400,0.048407
81.449,67.7949,0.048407
81.481,67.7487,0.055418
81.511,67.7046,0.055418
81.541,67.6592,0.055418
81.572,67.6122,0.055418
81.602,67.5673,0.055418
81.634,67.5198,0.055418
81.665,67.4741,0.055418
81.696,67.4272,0.055418
81.727,67.3809,0.055418
81.758,67.3336,0.059229
81.789,67.2872,0.059229
81.821,67.2389,0.059229
81.851,67.1944,0.059229
81.882,67.1475,0.059229
81.913,67.1014,0.059229
81.944,67.0551,0.059229
81.974,67.0090,0.061158
82.005,66.9622,0.061158
82.037,66.9152,0.061158
82.068,66.8690,0.061158
82.099,66.8223,0.061158
82.130,66.7752,0.061158
82.161,66.7294,0.061158
82.192,66.6826,0.061158
82.224,66.6349,0.060584
82.255,66.5891,0.060584
82.286,66.5408,0.060584
82.318,66.4948,0.060584
82.348,66.4490,0.060584
82.379,66.4026,0.060584
82.409,66.3577,0.060584
82.440,66.3109,0.060584
82.471,66.2646,0.061958
82.504,66.2159,0.061958
82.534,66.1695,0.061958
82.565,66.1226,0.061958
82.596,66.0763,0.061958
82.627,66.0311,0.061958
82.658,65.9836,0.061958
82.689,65.9372,0.061958
82.720,65.8912,0.065186
82.750,65.8450,0.065186
82.782,65.7980,0.065186
82.813,65.7518,0.065186
82.843,65.7048,0.065186
82.880,65.6506,0.065186
82.920,65.5908,0.065186
82.952,65.5442,0.041622
82.982,65.4996,0.041622
83.014,65.4535,0.041622
83.044,65.4103,0.041622
83.076,65.3657,0.041622
83.107,65.3239,0.041622
83.138,65.2812,0.041622
83.170,65.2392,0.041622
83.201,65.2002,0.014812
83.233,65.1592,0.014812
83.262,65.1230,0.014812
83.294,65.0842,0.014812
83.325,65.0460,0.014812
83.355,65.0105,0.014812
83.387,64.9738,0.014812
83.417,64.9405,0.014812
83.451,64.9023,0.014812
83.480,64.8716,0.011942
83.510,64.8381,0.011942
83.544,64.8040,0.011942
83.574,64.7731,0.011942
83.605,64.7428,0.011942
83.634,64.7134,0.011942
83.667,64.6837,0.011942
83.697,64.6559,0.011264
83.728,64.6277,0.011264
83.759,64.6010,0.011264
83.790,64.5738,0.011264
83.822,64.5485,0.011264
83.852,64.5237,0.011264
83.883,64.4996,0.011264
83.919,64.4725,0.011264
83.947,64.4525,0.011264
83.978,64.4301,0.010916
84.009,64.4087,0.010916
84.039,64.3889,0.010916
84.073,64.3672,0.010916
84.101,64.3501,0.010916
84.132,64.3317,0.010916
84.163,64.3136,0.010916
84.194,64.2970,0.010916
84.226,64.2805,0.010681
84.257,64.2647,0.010681
84.288,64.2503,0.010681
84.319,64.2365,0.010681
84.350,64.2233,0.010681
84.381,64.2108,0.010681
84.412,64.1986,0.010681
84.443,64.1878,0.010681
84.473,64.1778,0.010474
84.505,64.1677,0.010474
84.537,64.1588,0.010474
84.567,64.1506,0.010474
84.600,64.1431,0.010474
84.629,64.1367,0.010474
84.661,64.1305,0.010474
84.691,64.1256,0.010474
84.722,64.1212,0.010474
84.753,64.1174,0.010323
84.784,64.1143,0.010323
84.815,64.1119,0.010323
84.846,64.1103,0.010323
84.878,64.1095,0.010323
84.909,64.1093,0.010323
84.938,64.1093,0.010323
84.971,64.1093,0.010210
85.003,64.1093,0.010210
85.032,64.1093,0.010210
85.063,64.1093,0.010210
85.094,64.1093,0.010210
85.126,64.1095,0.010210
85.157,64.1103,0.010210
85.188,64.1119,0.010210
85.218,64.1142,0.010210
85.250,64.1173,0.010116
85.281,64.1210,0.010116
85.312,64.1257,0.010116
85.344,64.1309,0.010116
85.374,64.1367,0.010116
85.405,64.1433,0.010116
85.436,64.1508,0.010116
85.467,64.1589,0.010116
85.497,64.1674,0.009947
85.529,64.1770,0.009947
85.560,64.1876,0.009947
85.593,64.1992,0.009947
85.624,64.2109,0.009947
85.655,64.2236,0.009947
85.687,64.2371,0.009947
85.717,64.2508,0.009730
85.748,64.2660,0.009730
85.778,64.2805,0.009730
85.809,64.2971,0.009730
85.840,64.3133,0.009730
85.872,64.3318,0.009730
85.904,64.3503,0.009730
85.935,64.3701,0.009730
85.965,64.3889,0.009730
85.996,64.4097,0.009580
86.026,64.4307,0.009580
86.058,64.4524,0.009580
86.089,64.4756,0.009580
86.120,64.4986,0.009580
86.150,64.5226,0.009580
86.181,64.5476,0.009580
86.212,64.5728,0.009580
86.243,64.5996,0.009326
86.275,64.6270,0.009326
86.307,64.6553,0.009326
86.338,64.6849,0.009326
86.370,64.7146,0.009326
86.401,64.7449,0.009326
86.432,64.7758,0.009326
86.464,64.8078,0.008940
86.495,64.8396,0.008940
86.525,64.8728,0.008940
86.556,64.9058,0.008940
86.587,64.9403,0.008940
86.618,64.9754,0.008940
86.649,65.0113,0.008940
86.681,65.0483,0.008940
86.712,65.0863,0.008469
86.743,65.1237,0.008469
86.774,65.1623,0.008469
86.804,65.2007,0.008469
86.835,65.2417,0.008469
86.866,65.2822,0.008469
86.897,65.3243,0.008469
86.929,65.3675,0.008469
86.960,65.4110,0.007886
86.991,65.4561,0.007886
87.022,65.4993,0.007886
87.053,65.5440,0.007886
87.084,65.5907,0.007886
87.116,65.6380,0.007886
87.145,65.6827,0.007886
87.177,65.7307,0.007886
87.208,65.7761,0.007020
87.240,65.8249,0.007020
87.269,65.8688,0.007020
87.301,65.9165,0.007020
87.331,65.9615,0.007020
87.364,66.0101,0.007020
87.394,66.0560,0.007020
87.426,66.1029,0.007020
87.456,66.1504,0.006032
87.487,66.1961,0.006032
87.517,66.2394,0.006032
87.548,66.2872,0.006032
87.578,66.3316,0.006032
87.611,66.3813,0.006032
87.640,66.4250,0.006032
87.674,66.4759,0.006032
87.703,66.5186,0.006032
87.734,66.5659,0.004799
87.766,66.6134,0.004799
87.797,66.6595,0.004799
87.828,66.7067,0.004799
87.859,66.7536,0.004799
87.891,66.8005,0.004799
87.922,66.8485,0.004799
87.952,66.8924,0.002870
87.983,66.9389,0.002870
88.014,66.9847,0.002870
88.044,67.0313,0.002870
88.075,67.0784,0.002870
88.106,67.1240,0.002870
88.138,67.1718,0.002870
88.168,67.2180,0.002870
88.199,67.2644,0.002870
88.230,67.3098,-0.000160
88.260,67.3548,-0.000160
88.292,67.4029,-0.000160
88.322,67.4474,-0.000160
88.353,67.4939,-0.000160
88.384,67.5412,-0.000160
88.415,67.5883,-0.000160
88.447,67.6349,-0.000160
88.478,67.6822,-0.005778
88.509,67.7270,-0.005778
88.540,67.7714,-0.005778
88.572,67.8151,-0.005778
88.603,67.8593,-0.005778
88.633,67.9004,-0.005778
88.664,67.9421,-0.005778
88.697,67.9857,-0.005778
88.728,68.0249,-0.005778
88.757,68.0621,-0.016336
88.790,68.1031,-0.016336
88.822,68.1436,-0.016336
88.851,68.1770,-0.016336
88.882,68.2138,-0.016336
88.913,68.2491,-0.016336
88.944,68.2843,-0.016336
88.975,68.3193,-0.033567
89.007,68.3529,-0.033567
89.039,68.3866,-0.033567
89.069,68.4179,-0.033567
89.101,68.4504,-0.033567
89.131,68.4802,-0.033567
89.163,68.5105,-0.033567
89.193,68.5392,-0.033567
89.224,68.5678,-0.033567
89.256,68.5965,-0.058316
89.287,68.6232,-0.058316
89.313,68.6452,-0.058316
89.348,68.6739,-0.058316
89.379,68.6989,-0.058316
89.412,68.7239,-0.058316
89.442,68.7476,-0.058316
89.473,68.7693,-0.089606
89.505,68.7925,-0.089606
89.535,68.8125,-0.089606
89.566,68.8331,-0.089606
89.597,68.8527,-0.089606
89.629,68.8726,-0.089606
89.660,68.8904,-0.089606
89.690,68.9070,-0.089606
89.720,68.9242,-0.089606
89.752,68.9402,-0.131557
89.784,68.9560,-0.131557
89.814,68.9702,-0.131557
89.845,68.9843,-0.131557
89.876,68.9970,-0.131557
89.906,69.0095,-0.131557
89.938,69.0212,-0.131557
89.969,69.0324,-0.207555
90.001,69.0427,-0.207555
90.033,69.0527,-0.207555
90.065,69.0616,-0.207555
90.096,69.0695,-0.207555
90.126,69.0766,-0.207555
90.157,69.0832,-0.207555
90.188,69.0889,-0.207555
90.219,69.0940,-0.314062
90.250,69.0984,-0.314062
90.282,69.1020,-0.314062
90.314,69.1050,-0.314062
90.344,69.1071,-0.314062
90.376,69.1086,-0.314062
90.406,69.1092,-0.314062
90.437,69.1093,-0.314062
90.467,69.1093,-0.366779
90.498,69.1093,-0.366779
90.528,69.1093,-0.366779
90.558,69.1093,-0.366779
90.588,69.1093,-0.366779
90.624,69.1093,-0.366779
90.651,69.1093,-0.366779
90.682,69.1093,-0.366779
