Elapsed Time (s),Position (mm),Force (N)
-0.009,79.4094,-0.025474
0.021,79.4094,-0.025474
0.053,79.4094,-0.025474
0.084,79.4094,-0.023912
0.115,79.4094,-0.023912
0.146,79.4094,-0.023912
0.177,79.4094,-0.023912
0.208,79.4094,-0.023912
0.238,79.4094,-0.023912
0.269,79.4094,-0.023912
0.299,79.4094,-0.022773
0.330,79.4094,-0.022773
0.361,79.4094,-0.022773
0.393,79.4094,-0.022773
0.424,79.4094,-0.022773
0.455,79.4094,-0.022773
0.486,79.4094,-0.022773
0.517,79.4094,-0.022773
0.549,79.4094,-0.021917
0.580,79.4094,-0.021917
0.611,79.4094,-0.021917
0.642,79.4094,-0.021917
0.673,79.4094,-0.021917
0.703,79.4094,-0.021917
0.736,79.4094,-0.021917
0.766,79.4094,-0.021917
0.798,79.4094,-0.021917
0.828,79.4094,-0.021145
0.859,79.4094,-0.021145
0.893,79.4094,-0.021145
0.923,79.4094,-0.021145
0.954,79.4094,-0.021145
0.985,79.4094,-0.021145
1.019,79.4094,-0.021145
1.048,79.4094,-0.021145
1.079,79.4094,-0.020430
1.110,79.4094,-0.020430
1.141,79.4094,-0.020430
1.172,79.4094,-0.020430
1.203,79.4094,-0.020430
1.235,79.4094,-0.020430
1.266,79.4094,-0.020430
1.296,79.4094,-0.020430
1.327,79.4094,-0.019912
1.358,79.4094,-0.019912
1.389,79.4094,-0.019912
1.420,79.4094,-0.019912
1.452,79.4094,-0.019912
1.483,79.4094,-0.019912
1.515,79.4094,-0.019912
1.545,79.4094,-0.019442
1.577,79.4094,-0.019442
1.609,79.4094,-0.019442
1.639,79.4094,-0.019442
1.671,79.4094,-0.019442
1.701,79.4094,-0.019442
1.732,79.4094,-0.019442
1.762,79.4094,-0.019442
1.793,79.4094,-0.018971
1.824,79.4094,-0.018971
1.856,79.4094,-0.018971
1.887,79.4094,-0.018971
1.918,79.4094,-0.018971
1.950,79.4094,-0.018971
1.981,79.4094,-0.018971
2.012,79.4094,-0.018971
2.043,79.4094,-0.018604
2.073,79.4094,-0.018604
2.105,79.4094,-0.018604
2.137,79.4094,-0.018604
2.166,79.4094,-0.018604
2.198,79.4094,-0.018604
2.229,79.4094,-0.018604
2.261,79.4094,-0.018604
2.291,79.4094,-0.018294
2.323,79.4094,-0.018294
2.354,79.4094,-0.018294
2.384,79.4094,-0.018294
2.415,79.4094,-0.018294
2.446,79.4094,-0.018294
2.477,79.4094,-0.018294
2.509,79.4094,-0.018294
2.540,79.4094,-0.018294
2.571,79.4094,-0.017964
2.602,79.4094,-0.017964
2.634,79.4094,-0.017964
2.664,79.4094,-0.017964
2.696,79.4094,-0.017964
2.725,79.4094,-0.017964
2.757,79.4094,-0.017964
2.788,79.4094,-0.017964
2.819,79.4094,-0.017654
2.854,79.4094,-0.017654
2.881,79.4094,-0.017654
2.914,79.4094,-0.017654
2.944,79.4094,-0.017654
2.975,79.4094,-0.017654
3.006,79.4094,-0.017654
3.036,79.4094,-0.017400
3.068,79.4094,-0.017400
3.099,79.4094,-0.017400
3.130,79.4094,-0.017400
3.161,79.4094,-0.017400
3.192,79.4094,-0.017400
3.224,79.4094,-0.017400
3.255,79.4094,-0.017400
3.286,79.4094,-0.017202
3.317,79.4094,-0.017202
3.348,79.4094,-0.017202
3.380,79.4094,-0.017202
3.409,79.4094,-0.017202
3.440,79.4094,-0.017202
3.471,79.4094,-0.017202
3.502,79.4094,-0.017202
3.533,79.4094,-0.017202
3.565,79.4094,-0.016967
3.596,79.4094,-0.016967
3.628,79.4094,-0.016967
3.659,79.4094,-0.016967
3.695,79.4094,-0.016967
3.737,79.4094,-0.016967
3.767,79.4094,-0.016967
3.798,79.4094,-0.016967
3.831,79.4094,-0.016713
3.861,79.4094,-0.016713
3.891,79.4094,-0.016713
3.922,79.4094,-0.016713
3.953,79.4094,-0.016713
3.984,79.4094,-0.016713
4.014,79.4094,-0.016713
4.045,79.4094,-0.016713
4.077,79.4094,-0.016506
4.108,79.4094,-0.016506
4.139,79.4094,-0.016506
4.171,79.4089,-0.016506
4.202,79.4077,-0.016506
4.232,79.4058,-0.016506
4.264,79.4032,-0.016506
4.295,79.3998,-0.016506
4.325,79.3958,-0.016205
4.356,79.3910,-0.016205
4.387,79.3854,-0.016205
4.418,79.3791,-0.016205
4.451,79.3717,-0.016205
4.481,79.3642,-0.016205
4.512,79.3558,-0.016205
4.543,79.3467,-0.013542
4.575,79.3362,-0.013542
4.607,79.3253,-0.013542
4.638,79.3137,-0.013542
4.669,79.3017,-0.013542
4.700,79.2889,-0.013542
4.731,79.2752,-0.013542
4.761,79.2609,-0.013542
4.793,79.2461,-0.006060
4.823,79.2300,-0.006060
4.855,79.2138,-0.006060
4.886,79.1960,-0.006060
4.917,79.1785,-0.006060
4.947,79.1596,-0.006060
4.978,79.1407,-0.006060
5.008,79.1210,-0.006060
5.038,79.1014,0.004272
5.069,79.0797,0.004272
5.100,79.0574,0.004272
5.132,79.0337,0.004272
5.162,79.0107,0.004272
5.193,78.9862,0.004272
5.224,78.9605,0.004272
5.258,78.9326,0.004272
5.289,78.9056,0.004272
5.319,78.8794,0.013438
5.350,78.8512,0.013438
5.381,78.8222,0.013438
5.412,78.7932,0.013438
5.443,78.7631,0.013438
5.473,78.7322,0.013438
5.504,78.7009,0.013438
5.536,78.6673,0.013438
5.568,78.6327,0.019169
5.599,78.5992,0.019169
5.630,78.5645,0.019169
5.661,78.5287,0.019169
5.692,78.4923,0.019169
5.723,78.4557,0.019169
5.754,78.4183,0.019169
5.785,78.3791,0.019169
5.816,78.3395,0.023658
5.848,78.2991,0.023658
5.879,78.2585,0.023658
5.909,78.2189,0.023658
5.940,78.1776,0.023658
5.970,78.1344,0.023658
6.001,78.0920,0.023658
6.032,78.0473,0.023658
6.063,78.0028,0.030019
6.094,77.9574,0.030019
6.127,77.9093,0.030019
6.158,77.8622,0.030019
6.188,77.8163,0.030019
6.221,77.7670,0.030019
6.251,77.7214,0.030019
6.282,77.6761,0.030019
6.313,77.6297,0.036823
6.344,77.5830,0.036823
6.375,77.5366,0.036823
6.406,77.4896,0.036823
6.437,77.4446,0.036823
6.468,77.3970,0.036823
6.498,77.3518,0.036823
6.529,77.3049,0.036823
6.560,77.2594,0.031318
6.591,77.2120,0.031318
6.621,77.1674,0.031318
6.653,77.1189,0.031318
6.684,77.0730,0.031318
6.717,77.0236,0.031318
6.747,76.9794,0.031318
6.779,76.9312,0.031318
6.809,76.8850,0.015546
6.840,76.8383,0.015546
6.871,76.7926,0.015546
6.902,76.7464,0.015546
6.933,76.7002,0.015546
6.963,76.6539,0.015546
6.994,76.6064,0.015546
7.025,76.5608,0.015546
7.056,76.5145,0.015546
7.088,76.4671,0.007914
7.119,76.4200,0.007914
7.154,76.3673,0.007914
7.182,76.3255,0.007914
7.212,76.2804,0.007914
7.243,76.2332,0.007914
7.275,76.1867,0.007914
7.308,76.1369,0.007152
7.337,76.0940,0.007152
7.368,76.0456,0.007152
7.400,75.9998,0.007152
7.431,75.9520,0.007152
7.460,75.9093,0.007152
7.491,75.8623,0.007152
7.522,75.8152,0.007152
7.553,75.7714,0.006728
7.583,75.7264,0.006728
7.613,75.6834,0.006728
7.646,75.6367,0.006728
7.675,75.5975,0.006728
7.706,75.5545,0.006728
7.738,75.5135,0.006728
7.768,75.4743,0.006728
7.798,75.4355,0.006418
7.829,75.3963,0.006418
7.860,75.3574,0.006418
7.891,75.3193,0.006418
7.923,75.2819,0.006418
7.954,75.2442,0.006418
7.986,75.2088,0.006418
8.017,75.1736,0.006418
8.048,75.1406,0.006418
8.078,75.1070,0.006079
8.109,75.0745,0.006079
8.141,75.0416,0.006079
8.173,75.0100,0.006079
8.203,74.9794,0.006079
8.235,74.9501,0.006079
8.266,74.9206,0.006079
8.297,74.8919,0.005816
8.329,74.8643,0.005816
8.359,74.8385,0.005816
8.390,74.8119,0.005816
8.421,74.7872,0.005816
8.452,74.7627,0.005816
8.483,74.7384,0.005816
8.514,74.7148,0.005816
8.545,74.6926,0.005590
8.576,74.6712,0.005590
8.608,74.6497,0.005590
8.639,74.6295,0.005590
8.670,74.6095,0.005590
8.701,74.5912,0.005590
8.732,74.5731,0.005590
8.763,74.5563,0.005590
8.794,74.5396,0.005590
8.824,74.5241,0.005467
8.856,74.5084,0.005467
8.887,74.4944,0.005467
8.918,74.4803,0.005467
8.949,74.4673,0.005467
8.981,74.4551,0.005467
9.012,74.4436,0.005467
9.043,74.4330,0.005467
9.074,74.4229,0.005345
9.105,74.4137,0.005345
9.135,74.4051,0.005345
9.166,74.3976,0.005345
9.196,74.3907,0.005345
9.228,74.3842,0.005345
9.258,74.3787,0.005345
9.289,74.3736,0.005345
9.321,74.3695,0.005270
9.352,74.3658,0.005270
9.383,74.3632,0.005270
9.414,74.3612,0.005270
9.444,74.3600,0.005270
9.475,74.3594,0.005270
9.506,74.3594,0.005270
9.538,74.3594,0.005270
9.568,74.3594,0.005138
9.599,74.3594,0.005138
9.630,74.3594,0.005138
9.661,74.3594,0.005138
9.692,74.3594,0.005138
9.722,74.3594,0.005138
9.753,74.3594,0.005138
9.784,74.3594,0.005138
9.815,74.3594,0.005138
9.846,74.3594,0.005100
9.876,74.3594,0.005100
9.906,74.3594,0.005100
9.937,74.3594,0.005100
9.969,74.3594,0.005100
10.000,74.3594,0.005100
10.031,74.3594,0.005100
10.062,74.3594,0.005129
10.094,74.3594,0.005129
10.125,74.3594,0.005129
10.156,74.3595,0.005129
10.187,74.3602,0.005129
10.218,74.3618,0.005129
10.249,74.3640,0.005129
10.280,74.3669,0.005129
10.311,74.3707,0.005129
10.343,74.3752,0.005044
10.374,74.3805,0.005044
10.406,74.3864,0.005044
10.437,74.3930,0.005044
10.469,74.4008,0.005044
10.500,74.4089,0.005044
10.532,74.4180,0.005044
10.563,74.4276,0.004903
10.594,74.4378,0.004903
10.625,74.4490,0.004903
10.656,74.4607,0.004903
10.687,74.4732,0.004903
10.718,74.4866,0.004903
10.749,74.5006,0.004903
10.780,74.5150,0.004903
10.811,74.5304,0.004743
10.842,74.5470,0.004743
10.873,74.5634,0.004743
10.904,74.5814,0.004743
10.939,74.6020,0.004743
10.965,74.6182,0.004743
10.996,74.6374,0.004743
11.027,74.6584,0.004743
11.057,74.6790,0.004743
11.088,74.7009,0.004639
11.120,74.7239,0.004639
11.151,74.7476,0.004639
11.182,74.7715,0.004639
11.213,74.7962,0.004639
11.244,74.8219,0.004639
11.274,74.8475,0.004639
11.305,74.8746,0.004639
11.337,74.9023,0.004489
11.367,74.9305,0.004489
11.398,74.9595,0.004489
11.432,74.9925,0.004489
11.460,75.0197,0.004489
11.491,75.0522,0.004489
11.522,75.0840,0.004489
11.553,75.1170,0.004489
11.583,75.1496,0.004442
11.614,75.1840,0.004442
11.646,75.2201,0.004442
11.675,75.2523,0.004442
11.706,75.2898,0.004442
11.737,75.3265,0.004442
11.768,75.3651,0.004442
11.800,75.4043,0.004442
11.831,75.4423,0.004329
11.862,75.4844,0.004329
11.894,75.5252,0.004329
11.926,75.5680,0.004329
11.956,75.6096,0.004329
11.988,75.6542,0.004329
12.019,75.6975,0.004329
12.051,75.7431,0.004329
12.081,75.7871,0.004037
12.112,75.8339,0.004037
12.143,75.8800,0.004037
12.175,75.9283,0.004037
12.206,75.9735,0.004037
12.236,76.0205,0.004037
12.268,76.0670,0.004037
12.299,76.1134,0.004037
12.331,76.1612,0.003943
12.360,76.2052,0.003943
12.391,76.2521,0.003943
12.422,76.2984,0.003943
12.453,76.3445,0.003943
12.485,76.3925,0.003943
12.515,76.4384,0.003943
12.546,76.4843,0.003943
12.577,76.5306,0.003802
12.608,76.5781,0.003802
12.640,76.6240,0.003802
12.670,76.6707,0.003802
12.702,76.7179,0.003802
12.733,76.7653,0.003802
12.765,76.8122,0.003802
12.797,76.8605,0.003538
12.828,76.9061,0.003538
12.859,76.9529,0.003538
12.888,76.9964,0.003538
12.921,77.0470,0.003538
12.951,77.0932,0.003538
12.983,77.1390,0.003538
13.013,77.1845,0.003538
13.044,77.2306,0.003360
13.075,77.2773,0.003360
13.106,77.3237,0.003360
13.136,77.3693,0.003360
13.167,77.4169,0.003360
13.199,77.4631,0.003360
13.230,77.5113,0.003360
13.261,77.5573,0.003360
13.292,77.6044,0.003360
13.323,77.6497,0.003115
13.354,77.6966,0.003115
13.384,77.7424,0.003115
13.415,77.7879,0.003115
13.447,77.8351,0.003115
13.477,77.8800,0.003115
13.509,77.9285,0.003115
13.539,77.9723,0.003115
13.571,78.0178,0.002691
13.603,78.0628,0.002691
13.633,78.1043,0.002691
13.664,78.1469,0.002691
13.695,78.1885,0.002691
13.727,78.2313,0.002691
13.757,78.2703,0.002691
13.788,78.3091,0.002691
13.821,78.3504,0.002691
13.850,78.3857,0.002108
13.880,78.4220,0.002108
13.913,78.4623,0.002108
13.942,78.4953,0.002108
13.972,78.5284,0.002108
14.003,78.5633,0.002108
14.034,78.5965,0.001035
14.065,78.6300,0.001035
14.096,78.6614,0.001035
14.129,78.6950,0.001035
14.157,78.7238,0.001035
14.188,78.7536,0.001035
14.220,78.7835,0.001035
14.251,78.8123,0.001035
14.282,78.8397,0.001035
14.314,78.8681,-0.001299
14.344,78.8938,-0.001299
14.375,78.9192,-0.001299
14.406,78.9449,-0.001299
14.438,78.9685,-0.001299
14.472,78.9946,-0.001299
14.500,79.0150,-0.001299
14.533,79.0391,-0.001299
14.562,79.0582,-0.001299
14.593,79.0792,-0.005787
14.624,79.0986,-0.005787
14.654,79.1178,-0.005787
14.685,79.1360,-0.005787
14.717,79.1540,-0.005787
14.748,79.1705,-0.005787
14.781,79.1883,-0.005787
14.810,79.2025,-0.005787
14.841,79.2174,-0.012732
14.872,79.2311,-0.012732
14.903,79.2447,-0.012732
14.933,79.2569,-0.012732
14.964,79.2691,-0.012732
14.995,79.2796,-0.012732
15.026,79.2900,-0.012732
15.056,79.2997,-0.012732
15.087,79.3088,-0.020712
15.118,79.3167,-0.020712
15.148,79.3240,-0.020712
15.180,79.3311,-0.020712
15.211,79.3370,-0.020712
15.241,79.3424,-0.020712
15.274,79.3473,-0.020712
15.303,79.3508,-0.026622
15.334,79.3540,-0.026622
15.365,79.3564,-0.026622
15.395,79.3581,-0.026622
15.426,79.3591,-0.026622
15.458,79.3594,-0.026622
15.488,79.3594,-0.026622
15.519,79.3594,-0.026622
15.551,79.3594,-0.028946
15.582,79.3594,-0.028946
15.612,79.3594,-0.028946
15.643,79.3594,-0.028946
15.674,79.3594,-0.028946
15.707,79.3594,-0.028946
15.736,79.3594,-0.028946
15.767,79.3594,-0.028946
15.797,79.3594,-0.028946
15.831,79.3594,-0.027582
15.859,79.3594,-0.027582
15.892,79.3594,-0.027582
15.921,79.3594,-0.027582
15.952,79.3594,-0.027582
15.984,79.3594,-0.027582
16.014,79.3594,-0.027582
16.042,79.3594,-0.027582
16.077,79.3594,-0.027582
16.108,79.3594,-0.027582
16.139,79.3594,-0.025192
16.169,79.3594,-0.025192
16.201,79.3594,-0.025192
16.232,79.3594,-0.025192
16.263,79.3594,-0.025192
16.294,79.3594,-0.023686
16.325,79.3594,-0.023686
16.357,79.3594,-0.023686
16.387,79.3594,-0.023686
16.418,79.3594,-0.023686
16.451,79.3594,-0.023686
16.481,79.3594,-0.023686
16.512,79.3594,-0.023686
16.542,79.3594,-0.023686
16.570,79.3594,-0.022472
16.604,79.3594,-0.022472
16.636,79.3594,-0.022472
16.667,79.3594,-0.022472
16.699,79.3594,-0.022472
16.730,79.3594,-0.022472
16.761,79.3594,-0.022472
16.792,79.3594,-0.021766
16.823,79.3594,-0.021766
16.856,79.3594,-0.021766
16.886,79.3594,-0.021766
16.917,79.3594,-0.021766
16.949,79.3594,-0.021766
16.980,79.3594,-0.021766
17.012,79.3594,-0.021766
17.043,79.3594,-0.021766
17.073,79.3594,-0.020844
17.105,79.3594,-0.020844
17.136,79.3594,-0.020844
17.166,79.3594,-0.020844
17.197,79.3594,-0.020844
17.227,79.3594,-0.020844
17.259,79.3594,-0.020844
17.289,79.3594,-0.020138
17.320,79.3594,-0.020138
17.352,79.3594,-0.020138
17.384,79.3594,-0.020138
17.415,79.3594,-0.020138
17.448,79.3594,-0.020138
17.477,79.3594,-0.020138
17.508,79.3594,-0.020138
17.541,79.3594,-0.020138
17.571,79.3594,-0.020138
17.601,79.3594,-0.019649
17.633,79.3594,-0.019649
17.664,79.3594,-0.019649
17.694,79.3594,-0.019649
17.726,79.3594,-0.019649
17.757,79.3594,-0.019649
17.787,79.3594,-0.019649
17.818,79.3594,-0.019178
17.849,79.3594,-0.019178
17.880,79.3594,-0.019178
17.911,79.3594,-0.019178
17.942,79.3594,-0.019178
17.974,79.3594,-0.019178
18.006,79.3594,-0.019178
18.037,79.3594,-0.019178
18.068,79.3594,-0.018774
18.100,79.3594,-0.018774
18.131,79.3594,-0.018774
18.162,79.3594,-0.018774
18.193,79.3594,-0.018774
18.224,79.3594,-0.018774
18.255,79.3594,-0.018774
18.287,79.3594,-0.018774
18.316,79.3594,-0.018360
18.347,79.3594,-0.018360
18.378,79.3594,-0.018360
18.409,79.3594,-0.018360
18.440,79.3594,-0.018360
18.476,79.3594,-0.018360
18.517,79.3594,-0.018360
18.548,79.3594,-0.017964
18.579,79.3594,-0.017964
18.609,79.3594,-0.017964
18.640,79.3594,-0.017964
18.671,79.3594,-0.017964
18.701,79.3594,-0.017964
18.732,79.3594,-0.017964
18.763,79.3594,-0.017964
18.795,79.3594,-0.017767
18.826,79.3594,-0.017767
18.857,79.3594,-0.017767
18.888,79.3594,-0.017767
18.920,79.3594,-0.017767
18.951,79.3594,-0.017767
18.982,79.3594,-0.017767
19.014,79.3594,-0.017767
19.044,79.3594,-0.017550
19.075,79.3594,-0.017550
19.106,79.3594,-0.017550
19.137,79.3594,-0.017550
19.168,79.3594,-0.017550
19.199,79.3594,-0.017550
19.229,79.3594,-0.017550
19.261,79.3594,-0.017550
19.292,79.3594,-0.017550
19.323,79.3594,-0.017249
19.354,79.3594,-0.017249
19.386,79.3594,-0.017249
19.417,79.3594,-0.017249
19.449,79.3594,-0.017249
19.480,79.3594,-0.017249
19.512,79.3594,-0.017249
19.543,79.3594,-0.017014
19.574,79.3594,-0.017014
19.605,79.3594,-0.017014
19.636,79.3594,-0.017014
19.667,79.3594,-0.017014
19.697,79.3594,-0.017014
19.729,79.3594,-0.017014
19.760,79.3594,-0.017014
19.791,79.3594,-0.016769
19.822,79.3594,-0.016769
19.852,79.3594,-0.016769
19.883,79.3594,-0.016769
19.914,79.3594,-0.016769
19.945,79.3594,-0.016769
19.976,79.3594,-0.016769
20.006,79.3594,-0.016769
20.038,79.3594,-0.016769
20.067,79.3594,-0.016496
20.099,79.3594,-0.016496
20.128,79.3594,-0.016496
20.159,79.3594,-0.016496
20.190,79.3594,-0.016496
20.221,79.3594,-0.016496
20.251,79.3594,-0.016496
20.282,79.3594,-0.016496
20.314,79.3594,-0.016496
20.345,79.3594,-0.016224
20.376,79.3594,-0.016224
20.407,79.3591,-0.016224
20.437,79.3583,-0.016224
20.468,79.3566,-0.016224
20.499,79.3544,-0.016224
20.530,79.3513,-0.016224
20.561,79.3476,-0.016007
20.592,79.3430,-0.016007
20.623,79.3377,-0.016007
20.653,79.3320,-0.016007
20.684,79.3254,-0.016007
20.715,79.3179,-0.016007
20.747,79.3096,-0.016007
20.779,79.3001,-0.016007
20.809,79.2912,-0.013250
20.839,79.2811,-0.013250
20.872,79.2695,-0.013250
20.902,79.2579,-0.013250
20.934,79.2451,-0.013250
20.964,79.2324,-0.013250
20.994,79.2185,-0.013250
21.028,79.2026,-0.013250
21.056,79.1885,-0.005703
21.087,79.1722,-0.005703
21.119,79.1552,-0.005703
21.151,79.1368,-0.005703
21.181,79.1193,-0.005703
21.219,79.0953,-0.005703
21.259,79.0695,-0.005703
21.290,79.0488,0.004611
21.321,79.0276,0.004611
21.351,79.0058,0.004611
21.382,78.9830,0.004611
21.414,78.9583,0.004611
21.444,78.9341,0.004611
21.476,78.9078,0.004611
21.506,78.8832,0.004611
21.537,78.8568,0.013711
21.567,78.8290,0.013711
21.599,78.8004,0.013711
21.630,78.7715,0.013711
21.664,78.7393,0.013711
21.692,78.7116,0.013711
21.723,78.6808,0.013711
21.755,78.6485,0.013711
21.785,78.6161,0.013711
21.817,78.5830,0.019480
21.848,78.5481,0.019480
21.879,78.5139,0.019480
21.912,78.4747,0.019480
21.941,78.4417,0.019480
21.971,78.4058,0.019480
22.002,78.3679,0.019480
22.033,78.3305,0.019480
22.064,78.2914,0.024232
22.096,78.2510,0.024232
22.128,78.2087,0.024232
22.159,78.1676,0.024232
22.190,78.1253,0.024232
22.221,78.0824,0.024232
22.253,78.0377,0.024232
22.282,77.9961,0.024232
22.314,77.9505,0.024232
22.344,77.9061,0.030913
22.375,77.8597,0.030913
22.405,77.8139,0.030913
22.436,77.7686,0.030913
22.467,77.7225,0.030913
22.497,77.6769,0.030913
22.528,77.6299,0.030913
22.559,77.5841,0.037905
22.589,77.5377,0.037905
22.620,77.4921,0.037905
22.652,77.4445,0.037905
22.682,77.3992,0.037905
22.712,77.3534,0.037905
22.742,77.3088,0.037905
22.773,77.2614,0.037905
22.805,77.2145,0.037905
22.837,77.1670,0.034254
22.869,77.1190,0.034254
22.899,77.0732,0.034254
22.930,77.0265,0.034254
22.961,76.9796,0.034254
22.993,76.9322,0.034254
23.023,76.8882,0.034254
23.054,76.8418,0.034254
23.089,76.7881,0.018011
23.115,76.7487,0.018011
23.146,76.7022,0.018011
23.177,76.6557,0.018011
23.208,76.6089,0.018011
23.239,76.5640,0.018011
23.271,76.5156,0.018011
23.301,76.4698,0.007971
23.333,76.4215,0.007971
23.365,76.3747,0.007971
23.395,76.3285,0.007971
23.426,76.2826,0.007971
23.457,76.2353,0.007971
23.489,76.1888,0.007971
23.520,76.1425,0.007971
23.551,76.0950,0.007227
23.583,76.0470,0.007227
23.614,76.0012,0.007227
23.644,75.9553,0.007227
23.675,75.9103,0.007227
23.706,75.8629,0.007227
23.736,75.8171,0.007227
23.769,75.7693,0.007227
23.798,75.7269,0.006757
23.829,75.6815,0.006757
23.860,75.6369,0.006757
23.890,75.5939,0.006757
23.921,75.5514,0.006757
23.952,75.5088,0.006757
23.982,75.4689,0.006757
24.014,75.4276,0.006757
24.046,75.3867,0.006399
24.076,75.3477,0.006399
24.108,75.3074,0.006399
24.139,75.2711,0.006399
24.170,75.2337,0.006399
24.201,75.1969,0.006399
24.232,75.1614,0.006399
24.263,75.1269,0.006399
24.294,75.0927,0.006098
24.328,75.0563,0.006098
24.355,75.0280,0.006098
24.385,74.9967,0.006098
24.415,74.9658,0.006098
24.447,74.9348,0.006098
24.478,74.9051,0.006098
24.509,74.8752,0.006098
24.541,74.8468,0.005863
24.572,74.8190,0.005863
24.603,74.7920,0.005863
24.634,74.7663,0.005863
24.665,74.7402,0.005863
24.697,74.7153,0.005863
24.728,74.6911,0.005863
24.759,74.6686,0.005863
24.789,74.6464,0.005863
24.820,74.6248,0.005703
24.851,74.6036,0.005703
24.881,74.5836,0.005703
24.912,74.5645,0.005703
24.943,74.5455,0.005703
24.974,74.5268,0.005703
25.004,74.5099,0.005703
25.036,74.4931,0.005703
25.066,74.4777,0.005580
25.097,74.4622,0.005580
25.128,74.4477,0.005580
25.159,74.4339,0.005580
25.190,74.4210,0.005580
25.220,74.4087,0.005580
25.251,74.3973,0.005580
25.282,74.3859,0.005580
25.314,74.3757,0.005449
25.344,74.3663,0.005449
25.375,74.3579,0.005449
25.408,74.3493,0.005449
25.438,74.3423,0.005449
25.469,74.3357,0.005449
25.500,74.3297,0.005449
25.530,74.3248,0.005449
25.562,74.3203,0.005260
25.593,74.3167,0.005260
25.624,74.3139,0.005260
25.655,74.3116,0.005260
25.686,74.3103,0.005260
25.717,74.3095,0.005260
25.748,74.3094,0.005260
25.778,74.3094,0.005260
25.809,74.3094,0.005260
25.840,74.3094,0.005204
25.872,74.3094,0.005204
25.902,74.3094,0.005204
25.933,74.3094,0.005204
25.965,74.3094,0.005204
25.995,74.3094,0.005204
26.027,74.3094,0.005204
26.057,74.3094,0.005138
26.089,74.3094,0.005138
26.119,74.3094,0.005138
26.150,74.3094,0.005138
26.181,74.3094,0.005138
26.213,74.3094,0.005138
26.244,74.3094,0.005138
26.275,74.3094,0.005138
26.306,74.3094,0.005166
26.337,74.3094,0.005166
26.368,74.3094,0.005166
26.398,74.3094,0.005166
26.429,74.3098,0.005166
26.460,74.3110,0.005166
26.491,74.3129,0.005166
26.523,74.3155,0.005166
26.554,74.3189,0.005166
26.585,74.3229,0.005119
26.616,74.3279,0.005119
26.648,74.3334,0.005119
26.678,74.3396,0.005119
26.710,74.3468,0.005119
26.741,74.3548,0.005119
26.772,74.3628,0.005119
26.803,74.3720,0.004884
26.834,74.3821,0.004884
26.864,74.3926,0.004884
26.895,74.4044,0.004884
26.927,74.4160,0.004884
26.958,74.4289,0.004884
26.989,74.4428,0.004884
27.020,74.4567,0.004884
27.051,74.4717,0.004884
27.083,74.4881,0.004790
27.114,74.5045,0.004790
27.146,74.5222,0.004790
27.176,74.5402,0.004790
27.207,74.5587,0.004790
27.238,74.5780,0.004790
27.269,74.5982,0.004790
27.301,74.6198,0.004743
27.332,74.6409,0.004743
27.363,74.6638,0.004743
27.393,74.6858,0.004743
27.424,74.7091,0.004743
27.455,74.7342,0.004743
27.486,74.7588,0.004743
27.517,74.7853,0.004743
27.548,74.8117,0.004639
27.580,74.8407,0.004639
27.611,74.8685,0.004639
27.643,74.8986,0.004639
27.673,74.9269,0.004639
27.704,74.9584,0.004639
27.736,74.9889,0.004639
27.767,75.0214,0.004639
27.798,75.0549,0.004479
27.828,75.0855,0.004479
27.861,75.1224,0.004479
27.891,75.1556,0.004479
27.924,75.1934,0.004479
27.951,75.2249,0.004479
27.982,75.2619,0.004479
28.014,75.3011,0.004479
28.044,75.3379,0.004479
28.076,75.3782,0.004206
28.107,75.4179,0.004206
28.137,75.4573,0.004206
28.168,75.4985,0.004206
28.201,75.5435,0.004206
28.231,75.5843,0.004206
28.263,75.6287,0.004206
28.295,75.6748,0.004065
28.326,75.7194,0.004065
28.358,75.7663,0.004065
28.388,75.8121,0.004065
28.419,75.8584,0.004065
28.450,75.9045,0.004065
28.482,75.9524,0.004065
28.513,75.9988,0.004065
28.545,76.0471,0.004065
28.576,76.0937,0.003952
28.606,76.1398,0.003952
28.637,76.1859,0.003952
28.669,76.2344,0.003952
28.700,76.2800,0.003952
28.732,76.3285,0.003952
28.763,76.3744,0.003952
28.795,76.4230,0.003774
28.826,76.4681,0.003774
28.857,76.5151,0.003774
28.887,76.5607,0.003774
28.918,76.6077,0.003774
28.950,76.6555,0.003774
28.980,76.7007,0.003774
29.011,76.7466,0.003774
29.042,76.7937,0.003774
29.074,76.8407,0.003604
29.105,76.8867,0.003604
29.135,76.9327,0.003604
29.167,76.9792,0.003604
29.199,77.0290,0.003604
29.228,77.0724,0.003604
29.260,77.1196,0.003604
29.291,77.1655,0.003369
29.322,77.2123,0.003369
29.353,77.2593,0.003369
29.383,77.3038,0.003369
29.414,77.3516,0.003369
29.445,77.3976,0.003369
29.476,77.4432,0.003369
29.507,77.4916,0.003369
29.538,77.5371,0.003369
29.570,77.5847,0.003077
29.600,77.6299,0.003077
29.631,77.6770,0.003077
29.663,77.7236,0.003077
29.694,77.7705,0.003077
29.724,77.8165,0.003077
29.756,77.8635,0.003077
29.787,77.9085,0.003077
29.818,77.9549,0.002682
29.849,77.9978,0.002682
29.880,78.0421,0.002682
29.911,78.0839,0.002682
29.941,78.1248,0.002682
29.974,78.1674,0.002682
30.003,78.2063,0.002682
30.034,78.2466,0.002682
30.065,78.2852,0.002682
30.097,78.3245,0.002155
30.128,78.3610,0.002155
30.159,78.3984,0.002155
30.190,78.4354,0.002155
30.222,78.4710,0.002155
30.253,78.5055,0.002155
30.284,78.5393,0.002155
30.315,78.5719,0.001092
30.346,78.6058,0.001092
30.377,78.6361,0.001092
30.408,78.6672,0.001092
30.439,78.6976,0.001092
30.471,78.7292,0.001092
30.500,78.7554,0.001092
30.531,78.7833,0.001092
30.562,78.8103,0.001092
30.594,78.8377,-0.001223
30.626,78.8638,-0.001223
30.655,78.8882,-0.001223
30.687,78.9131,-0.001223
30.719,78.9372,-0.001223
30.749,78.9596,-0.001223
30.783,78.9836,-0.001223
30.811,79.0032,-0.005665
30.842,79.0238,-0.005665
30.873,79.0437,-0.005665
30.904,79.0636,-0.005665
30.936,79.0821,-0.005665
30.966,79.0998,-0.005665
30.998,79.1173,-0.005665
31.028,79.1332,-0.005665
31.059,79.1490,-0.012676
31.090,79.1635,-0.012676
31.120,79.1778,-0.012676
31.151,79.1909,-0.012676
31.182,79.2037,-0.012676
31.213,79.2158,-0.012676
31.244,79.2269,-0.012676
31.276,79.2380,-0.012676
31.307,79.2475,-0.020778
31.338,79.2569,-0.020778
31.369,79.2652,-0.020778
31.399,79.2727,-0.020778
31.430,79.2795,-0.020778
31.461,79.2858,-0.020778
31.492,79.2913,-0.020778
31.523,79.2961,-0.020778
31.554,79.3002,-0.027055
31.586,79.3036,-0.027055
31.617,79.3060,-0.027055
31.647,79.3079,-0.027055
31.678,79.3090,-0.027055
31.709,79.3094,-0.027055
31.740,79.3094,-0.027055
31.771,79.3094,-0.027055
31.803,79.3094,-0.029210
31.834,79.3094,-0.029210
31.865,79.3094,-0.029210
31.896,79.3094,-0.029210
31.928,79.3094,-0.029210
31.959,79.3094,-0.029210
31.990,79.3094,-0.029210
32.021,79.3094,-0.029210
32.052,79.3094,-0.027704
32.083,79.3094,-0.027704
32.114,79.3094,-0.027704
32.145,79.3094,-0.027704
32.177,79.3094,-0.027704
32.208,79.3094,-0.027704
32.239,79.3094,-0.027704
32.270,79.3094,-0.027704
32.302,79.3094,-0.025455
32.332,79.3094,-0.025455
32.362,79.3094,-0.025455
32.394,79.3094,-0.025455
32.426,79.3094,-0.025455
32.462,79.3094,-0.025455
32.502,79.3094,-0.025455
32.533,79.3094,-0.025455
32.564,79.3094,-0.023912
32.595,79.3094,-0.023912
32.628,79.3094,-0.023912
32.656,79.3094,-0.023912
32.690,79.3094,-0.023912
32.717,79.3094,-0.023912
32.749,79.3094,-0.023912
32.780,79.3094,-0.022745
32.811,79.3094,-0.022745
32.841,79.3094,-0.022745
32.872,79.3094,-0.022745
32.905,79.3094,-0.022745
32.937,79.3094,-0.022745
32.967,79.3094,-0.022745
32.998,79.3094,-0.022745
33.029,79.3094,-0.022745
33.061,79.3094,-0.021804
33.092,79.3094,-0.021804
33.123,79.3094,-0.021804
33.154,79.3094,-0.021804
33.185,79.3094,-0.021804
33.216,79.3094,-0.021804
33.248,79.3094,-0.021804
33.278,79.3094,-0.021804
33.308,79.3094,-0.021042
33.340,79.3094,-0.021042
33.372,79.3094,-0.021042
33.403,79.3094,-0.021042
33.434,79.3094,-0.021042
33.465,79.3094,-0.021042
33.497,79.3094,-0.021042
33.528,79.3094,-0.021042
33.559,79.3094,-0.020421
33.591,79.3094,-0.020421
33.622,79.3094,-0.020421
33.654,79.3094,-0.020421
33.684,79.3094,-0.020421
33.714,79.3094,-0.020421
33.746,79.3094,-0.020421
33.776,79.3094,-0.020421
33.808,79.3094,-0.020421
33.838,79.3094,-0.019903
33.870,79.3094,-0.019903
33.899,79.3094,-0.019903
33.930,79.3094,-0.019903
33.961,79.3094,-0.019903
33.992,79.3094,-0.019903
34.024,79.3094,-0.019903
34.055,79.3094,-0.019404
34.086,79.3094,-0.019404
34.117,79.3094,-0.019404
34.148,79.3094,-0.019404
34.180,79.3094,-0.019404
34.211,79.3094,-0.019404
34.241,79.3094,-0.019404
34.273,79.3094,-0.019404
34.308,79.3094,-0.018971
34.335,79.3094,-0.018971
34.365,79.3094,-0.018971
34.399,79.3094,-0.018971
34.428,79.3094,-0.018971
34.459,79.3094,-0.018971
34.491,79.3094,-0.018971
34.522,79.3094,-0.018971
34.553,79.3094,-0.018548
34.583,79.3094,-0.018548
34.614,79.3094,-0.018548
34.645,79.3094,-0.018548
34.676,79.3094,-0.018548
34.708,79.3094,-0.018548
34.738,79.3094,-0.018548
34.769,79.3094,-0.018548
34.799,79.3094,-0.018228
34.830,79.3094,-0.018228
34.861,79.3094,-0.018228
34.892,79.3094,-0.018228
34.923,79.3094,-0.018228
34.954,79.3094,-0.018228
34.986,79.3094,-0.018228
35.017,79.3094,-0.018228
35.047,79.3094,-0.017946
35.078,79.3094,-0.017946
35.110,79.3094,-0.017946
35.141,79.3094,-0.017946
35.173,79.3094,-0.017946
35.204,79.3094,-0.017946
35.239,79.3094,-0.017946
35.266,79.3094,-0.017946
35.298,79.3094,-0.017635
35.329,79.3094,-0.017635
35.364,79.3094,-0.017635
35.391,79.3094,-0.017635
35.422,79.3094,-0.017635
35.453,79.3094,-0.017635
35.484,79.3094,-0.017635
35.515,79.3094,-0.017635
35.547,79.3094,-0.017353
35.578,79.3094,-0.017353
35.608,79.3094,-0.017353
35.640,79.3094,-0.017353
35.671,79.3094,-0.017353
35.702,79.3094,-0.017353
35.734,79.3094,-0.017353
35.764,79.3094,-0.017353
35.796,79.3094,-0.017070
35.826,79.3094,-0.017070
35.857,79.3094,-0.017070
35.888,79.3094,-0.017070
35.919,79.3094,-0.017070
35.951,79.3094,-0.017070
35.981,79.3093,-0.017070
36.012,79.3083,-0.017070
36.045,79.3067,-0.017070
36.075,79.3043,-0.016788
36.106,79.3013,-0.016788
36.137,79.2976,-0.016788
36.168,79.2930,-0.016788
36.200,79.2878,-0.016788
36.230,79.2819,-0.016788
36.260,79.2754,-0.016788
36.291,79.2678,-0.016788
36.322,79.2598,-0.015518
36.353,79.2511,-0.015518
36.383,79.2417,-0.015518
36.414,79.2316,-0.015518
36.445,79.2205,-0.015518
36.475,79.2091,-0.015518
36.507,79.1963,-0.015518
36.537,79.1835,-0.015518
36.568,79.1695,-0.015518
36.601,79.1544,-0.009655
36.632,79.1387,-0.009655
36.662,79.1230,-0.009655
36.693,79.1062,-0.009655
36.724,79.0888,-0.009655
36.756,79.0702,-0.009655
36.787,79.0512,-0.009655
36.818,79.0315,0.000649
36.849,79.0106,0.000649
36.880,78.9899,0.000649
36.912,78.9666,0.000649
36.943,78.9441,0.000649
36.973,78.9211,0.000649
37.004,78.8975,0.000649
37.035,78.8728,0.000649
37.065,78.8467,0.010718
37.097,78.8206,0.010718
37.128,78.7920,0.010718
37.159,78.7660,0.010718
37.189,78.7376,0.010718
37.220,78.7092,0.010718
37.251,78.6785,0.010718
37.283,78.6477,0.010718
37.315,78.6149,0.017419
37.346,78.5827,0.017419
37.377,78.5494,0.017419
37.408,78.5161,0.017419
37.438,78.4831,0.017419
37.470,78.4476,0.017419
37.501,78.4111,0.017419
37.532,78.3735,0.017419
37.564,78.3367,0.021757
37.595,78.2976,0.021757
37.627,78.2589,0.021757
37.658,78.2192,0.021757
37.688,78.1797,0.021757
37.719,78.1377,0.021757
37.751,78.0967,0.021757
37.782,78.0542,0.021757
37.812,78.0117,0.027431
37.844,77.9660,0.027431
37.876,77.9214,0.027431
37.906,77.8764,0.027431
37.938,77.8300,0.027431
37.969,77.7830,0.027431
38.000,77.7373,0.027431
38.031,77.6900,0.027431
38.061,77.6444,0.034649
38.095,77.5935,0.034649
38.124,77.5509,0.034649
38.155,77.5032,0.034649
38.185,77.4583,0.034649
38.216,77.4121,0.034649
38.247,77.3657,0.034649
38.278,77.3197,0.034649
38.309,77.2726,0.037491
38.340,77.2262,0.037491
38.371,77.1792,0.037491
38.403,77.1322,0.037491
38.434,77.0842,0.037491
38.468,77.0349,0.037491
38.496,76.9911,0.037491
38.527,76.9450,0.037491
38.557,76.9004,0.022735
38.589,76.8527,0.022735
38.619,76.8082,0.022735
38.649,76.7613,0.022735
38.683,76.7125,0.022735
38.713,76.6672,0.022735
38.743,76.6217,0.022735
38.774,76.5758,0.022735
38.804,76.5300,0.008253
38.835,76.4839,0.008253
38.866,76.4380,0.008253
38.897,76.3905,0.008253
38.928,76.3441,0.008253
38.961,76.2952,0.008253
38.991,76.2500,0.008253
39.023,76.2026,0.008253
39.054,76.1551,0.007406
39.085,76.1087,0.007406
39.116,76.0622,0.007406
39.148,76.0148,0.007406
39.178,75.9693,0.007406
39.209,75.9226,0.007406
39.244,75.8698,0.007406
39.271,75.8290,0.007406
39.307,75.7756,0.006926
39.348,75.7138,0.006926
39.378,75.6704,0.006926
39.409,75.6256,0.006926
39.441,75.5805,0.006926
39.471,75.5368,0.006926
39.502,75.4955,0.006926
39.534,75.4523,0.006521
39.564,75.4103,0.006521
39.595,75.3702,0.006521
39.626,75.3301,0.006521
39.658,75.2912,0.006521
39.688,75.2532,0.006521
39.720,75.2145,0.006521
39.750,75.1789,0.006521
39.781,75.1423,0.006521
39.811,75.1081,0.006521
39.843,75.0720,0.006220
39.876,75.0369,0.006220
39.906,75.0037,0.006220
39.937,74.9720,0.006220
39.967,74.9399,0.006220
39.998,74.9094,0.006220
40.030,74.8780,0.006220
40.061,74.8484,0.005947
40.093,74.8180,0.005947
40.127,74.7874,0.005947
40.156,74.7617,0.005947
40.188,74.7352,0.005947
40.219,74.7089,0.005947
40.251,74.6827,0.005947
40.282,74.6584,0.005722
40.313,74.6343,0.005722
40.344,74.6111,0.005722
40.376,74.5892,0.005722
40.407,74.5675,0.005722
40.438,74.5461,0.005722
40.468,74.5263,0.005722
40.500,74.5070,0.005722
40.531,74.4879,0.005580
40.562,74.4704,0.005580
40.593,74.4526,0.005580
40.624,74.4366,0.005580
40.656,74.4206,0.005580
40.686,74.4061,0.005580
40.718,74.3912,0.005580
40.749,74.3780,0.005580
40.780,74.3649,0.005580
40.812,74.3525,0.005496
40.844,74.3409,0.005496
40.875,74.3303,0.005496
40.906,74.3208,0.005496
40.936,74.3119,0.005496
40.967,74.3037,0.005496
40.998,74.2959,0.005496
41.029,74.2889,0.005496
41.060,74.2826,0.005383
41.091,74.2773,0.005383
41.122,74.2724,0.005383
41.153,74.2686,0.005383
41.186,74.2650,0.005383
41.216,74.2626,0.005383
41.247,74.2608,0.005383
41.277,74.2597,0.005383
41.307,74.2593,0.005383
41.339,74.2593,0.005242
41.370,74.2593,0.005242
41.401,74.2593,0.005242
41.432,74.2593,0.005242
41.462,74.2593,0.005242
41.495,74.2593,0.005242
41.524,74.2593,0.005242
41.550,74.2593,0.005242
41.586,74.2593,0.005242
41.617,74.2593,0.005204
41.648,74.2593,0.005204
41.679,74.2593,0.005204
41.711,74.2593,0.005204
41.741,74.2593,0.005204
41.773,74.2593,0.005204
41.804,74.2593,0.005204
41.836,74.2593,0.005185
41.866,74.2593,0.005185
41.897,74.2593,0.005185
41.928,74.2597,0.005185
41.959,74.2606,0.005185
41.990,74.2626,0.005185
42.021,74.2651,0.005185
42.057,74.2691,0.005185
42.083,74.2724,0.005185
42.114,74.2770,0.005110
42.144,74.2825,0.005110
42.175,74.2887,0.005110
42.205,74.2952,0.005110
42.238,74.3033,0.005110
42.266,74.3109,0.005110
42.298,74.3203,0.005110
42.330,74.3303,0.005053
42.361,74.3409,0.005053
42.393,74.3524,0.005053
42.423,74.3641,0.005053
42.454,74.3767,0.005053
42.485,74.3900,0.005053
42.516,74.4039,0.005053
42.547,74.4195,0.004884
42.578,74.4348,0.004884
42.609,74.4516,0.004884
42.640,74.4685,0.004884
42.672,74.4869,0.004884
42.703,74.5051,0.004884
42.734,74.5247,0.004884
42.765,74.5442,0.004884
42.797,74.5660,0.004884
42.828,74.5873,0.004686
42.859,74.6099,0.004686
42.890,74.6327,0.004686
42.921,74.6558,0.004686
42.952,74.6805,0.004686
42.983,74.7055,0.004686
43.014,74.7318,0.004686
43.045,74.7577,0.004592
43.076,74.7850,0.004592
43.107,74.8129,0.004592
43.138,74.8423,0.004592
43.170,74.8728,0.004592
43.200,74.9016,0.004592
43.231,74.9329,0.004592
43.263,74.9649,0.004592
43.293,74.9968,0.004592
43.324,75.0306,0.004489
43.355,75.0636,0.004489
43.386,75.0990,0.004489
43.418,75.1345,0.004489
43.450,75.1725,0.004489
43.481,75.2091,0.004489
43.512,75.2463,0.004489
43.543,75.2852,0.004489
43.574,75.3229,0.004357
43.605,75.3633,0.004357
43.636,75.4044,0.004357
43.667,75.4448,0.004357
43.698,75.4881,0.004357
43.729,75.5298,0.004357
43.760,75.5733,0.004357
43.790,75.6162,0.004253
43.822,75.6622,0.004253
43.853,75.7078,0.004253
43.883,75.7534,0.004253
43.917,75.8030,0.004253
43.946,75.8463,0.004253
43.980,75.8974,0.004253
44.008,75.9392,0.004253
44.038,75.9856,0.004253
44.069,76.0321,0.004253
44.101,76.0813,0.004084
44.133,76.1272,0.004084
44.163,76.1728,0.004084
44.194,76.2184,0.004084
44.224,76.2642,0.004084
44.255,76.3105,0.004084
44.287,76.3571,0.003915
44.318,76.4053,0.003915
44.349,76.4508,0.003915
44.380,76.4975,0.003915
44.411,76.5445,0.003915
44.442,76.5898,0.003915
44.473,76.6372,0.003915
44.504,76.6828,0.003915
44.537,76.7337,0.003915
44.565,76.7751,0.003915
44.596,76.8220,0.003717
44.626,76.8671,0.003717
44.657,76.9138,0.003717
44.687,76.9574,0.003717
44.721,77.0100,0.003717
44.750,77.0519,0.003717
44.783,77.1043,0.003717
44.811,77.1456,0.003717
44.843,77.1931,0.003444
44.873,77.2371,0.003444
44.907,77.2881,0.003444
44.936,77.3317,0.003444
44.966,77.3770,0.003444
44.997,77.4242,0.003444
45.031,77.4755,0.003444
45.059,77.5176,0.003444
45.090,77.5625,0.003143
45.121,77.6108,0.003143
45.153,77.6567,0.003143
45.184,77.7040,0.003143
45.215,77.7493,0.003143
45.246,77.7977,0.003143
45.277,77.8419,0.003143
45.308,77.8882,0.003143
45.339,77.9317,0.002654
45.371,77.9771,0.002654
45.403,78.0203,0.002654
45.434,78.0625,0.002654
45.464,78.1024,0.002654
45.495,78.1431,0.002654
45.526,78.1845,0.002654
45.557,78.2226,0.002146
45.588,78.2608,0.002146
45.618,78.2979,0.002146
45.649,78.3357,0.002146
45.685,78.3776,0.002146
45.712,78.4075,0.002146
45.744,78.4432,0.002146
45.774,78.4768,0.002146
45.805,78.5102,0.002146
45.836,78.5421,0.001176
45.870,78.5786,0.001176
45.897,78.6052,0.001176
45.929,78.6364,0.001176
45.959,78.6653,0.001176
45.995,78.6993,0.001176
46.023,78.7238,0.001176
46.054,78.7517,0.001176
46.086,78.7789,-0.001214
46.116,78.8050,-0.001214
46.148,78.8312,-0.001214
46.178,78.8548,-0.001214
46.210,78.8792,-0.001214
46.241,78.9025,-0.001214
46.273,78.9255,-0.001214
46.303,78.9466,-0.005722
46.334,78.9677,-0.005722
46.364,78.9873,-0.005722
46.396,79.0075,-0.005722
46.427,79.0262,-0.005722
46.459,79.0450,-0.005722
46.489,79.0615,-0.005722
46.520,79.0780,-0.005722
46.551,79.0937,-0.012760
46.583,79.1095,-0.012760
46.614,79.1241,-0.012760
46.644,79.1376,-0.012760
46.676,79.1503,-0.012760
46.707,79.1628,-0.012760
46.738,79.1740,-0.012760
46.768,79.1849,-0.012760
46.799,79.1948,-0.012760
46.830,79.2040,-0.020835
46.861,79.2125,-0.020835
46.891,79.2202,-0.020835
46.922,79.2275,-0.020835
46.953,79.2340,-0.020835
46.983,79.2394,-0.020835
47.014,79.2445,-0.020835
47.045,79.2487,-0.027177
47.075,79.2523,-0.027177
47.107,79.2551,-0.027177
47.138,79.2573,-0.027177
47.168,79.2585,-0.027177
47.199,79.2593,-0.027177
47.231,79.2593,-0.027177
47.261,79.2593,-0.027177
47.293,79.2593,-0.029379
47.324,79.2593,-0.029379
47.354,79.2593,-0.029379
47.390,79.2593,-0.029379
47.417,79.2593,-0.029379
47.448,79.2593,-0.029379
47.479,79.2593,-0.029379
47.510,79.2593,-0.029379
47.541,79.2593,-0.027789
47.572,79.2593,-0.027789
47.603,79.2593,-0.027789
47.633,79.2593,-0.027789
47.664,79.2593,-0.027789
47.695,79.2593,-0.027789
47.726,79.2593,-0.027789
47.757,79.2593,-0.027789
47.787,79.2593,-0.027789
47.819,79.2593,-0.025465
47.850,79.2593,-0.025465
47.880,79.2593,-0.025465
47.911,79.2593,-0.025465
47.942,79.2593,-0.025465
47.973,79.2593,-0.025465
48.004,79.2593,-0.025465
48.036,79.2593,-0.025465
48.067,79.2593,-0.025465
48.098,79.2593,-0.023931
48.128,79.2593,-0.023931
48.159,79.2593,-0.023931
48.191,79.2593,-0.023931
48.222,79.2593,-0.023931
48.252,79.2593,-0.023931
48.283,79.2593,-0.023931
48.314,79.2593,-0.023931
48.344,79.2593,-0.022754
48.375,79.2593,-0.022754
48.407,79.2593,-0.022754
48.438,79.2593,-0.022754
48.469,79.2593,-0.022754
48.499,79.2593,-0.022754
48.530,79.2593,-0.022754
48.561,79.2593,-0.022754
48.593,79.2593,-0.021738
48.624,79.2593,-0.021738
48.655,79.2593,-0.021738
48.686,79.2593,-0.021738
48.718,79.2593,-0.021738
48.749,79.2593,-0.021738
48.780,79.2593,-0.021738
48.811,79.2593,-0.020995
48.842,79.2593,-0.020995
48.874,79.2593,-0.020995
48.904,79.2593,-0.020995
48.935,79.2593,-0.020995
48.966,79.2593,-0.020995
48.997,79.2593,-0.020995
49.028,79.2593,-0.020995
49.059,79.2593,-0.020355
49.089,79.2593,-0.020355
49.121,79.2593,-0.020355
49.152,79.2593,-0.020355
49.183,79.2593,-0.020355
49.213,79.2593,-0.020355
49.244,79.2593,-0.020355
49.276,79.2593,-0.020355
49.307,79.2593,-0.019752
49.338,79.2593,-0.019752
49.369,79.2593,-0.019752
49.401,79.2593,-0.019752
49.432,79.2593,-0.019752
49.463,79.2593,-0.019752
49.494,79.2593,-0.019752
49.525,79.2593,-0.019752
49.557,79.2593,-0.019301
49.587,79.2593,-0.019301
49.617,79.2593,-0.019301
49.648,79.2593,-0.019301
49.680,79.2593,-0.019301
49.711,79.2593,-0.019301
49.742,79.2593,-0.019301
49.774,79.2593,-0.019301
49.804,79.2593,-0.018934
49.836,79.2593,-0.018934
49.867,79.2593,-0.018934
49.898,79.2593,-0.018934
49.930,79.2593,-0.018934
49.961,79.2593,-0.018934
49.992,79.2593,-0.018934
50.024,79.2593,-0.018934
50.053,79.2593,-0.018529
50.085,79.2593,-0.018529
50.116,79.2593,-0.018529
50.148,79.2593,-0.018529
50.178,79.2593,-0.018529
50.209,79.2593,-0.018529
50.241,79.2593,-0.018529
50.271,79.2593,-0.018529
50.301,79.2593,-0.018153
50.334,79.2593,-0.018153
50.363,79.2593,-0.018153
50.394,79.2593,-0.018153
50.426,79.2593,-0.018153
50.457,79.2593,-0.018153
50.488,79.2593,-0.018153
50.519,79.2593,-0.018153
50.549,79.2593,-0.018153
50.580,79.2593,-0.018153
50.611,79.2593,-0.017823
50.642,79.2593,-0.017823
50.673,79.2593,-0.017823
50.704,79.2593,-0.017823
50.735,79.2593,-0.017823
50.766,79.2593,-0.017823
50.798,79.2593,-0.017823
50.827,79.2593,-0.017475
50.858,79.2593,-0.017475
50.889,79.2593,-0.017475
50.923,79.2593,-0.017475
50.951,79.2593,-0.017475
50.982,79.2593,-0.017475
51.013,79.2593,-0.017475
51.044,79.2593,-0.017475
51.074,79.2593,-0.017240
51.105,79.2593,-0.017240
51.137,79.2593,-0.017240
51.168,79.2593,-0.017240
51.198,79.2593,-0.017240
51.230,79.2593,-0.017240
51.261,79.2593,-0.017240
51.292,79.2593,-0.017240
51.322,79.2593,-0.017042
51.353,79.2593,-0.017042
51.384,79.2593,-0.017042
51.416,79.2593,-0.017042
51.446,79.2593,-0.017042
51.476,79.2593,-0.017042
51.508,79.2593,-0.017042
51.539,79.2593,-0.017042
51.570,79.2593,-0.016750
51.602,79.2593,-0.016750
51.632,79.2593,-0.016750
51.665,79.2593,-0.016750
51.694,79.2593,-0.016750
51.725,79.2593,-0.016750
51.756,79.2593,-0.016750
51.787,79.2593,-0.016750
51.817,79.2593,-0.016487
51.849,79.2593,-0.016487
51.880,79.2593,-0.016487
51.911,79.2593,-0.016487
51.942,79.2593,-0.016487
51.973,79.2593,-0.016487
52.004,79.2593,-0.016487
52.036,79.2593,-0.016487
52.066,79.2593,-0.016271
52.100,79.2593,-0.016271
52.129,79.2593,-0.016271
52.160,79.2593,-0.016271
52.191,79.2593,-0.016271
52.222,79.2593,-0.016271
52.255,79.2593,-0.016271
52.284,79.2592,-0.016271
52.316,79.2582,-0.016082
52.347,79.2566,-0.016082
52.379,79.2542,-0.016082
52.411,79.2509,-0.016082
52.441,79.2473,-0.016082
52.471,79.2427,-0.016082
52.503,79.2372,-0.016082
52.535,79.2311,-0.016082
52.567,79.2241,-0.015151
52.596,79.2170,-0.015151
52.629,79.2082,-0.015151
52.659,79.1999,-0.015151
52.689,79.1903,-0.015151
52.720,79.1797,-0.015151
52.751,79.1687,-0.015151
52.782,79.1568,-0.015151
52.813,79.1443,-0.010220
52.844,79.1307,-0.010220
52.881,79.1147,-0.010220
52.923,79.0942,-0.010220
52.952,79.0791,-0.010220
52.983,79.0623,-0.010220
53.014,79.0455,-0.010220
53.045,79.0276,-0.000743
53.076,79.0086,-0.000743
53.110,78.9869,-0.000743
53.138,78.9687,-0.000743
53.170,78.9477,-0.000743
53.201,78.9260,-0.000743
53.232,78.9035,-0.000743
53.263,78.8801,-0.000743
53.294,78.8563,0.009401
53.325,78.8319,0.009401
53.357,78.8047,0.009401
53.392,78.7758,0.009401
53.434,78.7391,0.009401
53.466,78.7104,0.009401
53.496,78.6831,0.009401
53.528,78.6529,0.009401
53.557,78.6244,0.009401
53.588,78.5943,0.016798
53.619,78.5626,0.016798
53.651,78.5299,0.016798
53.683,78.4953,0.016798
53.714,78.4622,0.016798
53.744,78.4285,0.016798
53.775,78.3939,0.016798
53.805,78.3583,0.016798
53.836,78.3219,0.021437
53.867,78.2846,0.021437
53.898,78.2463,0.021437
53.929,78.2076,0.021437
53.960,78.1689,0.021437
53.990,78.1294,0.021437
54.021,78.0881,0.021437
54.052,78.0465,0.021437
54.083,78.0047,0.026650
54.115,77.9608,0.026650
54.146,77.9165,0.026650
54.178,77.8696,0.026650
54.210,77.8238,0.026650
54.241,77.7778,0.026650
54.272,77.7314,0.026650
54.303,77.6851,0.026650
54.334,77.6377,0.026650
54.366,77.5899,0.033576
54.396,77.5445,0.033576
54.427,77.4982,0.033576
54.459,77.4505,0.033576
54.491,77.4014,0.033576
54.521,77.3581,0.033576
54.552,77.3116,0.033576
54.583,77.2645,0.038441
54.614,77.2186,0.038441
54.644,77.1714,0.038441
54.675,77.1255,0.038441
54.707,77.0790,0.038441
54.739,77.0306,0.038441
54.770,76.9837,0.038441
54.801,76.9372,0.038441
54.832,76.8903,0.024636
54.863,76.8441,0.024636
54.894,76.7975,0.024636
54.925,76.7519,0.024636
54.957,76.7034,0.024636
54.987,76.6589,0.024636
55.022,76.6061,0.024636
55.049,76.5652,0.024636
55.080,76.5197,0.008761
55.112,76.4710,0.008761
55.143,76.4249,0.008761
55.175,76.3761,0.008761
55.206,76.3306,0.008761
55.236,76.2851,0.008761
55.267,76.2380,0.008761
55.298,76.1923,0.007500
55.331,76.1411,0.007500
55.360,76.0993,0.007500
55.394,76.0473,0.007500
55.421,76.0064,0.007500
55.455,75.9551,0.007500
55.484,75.9120,0.007500
55.515,75.8661,0.007500
55.546,75.8185,0.007030
55.578,75.7714,0.007030
55.608,75.7259,0.007030
55.639,75.6796,0.007030
55.673,75.6304,0.007030
55.701,75.5894,0.007030
55.732,75.5444,0.007030
55.767,75.4959,0.007030
55.795,75.4565,0.006653
55.826,75.4152,0.006653
55.857,75.3731,0.006653
55.888,75.3327,0.006653
55.919,75.2924,0.006653
55.950,75.2522,0.006653
55.981,75.2139,0.006653
56.011,75.1778,0.006653
56.042,75.1407,0.006286
56.072,75.1050,0.006286
56.103,75.0695,0.006286
56.134,75.0343,0.006286
56.164,75.0007,0.006286
56.195,74.9666,0.006286
56.226,74.9337,0.006286
56.257,74.9017,0.006286
56.289,74.8700,0.006286
56.320,74.8391,0.006286
56.352,74.8092,0.006004
56.382,74.7796,0.006004
56.414,74.7512,0.006004
56.446,74.7226,0.006004
56.477,74.6956,0.006004
56.509,74.6691,0.006004
56.540,74.6428,0.006004
56.571,74.6182,0.005872
56.602,74.5943,0.005872
56.633,74.5708,0.005872
56.664,74.5484,0.005872
56.695,74.5261,0.005872
56.726,74.5057,0.005872
56.756,74.4853,0.005872
56.788,74.4657,0.005872
56.819,74.4463,0.005872
56.850,74.4284,0.005778
56.880,74.4107,0.005778
56.912,74.3938,0.005778
56.942,74.3782,0.005778
56.973,74.3632,0.005778
57.004,74.3486,0.005778
57.036,74.3343,0.005778
57.067,74.3212,0.005778
57.099,74.3083,0.005505
57.128,74.2974,0.005505
57.159,74.2864,0.005505
57.190,74.2761,0.005505
57.221,74.2666,0.005505
57.252,74.2580,0.005505
57.283,74.2499,0.005505
57.314,74.2425,0.005505
57.345,74.2361,0.005364
57.375,74.2301,0.005364
57.407,74.2249,0.005364
57.437,74.2207,0.005364
57.468,74.2170,0.005364
57.500,74.2139,0.005364
57.531,74.2117,0.005364
57.562,74.2102,0.005402
57.593,74.2094,0.005402
57.624,74.2093,0.005402
57.657,74.2093,0.005402
57.687,74.2093,0.005402
57.718,74.2093,0.005402
57.749,74.2093,0.005402
57.783,74.2093,0.005402
57.811,74.2093,0.005402
57.842,74.2093,0.005251
57.873,74.2093,0.005251
57.905,74.2093,0.005251
57.938,74.2093,0.005251
57.966,74.2093,0.005251
57.997,74.2093,0.005251
58.028,74.2093,0.005251
58.060,74.2093,0.005251
58.095,74.2093,0.005119
58.123,74.2093,0.005119
58.153,74.2093,0.005119
58.181,74.2093,0.005119
58.215,74.2093,0.005119
58.247,74.2093,0.005119
58.278,74.2093,0.005119
58.309,74.2095,0.005242
58.340,74.2107,0.005242
58.370,74.2123,0.005242
58.401,74.2146,0.005242
58.432,74.2179,0.005242
58.463,74.2217,0.005242
58.494,74.2264,0.005242
58.524,74.2316,0.005242
58.556,74.2378,0.005242
58.587,74.2446,0.005119
58.619,74.2523,0.005119
58.649,74.2604,0.005119
58.680,74.2696,0.005119
58.710,74.2788,0.005119
58.742,74.2897,0.005119
58.773,74.3010,0.005119
58.804,74.3126,0.005119
58.836,74.3263,0.004959
58.865,74.3383,0.004959
58.899,74.3538,0.004959
58.928,74.3678,0.004959
58.966,74.3865,0.004959
59.006,74.4076,0.004959
59.037,74.4253,0.004959
59.068,74.4435,0.004893
59.098,74.4616,0.004893
59.129,74.4810,0.004893
59.161,74.5025,0.004893
59.192,74.5233,0.004893
59.223,74.5447,0.004893
59.254,74.5675,0.004893
59.287,74.5923,0.004893
59.316,74.6151,0.004762
59.348,74.6398,0.004762
59.379,74.6647,0.004762
59.413,74.6940,0.004762
59.440,74.7169,0.004762
59.471,74.7455,0.004762
59.503,74.7740,0.004762
59.533,74.8029,0.004762
59.564,74.8316,0.004602
59.596,74.8633,0.004602
59.626,74.8927,0.004602
59.657,74.9255,0.004602
59.687,74.9570,0.004602
59.719,74.9906,0.004602
59.749,75.0241,0.004602
59.775,75.0530,0.004602
59.811,75.0947,0.004602
59.842,75.1308,0.004423
59.873,75.1678,0.004423
59.905,75.2074,0.004423
59.936,75.2454,0.004423
59.968,75.2853,0.004423
59.999,75.3265,0.004423
60.030,75.3662,0.004423
60.061,75.4074,0.004282
60.092,75.4499,0.004282
60.124,75.4934,0.004282
60.155,75.5385,0.004282
60.186,75.5816,0.004282
60.218,75.6279,0.004282
60.248,75.6731,0.004282
60.279,75.7192,0.004282
60.310,75.7652,0.004282
60.341,75.8123,0.004094
60.372,75.8596,0.004094
60.403,75.9049,0.004094
60.433,75.9505,0.004094
60.464,75.9966,0.004094
60.494,76.0420,0.004094
60.525,76.0886,0.004094
60.557,76.1355,0.003915
60.587,76.1819,0.003915
60.619,76.2300,0.003915
60.650,76.2760,0.003915
60.682,76.3229,0.003915
60.713,76.3704,0.003915
60.743,76.4159,0.003915
60.774,76.4624,0.003915
60.804,76.5071,0.003783
60.835,76.5546,0.003783
60.866,76.5991,0.003783
60.897,76.6461,0.003783
60.927,76.6909,0.003783
60.960,76.7426,0.003783
60.990,76.7863,0.003783
61.022,76.8344,0.003783
61.053,76.8803,0.003548
61.083,76.9258,0.003548
61.116,76.9753,0.003548
61.145,77.0182,0.003548
61.175,77.0642,0.003548
61.206,77.1106,0.003548
61.238,77.1576,0.003548
61.268,77.2029,0.003548
61.301,77.2532,0.003284
61.330,77.2959,0.003284
61.362,77.3440,0.003284
61.393,77.3901,0.003284
61.424,77.4386,0.003284
61.455,77.4830,0.003284
61.485,77.5287,0.003284
61.516,77.5753,0.003284
61.549,77.6255,0.003021
61.579,77.6687,0.003021
61.610,77.7156,0.003021
61.641,77.7616,0.003021
61.671,77.8070,0.003021
61.702,77.8521,0.003021
61.733,77.8953,0.003021
61.764,77.9378,0.003021
61.797,77.9843,0.002578
61.826,78.0228,0.002578
61.856,78.0639,0.002578
61.887,78.1044,0.002578
61.918,78.1436,0.002578
61.949,78.1821,0.002578
61.981,78.2217,0.002578
62.012,78.2588,0.002578
62.042,78.2957,0.002578
62.075,78.3331,0.001816
62.108,78.3715,0.001816
62.138,78.4036,0.001816
62.168,78.4374,0.001816
62.199,78.4700,0.001816
62.231,78.5041,0.001816
62.260,78.5333,0.001816
62.290,78.5641,0.001816
62.321,78.5940,0.000311
62.352,78.6230,0.000311
62.383,78.6519,0.000311
62.414,78.6801,0.000311
62.445,78.7086,0.000311
62.476,78.7344,0.000311
62.506,78.7589,0.000311
62.536,78.7838,0.000311
62.567,78.8081,-0.002776
62.598,78.8319,-0.002776
62.629,78.8556,-0.002776
62.661,78.8779,-0.002776
62.692,78.8992,-0.002776
62.722,78.9202,-0.002776
62.753,78.9400,-0.002776
62.789,78.9626,-0.002776
62.815,78.9780,-0.002776
62.846,78.9964,-0.008413
62.877,79.0131,-0.008413
62.908,79.0297,-0.008413
62.938,79.0451,-0.008413
62.971,79.0613,-0.008413
63.000,79.0747,-0.008413
63.030,79.0883,-0.008413
63.062,79.1013,-0.016233
63.093,79.1134,-0.016233
63.125,79.1250,-0.016233
63.157,79.1364,-0.016233
63.187,79.1459,-0.016233
63.218,79.1550,-0.016233
63.249,79.1635,-0.016233
63.281,79.1716,-0.016233
63.311,79.1783,-0.016233
63.343,79.1850,-0.023799
63.373,79.1905,-0.023799
63.404,79.1953,-0.023799
63.434,79.1993,-0.023799
63.466,79.2029,-0.023799
63.496,79.2055,-0.023799
63.528,79.2076,-0.023799
63.559,79.2088,-0.028353
63.591,79.2093,-0.028353
63.621,79.2093,-0.028353
63.651,79.2093,-0.028353
63.683,79.2093,-0.028353
63.714,79.2093,-0.028353
63.745,79.2093,-0.028353
63.776,79.2093,-0.028466
63.807,79.2093,-0.028466
63.838,79.2093,-0.028466
63.869,79.2093,-0.028466
63.900,79.2093,-0.028466
63.931,79.2093,-0.028466
63.962,79.2093,-0.028466
63.993,79.2093,-0.028466
64.024,79.2093,-0.028466
64.055,79.2093,-0.026170
64.087,79.2093,-0.026170
64.117,79.2093,-0.026170
64.149,79.2093,-0.026170
64.179,79.2093,-0.026170
64.210,79.2093,-0.026170
64.245,79.2093,-0.026170
64.271,79.2093,-0.026170
64.303,79.2093,-0.026170
64.334,79.2093,-0.024222
64.365,79.2093,-0.024222
64.397,79.2093,-0.024222
64.427,79.2093,-0.024222
64.458,79.2093,-0.024222
64.489,79.2093,-0.024222
64.520,79.2093,-0.024222
64.552,79.2093,-0.024222
64.583,79.2093,-0.022811
64.614,79.2093,-0.022811
64.646,79.2093,-0.022811
64.677,79.2093,-0.022811
64.708,79.2093,-0.022811
64.738,79.2093,-0.022811
64.769,79.2093,-0.022811
64.801,79.2093,-0.021794
64.831,79.2093,-0.021794
64.862,79.2093,-0.021794
64.899,79.2093,-0.021794
64.939,79.2093,-0.021794
64.971,79.2093,-0.021794
65.001,79.2093,-0.021794
65.033,79.2093,-0.020957
65.066,79.2093,-0.020957
65.096,79.2093,-0.020957
65.128,79.2093,-0.020957
65.159,79.2093,-0.020957
65.189,79.2093,-0.020957
65.220,79.2093,-0.020957
65.252,79.2093,-0.020957
65.284,79.2093,-0.020957
65.315,79.2093,-0.020232
65.346,79.2093,-0.020232
65.377,79.2093,-0.020232
65.408,79.2093,-0.020232
65.439,79.2093,-0.020232
65.469,79.2093,-0.020232
65.500,79.2093,-0.020232
65.532,79.2093,-0.019668
65.564,79.2093,-0.019668
65.596,79.2093,-0.019668
65.627,79.2093,-0.019668
65.659,79.2093,-0.019668
65.689,79.2093,-0.019668
65.721,79.2093,-0.019668
65.752,79.2093,-0.019668
65.782,79.2093,-0.019668
65.814,79.2093,-0.019207
65.844,79.2093,-0.019207
65.875,79.2093,-0.019207
65.906,79.2093,-0.019207
65.937,79.2093,-0.019207
65.969,79.2093,-0.019207
65.999,79.2093,-0.019207
66.030,79.2093,-0.018727
66.061,79.2093,-0.018727
66.093,79.2093,-0.018727
66.124,79.2093,-0.018727
66.155,79.2093,-0.018727
66.186,79.2093,-0.018727
66.217,79.2093,-0.018727
66.249,79.2093,-0.018727
66.280,79.2093,-0.018727
66.311,79.2093,-0.018219
66.341,79.2093,-0.018219
66.372,79.2093,-0.018219
66.403,79.2093,-0.018219
66.434,79.2093,-0.018219
66.466,79.2093,-0.018219
66.497,79.2093,-0.018219
66.528,79.2093,-0.018219
66.559,79.2093,-0.018219
66.590,79.2093,-0.017908
66.621,79.2093,-0.017908
66.652,79.2093,-0.017908
66.683,79.2093,-0.017908
66.714,79.2093,-0.017908
66.746,79.2093,-0.017908
66.776,79.2093,-0.017908
66.807,79.2093,-0.017569
66.838,79.2093,-0.017569
66.869,79.2093,-0.017569
66.899,79.2093,-0.017569
66.930,79.2093,-0.017569
66.961,79.2093,-0.017569
66.992,79.2093,-0.017569
67.023,79.2093,-0.017569
67.054,79.2093,-0.017569
67.086,79.2093,-0.017268
67.118,79.2093,-0.017268
67.149,79.2093,-0.017268
67.180,79.2093,-0.017268
67.210,79.2093,-0.017268
67.242,79.2093,-0.017268
67.273,79.2093,-0.017268
67.304,79.2093,-0.017268
67.335,79.2093,-0.017268
67.366,79.2093,-0.017014
67.397,79.2093,-0.017014
67.428,79.2093,-0.017014
67.460,79.2093,-0.017014
67.491,79.2093,-0.017014
67.522,79.2093,-0.017014
67.553,79.2093,-0.017014
67.584,79.2093,-0.016750
67.614,79.2093,-0.016750
67.645,79.2093,-0.016750
67.677,79.2093,-0.016750
67.708,79.2093,-0.016750
67.738,79.2093,-0.016750
67.770,79.2093,-0.016750
67.800,79.2093,-0.016750
67.832,79.2093,-0.016525
67.863,79.2093,-0.016525
67.894,79.2093,-0.016525
67.926,79.2093,-0.016525
67.957,79.2093,-0.016525
67.987,79.2093,-0.016525
68.019,79.2093,-0.016525
68.050,79.2093,-0.016525
68.081,79.2093,-0.016224
68.113,79.2093,-0.016224
68.143,79.2093,-0.016224
68.174,79.2093,-0.016224
68.206,79.2093,-0.016224
68.236,79.2093,-0.016224
68.266,79.2093,-0.016224
68.299,79.2093,-0.016224
68.330,79.2093,-0.015969
68.360,79.2089,-0.015969
68.392,79.2077,-0.015969
68.422,79.2058,-0.015969
68.453,79.2034,-0.015969
68.485,79.1999,-0.015969
68.515,79.1959,-0.015969
68.546,79.1911,-0.015969
68.577,79.1857,-0.015489
68.608,79.1794,-0.015489
68.639,79.1725,-0.015489
68.671,79.1645,-0.015489
68.702,79.1563,-0.015489
68.734,79.1467,-0.015489
68.764,79.1370,-0.015489
68.796,79.1260,-0.015489
68.828,79.1147,-0.011735
68.858,79.1029,-0.011735
68.888,79.0904,-0.011735
68.919,79.0768,-0.011735
68.949,79.0626,-0.011735
68.981,79.0477,-0.011735
69.012,79.0322,-0.011735
69.042,79.0157,-0.011735
69.073,78.9988,-0.003294
69.103,78.9813,-0.003294
69.135,78.9627,-0.003294
69.166,78.9430,-0.003294
69.197,78.9227,-0.003294
69.229,78.9014,-0.003294
69.260,78.8804,-0.003294
69.291,78.8576,-0.003294
69.322,78.8352,0.006926
69.352,78.8118,0.006926
69.383,78.7879,0.006926
69.415,78.7612,0.006926
69.446,78.7362,0.006926
69.481,78.7040,0.006926
69.508,78.6822,0.006926
69.540,78.6527,0.006926
69.571,78.6243,0.015207
69.602,78.5941,0.015207
69.634,78.5619,0.015207
69.664,78.5331,0.015207
69.698,78.4977,0.015207
69.726,78.4678,0.015207
69.757,78.4352,0.015207
69.787,78.4027,0.015207
69.818,78.3679,0.020223
69.847,78.3343,0.020223
69.880,78.2972,0.020223
69.910,78.2606,0.020223
69.941,78.2236,0.020223
69.971,78.1862,0.020223
70.002,78.1477,0.020223
70.034,78.1067,0.025041
70.064,78.0678,0.025041
70.096,78.0259,0.025041
70.127,77.9837,0.025041
70.157,77.9417,0.025041
70.189,77.8979,0.025041
70.219,77.8552,0.025041
70.250,77.8102,0.025041
70.281,77.7633,0.025041
70.312,77.7188,0.031769
70.343,77.6724,0.031769
70.374,77.6258,0.031769
70.404,77.5805,0.031769
70.435,77.5337,0.031769
70.467,77.4866,0.031769
70.499,77.4378,0.031769
70.529,77.3916,0.031769
70.562,77.3440,0.037820
70.592,77.2975,0.037820
70.623,77.2517,0.037820
70.654,77.2058,0.037820
70.685,77.1594,0.037820
70.716,77.1122,0.037820
70.747,77.0658,0.037820
70.778,77.0197,0.037820
70.810,76.9714,0.037820
70.840,76.9268,0.026528
70.872,76.8785,0.026528
70.903,76.8328,0.026528
70.934,76.7859,0.026528
70.966,76.7378,0.026528
70.997,76.6910,0.026528
71.028,76.6445,0.026528
71.058,76.5981,0.026528
71.089,76.5528,0.010408
71.121,76.5051,0.010408
71.151,76.4600,0.010408
71.183,76.4127,0.010408
71.213,76.3666,0.010408
71.245,76.3191,0.010408
71.276,76.2730,0.010408
71.306,76.2270,0.010408
71.337,76.1805,0.007585
71.369,76.1338,0.007585
71.398,76.0888,0.007585
71.430,76.0419,0.007585
71.460,75.9972,0.007585
71.490,75.9513,0.007585
71.522,75.9042,0.007585
71.552,75.8573,0.007585
71.583,75.8117,0.007208
71.614,75.7658,0.007208
71.646,75.7184,0.007208
71.677,75.6712,0.007208
71.708,75.6238,0.007208
71.738,75.5795,0.007208
71.770,75.5340,0.007208
71.800,75.4906,0.007208
71.830,75.4484,0.006766
71.862,75.4041,0.006766
71.893,75.3620,0.006766
71.925,75.3199,0.006766
71.956,75.2795,0.006766
71.986,75.2396,0.006766
72.017,75.1999,0.006766
72.050,75.1588,0.006766
72.079,75.1242,0.006305
72.109,75.0871,0.006305
72.140,75.0523,0.006305
72.173,75.0146,0.006305
72.203,74.9789,0.006305
72.234,74.9458,0.006305
72.265,74.9110,0.006305
72.302,74.8734,0.006305
72.342,74.8324,0.006305
72.374,74.8009,0.006060
72.405,74.7701,0.006060
72.435,74.7415,0.006060
72.466,74.7133,0.006060
72.498,74.6843,0.006060
72.529,74.6571,0.006060
72.559,74.6315,0.005900
72.590,74.6054,0.005900
72.622,74.5793,0.005900
72.654,74.5547,0.005900
72.684,74.5316,0.005900
72.714,74.5086,0.005900
72.745,74.4867,0.005900
72.776,74.4659,0.005900
72.807,74.4449,0.005900
72.838,74.4247,0.005740
72.870,74.4046,0.005740
72.901,74.3864,0.005740
72.932,74.3683,0.005740
72.962,74.3521,0.005740
72.993,74.3353,0.005740
73.024,74.3199,0.005740
73.054,74.3052,0.005740
73.086,74.2910,0.005543
73.116,74.2776,0.005543
73.147,74.2651,0.005543
73.178,74.2532,0.005543
73.209,74.2417,0.005543
73.241,74.2309,0.005543
73.271,74.2210,0.005543
73.302,74.2122,0.005543
73.334,74.2036,0.005449
73.365,74.1957,0.005449
73.396,74.1888,0.005449
73.432,74.1816,0.005449
73.473,74.1747,0.005449
73.503,74.1706,0.005449
73.534,74.1670,0.005449
73.564,74.1640,0.005326
73.594,74.1618,0.005326
73.626,74.1603,0.005326
73.656,74.1594,0.005326
73.687,74.1593,0.005326
73.718,74.1593,0.005326
73.752,74.1593,0.005326
73.780,74.1593,0.005326
73.811,74.1593,0.005326
73.844,74.1593,0.005223
73.873,74.1593,0.005223
73.904,74.1593,0.005223
73.935,74.1593,0.005223
73.966,74.1593,0.005223
73.997,74.1593,0.005223
74.027,74.1593,0.005223
74.058,74.1593,0.005195
74.090,74.1593,0.005195
74.121,74.1593,0.005195
74.151,74.1593,0.005195
74.182,74.1593,0.005195
74.213,74.1593,0.005195
74.244,74.1593,0.005195
74.275,74.1593,0.005195
74.306,74.1593,0.005176
74.337,74.1597,0.005176
74.369,74.1609,0.005176
74.400,74.1629,0.005176
74.431,74.1655,0.005176
74.463,74.1690,0.005176
74.492,74.1728,0.005176
74.522,74.1775,0.005176
74.553,74.1830,0.005091
74.585,74.1893,0.005091
74.616,74.1964,0.005091
74.647,74.2041,0.005091
74.678,74.2125,0.005091
74.709,74.2216,0.005091
74.740,74.2315,0.005091
74.771,74.2423,0.005091
74.802,74.2538,0.004959
74.836,74.2667,0.004959
74.865,74.2790,0.004959
74.897,74.2929,0.004959
74.928,74.3070,0.004959
74.958,74.3222,0.004959
74.991,74.3387,0.004959
75.019,74.3533,0.004959
75.050,74.3707,0.004884
75.081,74.3886,0.004884
75.113,74.4080,0.004884
75.143,74.4263,0.004884
75.175,74.4473,0.004884
75.206,74.4678,0.004884
75.237,74.4896,0.004884
75.267,74.5113,0.004884
75.299,74.5346,0.004884
75.331,74.5593,0.004733
75.360,74.5827,0.004733
75.392,74.6082,0.004733
75.422,74.6336,0.004733
75.454,74.6605,0.004733
75.484,74.6879,0.004733
75.515,74.7161,0.004733
75.545,74.7435,0.004733
75.576,74.7726,0.004620
75.607,74.8034,0.004620
75.638,74.8341,0.004620
75.669,74.8654,0.004620
75.699,74.8964,0.004620
75.730,74.9298,0.004620
75.761,74.9632,0.004620
75.791,74.9976,0.004620
75.823,75.0336,0.004536
75.854,75.0694,0.004536
75.885,75.1069,0.004536
75.916,75.1444,0.004536
75.947,75.1835,0.004536
75.978,75.2223,0.004536
76.008,75.2602,0.004536
76.039,75.3005,0.004536
76.070,75.3424,0.004338
76.101,75.3829,0.004338
76.132,75.4267,0.004338
76.164,75.4700,0.004338
76.195,75.5146,0.004338
76.226,75.5592,0.004338
76.258,75.6056,0.004338
76.288,75.6512,0.004338
76.321,75.7001,0.004338
76.350,75.7438,0.004037
76.382,75.7922,0.004037
76.413,75.8387,0.004037
76.444,75.8850,0.004037
76.474,75.9306,0.004037
76.505,75.9764,0.004037
76.536,76.0241,0.004037
76.567,76.0703,0.003849
76.599,76.1173,0.003849
76.632,76.1661,0.003849
76.661,76.2108,0.003849
76.692,76.2564,0.003849
76.723,76.3038,0.003849
76.754,76.3494,0.003849
76.785,76.3961,0.003849
76.816,76.4421,0.003792
76.846,76.4879,0.003792
76.878,76.5356,0.003792
76.908,76.5804,0.003792
76.940,76.6297,0.003792
76.971,76.6748,0.003792
77.002,76.7213,0.003792
77.032,76.7664,0.003792
77.063,76.8127,0.003604
77.094,76.8598,0.003604
77.124,76.9047,0.003604
77.155,76.9523,0.003604
77.185,76.9971,0.003604
77.218,77.0471,0.003604
77.247,77.0899,0.003604
77.279,77.1374,0.003604
77.310,77.1840,0.003369
77.343,77.2349,0.003369
77.372,77.2771,0.003369
77.403,77.3234,0.003369
77.434,77.3698,0.003369
77.466,77.4172,0.003369
77.497,77.4653,0.003369
77.528,77.5109,0.003369
77.559,77.5569,0.003049
77.590,77.6043,0.003049
77.620,77.6493,0.003049
77.652,77.6967,0.003049
77.683,77.7422,0.003049
77.714,77.7877,0.003049
77.746,77.8334,0.003049
77.776,77.8746,0.003049
77.807,77.9186,0.003049
77.838,77.9609,0.002588
77.869,78.0021,0.002588
77.900,78.0422,0.002588
77.931,78.0826,0.002588
77.962,78.1215,0.002588
77.994,78.1618,0.002588
78.025,78.1985,0.002588
78.057,78.2371,0.001901
78.087,78.2731,0.001901
78.118,78.3078,0.001901
78.149,78.3426,0.001901
78.180,78.3767,0.001901
78.211,78.4100,0.001901
78.241,78.4426,0.001901
78.272,78.4742,0.001901
78.303,78.5057,0.001901
78.334,78.5361,0.000508
78.365,78.5657,0.000508
78.396,78.5939,0.000508
78.427,78.6229,0.000508
78.459,78.6511,0.000508
78.489,78.6775,0.000508
78.520,78.7032,0.000508
78.550,78.7273,-0.002522
78.581,78.7525,-0.002522
78.612,78.7760,-0.002522
78.643,78.7998,-0.002522
78.673,78.8217,-0.002522
78.706,78.8448,-0.002522
78.734,78.8635,-0.002522
78.765,78.8842,-0.002522
78.796,78.9033,-0.007942
78.827,78.9224,-0.007942
78.858,78.9408,-0.007942
78.890,78.9589,-0.007942
78.920,78.9755,-0.007942
78.952,78.9916,-0.007942
78.983,79.0068,-0.007942
79.014,79.0213,-0.007942
79.044,79.0348,-0.015489
79.075,79.0480,-0.015489
79.106,79.0601,-0.015489
79.138,79.0720,-0.015489
79.167,79.0827,-0.015489
79.198,79.0926,-0.015489
79.229,79.1020,-0.015489
79.260,79.1108,-0.015489
79.291,79.1189,-0.023131
79.329,79.1277,-0.023131
79.370,79.1360,-0.023131
79.400,79.1413,-0.023131
79.431,79.1462,-0.023131
79.462,79.1500,-0.023131
79.493,79.1534,-0.023131
79.523,79.1560,-0.023131
79.555,79.1578,-0.023131
79.587,79.1590,-0.028052
79.618,79.1593,-0.028052
79.649,79.1593,-0.028052
79.680,79.1593,-0.028052
79.711,79.1593,-0.028052
79.743,79.1593,-0.028052
79.774,79.1593,-0.028052
79.805,79.1593,-0.028052
79.836,79.1593,-0.028513
79.867,79.1593,-0.028513
79.898,79.1593,-0.028513
79.929,79.1593,-0.028513
79.960,79.1593,-0.028513
79.991,79.1593,-0.028513
80.022,79.1593,-0.028513
80.054,79.1593,-0.026311
80.085,79.1593,-0.026311
80.118,79.1593,-0.026311
80.146,79.1593,-0.026311
80.177,79.1593,-0.026311
80.208,79.1593,-0.026311
80.239,79.1593,-0.026311
80.270,79.1593,-0.026311
80.304,79.1593,-0.026311
80.332,79.1593,-0.024260
80.363,79.1593,-0.024260
80.394,79.1593,-0.024260
80.425,79.1593,-0.024260
80.456,79.1593,-0.024260
80.487,79.1593,-0.024260
80.519,79.1593,-0.024260
80.549,79.1593,-0.024260
80.580,79.1593,-0.024260
80.612,79.1593,-0.022830
80.642,79.1593,-0.022830
80.673,79.1593,-0.022830
80.703,79.1593,-0.022830
80.734,79.1593,-0.022830
80.764,79.1593,-0.022830
80.795,79.1593,-0.021747
80.826,79.1593,-0.021747
80.860,79.1593,-0.021747
80.888,79.1593,-0.021747
80.920,79.1593,-0.021747
80.951,79.1593,-0.021747
80.982,79.1593,-0.021747
81.013,79.1593,-0.021747
81.043,79.1593,-0.021747
81.075,79.1593,-0.021747
81.109,79.1593,-0.020853
81.140,79.1593,-0.020853
81.169,79.1593,-0.020853
81.201,79.1593,-0.020853
81.235,79.1593,-0.020853
81.263,79.1593,-0.020853
81.294,79.1593,-0.020853
81.324,79.1593,-0.020853
81.358,79.1593,-0.020195
81.387,79.1593,-0.020195
81.418,79.1593,-0.020195
81.448,79.1593,-0.020195
81.479,79.1593,-0.020195
81.510,79.1593,-0.020195
81.541,79.1593,-0.020195
81.571,79.1593,-0.020195
81.602,79.1593,-0.019630
81.633,79.1593,-0.019630
81.664,79.1593,-0.019630
81.694,79.1593,-0.019630
81.726,79.1593,-0.019630
81.756,79.1593,-0.019630
81.787,79.1593,-0.019630
81.818,79.1593,-0.019094
81.850,79.1593,-0.019094
81.880,79.1593,-0.019094
81.912,79.1593,-0.019094
81.942,79.1593,-0.019094
81.973,79.1593,-0.019094
82.004,79.1593,-0.019094
82.035,79.1593,-0.019094
82.066,79.1593,-0.018633
82.096,79.1593,-0.018633
82.128,79.1593,-0.018633
82.159,79.1593,-0.018633
82.190,79.1593,-0.018633
82.221,79.1593,-0.018633
82.252,79.1593,-0.018633
82.283,79.1593,-0.018633
82.315,79.1593,-0.018209
82.345,79.1593,-0.018209
82.379,79.1593,-0.018209
82.407,79.1593,-0.018209
82.440,79.1593,-0.018209
82.468,79.1593,-0.018209
82.500,79.1593,-0.018209
82.531,79.1593,-0.017833
82.562,79.1593,-0.017833
82.594,79.1593,-0.017833
82.626,79.1593,-0.017833
82.656,79.1593,-0.017833
82.687,79.1593,-0.017833
82.718,79.1593,-0.017833
82.750,79.1593,-0.017833
82.780,79.1593,-0.017833
82.810,79.1593,-0.017494
82.841,79.1593,-0.017494
82.871,79.1593,-0.017494
82.902,79.1593,-0.017494
82.934,79.1593,-0.017494
82.963,79.1593,-0.017494
82.994,79.1593,-0.017494
83.025,79.1593,-0.017494
83.057,79.1593,-0.017494
83.088,79.1593,-0.017193
83.120,79.1593,-0.017193
83.151,79.1593,-0.017193
83.182,79.1593,-0.017193
83.213,79.1593,-0.017193
83.244,79.1593,-0.017193
83.274,79.1593,-0.017193
83.305,79.1593,-0.017193
83.336,79.1593,-0.016939
83.367,79.1593,-0.016939
83.398,79.1593,-0.016939
83.429,79.1593,-0.016939
83.460,79.1593,-0.016939
83.492,79.1593,-0.016939
83.523,79.1593,-0.016939
83.554,79.1593,-0.016939
83.585,79.1593,-0.016703
83.616,79.1593,-0.016703
83.647,79.1593,-0.016703
83.678,79.1593,-0.016703
83.710,79.1593,-0.016703
83.740,79.1593,-0.016703
83.772,79.1593,-0.016703
83.802,79.1593,-0.016703
83.833,79.1593,-0.016421
83.864,79.1593,-0.016421
83.894,79.1593,-0.016421
83.927,79.1593,-0.016421
83.957,79.1593,-0.016421
83.987,79.1593,-0.016421
84.019,79.1593,-0.016421
84.050,79.1593,-0.016421
84.081,79.1593,-0.016139
84.115,79.1593,-0.016139
84.144,79.1593,-0.016139
84.176,79.1593,-0.016139
84.207,79.1593,-0.016139
84.237,79.1593,-0.016139
84.268,79.1593,-0.016139
84.298,79.1593,-0.016139
84.329,79.1593,-0.016139
84.360,79.1593,-0.015904
84.391,79.1593,-0.015904
84.423,79.1593,-0.015904
84.452,79.1593,-0.015904
84.483,79.1593,-0.015904
84.514,79.1593,-0.015904
84.544,79.1588,-0.015687
84.576,79.1577,-0.015687
84.606,79.1557,-0.015687
84.637,79.1530,-0.015687
84.668,79.1498,-0.015687
84.698,79.1458,-0.015687
84.729,79.1410,-0.015687
84.760,79.1355,-0.015687
84.791,79.1293,-0.015687
84.821,79.1225,-0.014803
84.852,79.1148,-0.014803
84.883,79.1064,-0.014803
84.915,79.0969,-0.014803
84.946,79.0869,-0.014803
84.978,79.0761,-0.014803
85.008,79.0652,-0.014803
85.039,79.0529,-0.009853
85.070,79.0399,-0.009853
85.102,79.0260,-0.009853
85.133,79.0122,-0.009853
85.163,78.9973,-0.009853
85.194,78.9820,-0.009853
85.225,78.9650,-0.009853
85.257,78.9479,-0.009853
85.287,78.9301,-0.009853
85.318,78.9113,-0.000367
85.351,78.8908,-0.000367
85.380,78.8725,-0.000367
85.411,78.8515,-0.000367
85.441,78.8304,-0.000367
85.473,78.8076,-0.000367
85.503,78.7846,-0.000367
85.535,78.7610,0.009664
85.566,78.7370,0.009664
85.596,78.7125,0.009664
85.626,78.6865,0.009664
85.659,78.6585,0.009664
85.687,78.6338,0.009664
85.719,78.6048,0.009664
85.750,78.5764,0.009664
85.782,78.5453,0.009664
85.813,78.5156,0.016967
85.845,78.4835,0.016967
85.874,78.4534,0.016967
85.906,78.4200,0.016967
85.933,78.3916,0.016967
85.968,78.3529,0.016967
85.999,78.3186,0.016967
86.030,78.2826,0.016967
86.062,78.2465,0.021493
86.093,78.2103,0.021493
86.123,78.1727,0.021493
86.155,78.1346,0.021493
86.185,78.0957,0.021493
86.216,78.0568,0.021493
86.247,78.0166,0.021493
86.277,77.9747,0.021493
86.309,77.9330,0.021493
86.340,77.8896,0.026697
86.371,77.8478,0.026697
86.402,77.8028,0.026697
86.433,77.7584,0.026697
86.464,77.7117,0.026697
86.494,77.6666,0.026697
86.525,77.6216,0.026697
86.556,77.5742,0.033764
86.587,77.5279,0.033764
86.618,77.4812,0.033764
86.650,77.4345,0.033764
86.681,77.3878,0.033764
86.712,77.3420,0.033764
86.743,77.2948,0.033764
86.773,77.2491,0.033764
86.804,77.2027,0.033764
86.835,77.1565,0.038724
86.866,77.1100,0.038724
86.897,77.0627,0.038724
86.928,77.0169,0.038724
86.959,76.9691,0.038724
86.989,76.9252,0.038724
87.020,76.8783,0.038724
87.051,76.8314,0.038724
87.083,76.7849,0.024674
87.114,76.7385,0.024674
87.144,76.6926,0.024674
87.175,76.6460,0.024674
87.206,76.5999,0.024674
87.238,76.5519,0.024674
87.269,76.5063,0.024674
87.301,76.4580,0.024674
87.331,76.4116,0.008648
87.362,76.3652,0.008648
87.393,76.3192,0.008648
87.423,76.2737,0.008648
87.453,76.2300,0.008648
87.484,76.1829,0.008648
87.516,76.1356,0.008648
87.547,76.0881,0.008648
87.577,76.0431,0.008648
87.608,75.9961,0.007519
87.639,75.9508,0.007519
87.670,75.9046,0.007519
87.700,75.8589,0.007519
87.731,75.8126,0.007519
87.762,75.7665,0.007519
87.792,75.7194,0.007519
87.824,75.6739,0.007048
87.853,75.6281,0.007048
87.885,75.5819,0.007048
87.916,75.5351,0.007048
87.947,75.4902,0.007048
87.981,75.4396,0.007048
88.009,75.4013,0.007048
88.040,75.3587,0.007048
88.071,75.3168,0.006681
88.107,75.2683,0.006681
88.133,75.2347,0.006681
88.163,75.1935,0.006681
88.194,75.1556,0.006681
88.226,75.1154,0.006681
88.258,75.0772,0.006681
88.289,75.0404,0.006305
88.319,75.0053,0.006305
88.350,74.9696,0.006305
88.380,74.9347,0.006305
88.412,74.9000,0.006305
88.443,74.8653,0.006305
88.476,74.8315,0.006305
88.505,74.8009,0.006305
88.536,74.7705,0.006098
88.564,74.7424,0.006098
88.599,74.7084,0.006098
88.629,74.6802,0.006098
88.661,74.6505,0.006098
88.692,74.6229,0.006098
88.723,74.5953,0.006098
88.756,74.5685,0.006098
88.787,74.5428,0.006098
88.817,74.5190,0.005929
88.848,74.4948,0.005929
88.878,74.4720,0.005929
88.910,74.4488,0.005929
88.941,74.4270,0.005929
88.972,74.4058,0.005929
89.003,74.3850,0.005929
89.033,74.3661,0.005929
89.065,74.3468,0.005740
89.096,74.3287,0.005740
89.126,74.3115,0.005740
89.157,74.2945,0.005740
89.188,74.2788,0.005740
89.220,74.2629,0.005740
89.252,74.2479,0.005740
89.282,74.2345,0.005740
89.313,74.2215,0.005590
89.343,74.2091,0.005590
89.375,74.1974,0.005590
89.405,74.1864,0.005590
89.438,74.1756,0.005590
89.468,74.1668,0.005590
89.498,74.1582,0.005590
89.530,74.1499,0.005590
89.562,74.1422,0.005430
89.593,74.1358,0.005430
89.624,74.1298,0.005430
89.657,74.1245,0.005430
89.685,74.1205,0.005430
89.717,74.1168,0.005430
89.747,74.1139,0.005430
89.779,74.1117,0.005430
89.810,74.1101,0.005326
89.835,74.1095,0.005326
89.873,74.1093,0.005326
89.907,74.1093,0.005326
89.934,74.1093,0.005326
89.966,74.1093,0.005326
89.997,74.1093,0.005326
90.029,74.1093,0.005326
90.063,74.1093,0.005326
90.090,74.1093,0.005326
90.122,74.1093,0.005326
90.154,74.1093,0.005326
90.185,74.1093,0.005326
90.216,74.1093,0.005326
90.248,74.1093,0.005326
90.278,74.1093,0.005317
90.309,74.1093,0.005317
90.340,74.1093,0.005317
90.371,74.1093,0.005317
90.401,74.1093,0.005317
90.433,74.1093,0.005317
90.463,74.1093,0.005317
90.494,74.1095,0.005317
90.524,74.1102,0.005317
90.556,74.1117,0.005317
90.588,74.1140,0.005242
90.617,74.1168,0.005242
90.648,74.1204,0.005242
90.679,74.1247,0.005242
90.710,74.1300,0.005242
90.742,74.1358,0.005242
90.772,74.1423,0.005242
90.803,74.1498,0.005242
90.835,74.1578,0.005053
90.864,74.1660,0.005053
90.896,74.1757,0.005053
90.927,74.1857,0.005053
90.957,74.1963,0.005053
90.988,74.2078,0.005053
91.019,74.2205,0.005053
91.050,74.2336,0.004950
91.081,74.2471,0.004950
91.112,74.2616,0.004950
91.142,74.2768,0.004950
91.174,74.2928,0.004950
91.207,74.3110,0.004950
91.235,74.3266,0.004950
91.266,74.3451,0.004950
91.297,74.3641,0.004922
91.328,74.3838,0.004922
91.360,74.4043,0.004922
91.390,74.4249,0.004922
91.421,74.4459,0.004922
91.452,74.4689,0.004922
91.486,74.4947,0.004922
91.514,74.5161,0.004922
91.546,74.5414,0.004922
91.576,74.5659,0.004790
91.607,74.5927,0.004790
91.639,74.6203,0.004790
91.670,74.6475,0.004790
91.701,74.6767,0.004790
91.732,74.7053,0.004790
91.763,74.7353,0.004790
91.794,74.7657,0.004790
91.826,74.7978,0.004790
91.856,74.8288,0.004677
91.887,74.8615,0.004677
91.920,74.8974,0.004677
91.945,74.9253,0.004677
91.981,74.9651,0.004677
92.012,75.0013,0.004677
92.043,75.0374,0.004677
92.074,75.0747,0.004479
92.106,75.1129,0.004479
92.137,75.1522,0.004479
92.168,75.1911,0.004479
92.198,75.2306,0.004479
92.230,75.2726,0.004479
92.261,75.3130,0.004479
92.292,75.3570,0.004479
92.323,75.3996,0.004291
92.354,75.4428,0.004291
92.385,75.4871,0.004291
92.417,75.5329,0.004291
92.448,75.5789,0.004291
92.479,75.6263,0.004291
92.510,75.6717,0.004291
92.540,75.7175,0.004291
92.571,75.7646,0.004112
92.603,75.8118,0.004112
92.634,75.8589,0.004112
92.665,75.9056,0.004112
92.696,75.9516,0.004112
92.727,75.9971,0.004112
92.758,76.0439,0.004112
92.788,76.0900,0.004112
92.819,76.1349,0.003971
92.849,76.1820,0.003971
92.880,76.2272,0.003971
92.913,76.2769,0.003971
92.943,76.3210,0.003971
92.973,76.3682,0.003971
93.005,76.4138,0.003971
93.035,76.4606,0.003971
93.066,76.5066,0.003849
93.097,76.5535,0.003849
93.128,76.5995,0.003849
93.160,76.6467,0.003849
93.190,76.6918,0.003849
93.220,76.7390,0.003849
93.251,76.7848,0.003849
93.283,76.8312,0.003849
93.313,76.8765,0.003604
93.344,76.9233,0.003604
93.376,76.9717,0.003604
93.407,77.0169,0.003604
93.438,77.0641,0.003604
93.469,77.1107,0.003604
93.500,77.1573,0.003604
93.532,77.2050,0.003604
93.562,77.2497,0.003604
93.594,77.2979,0.003341
93.624,77.3437,0.003341
93.658,77.3952,0.003341
93.685,77.4345,0.003341
93.719,77.4859,0.003341
93.749,77.5308,0.003341
93.782,77.5814,0.003341
93.810,77.6230,0.003341
93.844,77.6734,0.002955
93.872,77.7143,0.002955
93.903,77.7587,0.002955
93.935,77.8031,0.002955
93.965,77.8465,0.002955
93.997,77.8896,0.002955
94.030,77.9342,0.002955
94.058,77.9720,0.002955
94.089,78.0105,0.002955
94.120,78.0504,0.002475
94.150,78.0888,0.002475
94.181,78.1276,0.002475
94.212,78.1647,0.002475
94.244,78.2019,0.002475
94.275,78.2378,0.002475
94.306,78.2742,0.002475
94.338,78.3094,0.001703
94.369,78.3430,0.001703
94.401,78.3764,0.001703
94.437,78.4148,0.001703
94.478,78.4552,0.001703
94.509,78.4862,0.001703
94.541,78.5179,0.001703
94.571,78.5454,-0.000122
94.602,78.5734,-0.000122
94.633,78.6005,-0.000122
94.664,78.6273,-0.000122
94.694,78.6532,-0.000122
94.726,78.6787,-0.000122
94.756,78.7028,-0.000122
94.786,78.7262,-0.000122
94.818,78.7499,-0.003849
94.849,78.7722,-0.003849
94.880,78.7948,-0.003849
94.915,78.8180,-0.003849
94.941,78.8350,-0.003849
94.973,78.8551,-0.003849
95.003,78.8741,-0.003849
95.036,78.8933,-0.003849
95.065,78.9090,-0.003849
95.095,78.9259,-0.010069
95.126,78.9413,-0.010069
95.157,78.9565,-0.010069
95.188,78.9711,-0.010069
95.219,78.9851,-0.010069
95.250,78.9982,-0.010069
95.283,79.0111,-0.010069
95.311,79.0218,-0.017917
95.343,79.0328,-0.017917
95.375,79.0435,-0.017917
95.406,79.0529,-0.017917
95.437,79.0616,-0.017917
95.469,79.0697,-0.017917
95.499,79.0767,-0.017917
95.530,79.0833,-0.017917
95.561,79.0892,-0.025022
95.592,79.0943,-0.025022
95.623,79.0986,-0.025022
95.655,79.1023,-0.025022
95.686,79.1050,-0.025022
95.719,79.1072,-0.025022
95.749,79.1086,-0.025022
95.780,79.1093,-0.025022
95.811,79.1093,-0.025022
95.845,79.1093,-0.028702
95.873,79.1093,-0.028702
95.903,79.1093,-0.028702
95.935,79.1093,-0.028702
95.969,79.1093,-0.028702
95.997,79.1093,-0.028702
96.028,79.1093,-0.028702
96.059,79.1093,-0.028090
96.092,79.1093,-0.028090
96.121,79.1093,-0.028090
96.153,79.1093,-0.028090
96.183,79.1093,-0.028090
96.213,79.1093,-0.028090
96.245,79.1093,-0.028090
96.276,79.1093,-0.028090
96.308,79.1093,-0.025634
96.339,79.1093,-0.025634
96.370,79.1093,-0.025634
96.401,79.1093,-0.025634
96.431,79.1093,-0.025634
96.462,79.1093,-0.025634
96.493,79.1093,-0.025634
