Elapsed Time (s),Position (mm),Force (N)
-0.013,77.4094,-0.048172
0.018,77.4094,-0.048172
0.050,77.4094,-0.048172
0.081,77.4094,-0.048172
0.112,77.4094,-0.048172
0.144,77.4094,-0.048172
0.174,77.4094,-0.048172
0.206,77.4094,-0.045320
0.238,77.4094,-0.045320
0.269,77.4094,-0.045320
0.300,77.4094,-0.045320
0.331,77.4094,-0.045320
0.364,77.4094,-0.045320
0.394,77.4094,-0.045320
0.425,77.4094,-0.045320
0.456,77.4094,-0.045320
0.487,77.4094,-0.043278
0.518,77.4094,-0.043278
0.549,77.4094,-0.043278
0.588,77.4094,-0.043278
0.625,77.4094,-0.043278
0.657,77.4094,-0.043278
0.688,77.4094,-0.043278
0.720,77.4094,-0.041735
0.753,77.4094,-0.041735
0.782,77.4094,-0.041735
0.813,77.4094,-0.041735
0.844,77.4094,-0.041735
0.876,77.4094,-0.041735
0.907,77.4094,-0.041735
0.938,77.4094,-0.041735
0.968,77.4094,-0.041735
0.999,77.4094,-0.040446
1.030,77.4094,-0.040446
1.061,77.4094,-0.040446
1.093,77.4094,-0.040446
1.124,77.4094,-0.040446
1.156,77.4094,-0.040446
1.186,77.4094,-0.040446
1.216,77.4094,-0.039392
1.246,77.4094,-0.039392
1.277,77.4094,-0.039392
1.308,77.4094,-0.039392
1.340,77.4094,-0.039392
1.372,77.4094,-0.039392
1.403,77.4094,-0.039392
1.434,77.4094,-0.039392
1.464,77.4094,-0.038526
1.497,77.4094,-0.038526
1.528,77.4094,-0.038526
1.561,77.4094,-0.038526
1.590,77.4094,-0.038526
1.621,77.4094,-0.038526
1.652,77.4094,-0.038526
1.683,77.4094,-0.038526
1.714,77.4094,-0.037717
1.745,77.4094,-0.037717
1.776,77.4094,-0.037717
1.807,77.4094,-0.037717
1.838,77.4094,-0.037717
1.870,77.4094,-0.037717
1.899,77.4094,-0.037717
1.929,77.4094,-0.037717
1.961,77.4094,-0.037020
1.991,77.4094,-0.037020
2.022,77.4094,-0.037020
2.054,77.4094,-0.037020
2.084,77.4094,-0.037020
2.114,77.4094,-0.037020
2.145,77.4094,-0.037020
2.176,77.4094,-0.037020
2.207,77.4094,-0.037020
2.237,77.4094,-0.036362
2.269,77.4094,-0.036362
2.299,77.4094,-0.036362
2.330,77.4094,-0.036362
2.361,77.4094,-0.036362
2.391,77.4094,-0.036362
2.422,77.4094,-0.036362
2.453,77.4094,-0.036362
2.483,77.4094,-0.035825
2.515,77.4094,-0.035825
2.546,77.4094,-0.035825
2.577,77.4094,-0.035825
2.608,77.4094,-0.035825
2.639,77.4094,-0.035825
2.669,77.4094,-0.035825
2.701,77.4094,-0.035825
2.731,77.4094,-0.035327
2.763,77.4094,-0.035327
2.794,77.4094,-0.035327
2.824,77.4094,-0.035327
2.856,77.4094,-0.035327
2.887,77.4094,-0.035327
2.918,77.4094,-0.035327
2.949,77.4094,-0.034818
2.980,77.4094,-0.034818
3.010,77.4094,-0.034818
3.041,77.4094,-0.034818
3.072,77.4094,-0.034818
3.104,77.4094,-0.034818
3.135,77.4094,-0.034818
3.166,77.4094,-0.034818
3.197,77.4094,-0.034818
3.228,77.4094,-0.034395
3.260,77.4094,-0.034395
3.292,77.4094,-0.034395
3.322,77.4094,-0.034395
3.353,77.4094,-0.034395
3.384,77.4094,-0.034395
3.416,77.4094,-0.034395
3.447,77.4094,-0.034000
3.478,77.4094,-0.034000
3.509,77.4094,-0.034000
3.540,77.4094,-0.034000
3.571,77.4094,-0.034000
3.604,77.4094,-0.034000
3.634,77.4094,-0.034000
3.664,77.4094,-0.034000
3.695,77.4094,-0.033604
3.727,77.4094,-0.033604
3.757,77.4094,-0.033604
3.788,77.4094,-0.033604
3.819,77.4094,-0.033604
3.850,77.4094,-0.033604
3.880,77.4094,-0.033604
3.911,77.4094,-0.033604
3.942,77.4094,-0.033153
3.974,77.4094,-0.033153
4.005,77.4094,-0.033153
4.035,77.4094,-0.033153
4.066,77.4094,-0.033153
4.097,77.4090,-0.033153
4.128,77.4079,-0.033153
4.159,77.4059,-0.033153
4.190,77.4034,-0.032767
4.221,77.4001,-0.032767
4.252,77.3958,-0.032767
4.283,77.3912,-0.032767
4.315,77.3854,-0.032767
4.347,77.3790,-0.032767
4.379,77.3718,-0.032767
4.410,77.3643,-0.032767
4.440,77.3559,-0.032767
4.471,77.3468,-0.029774
4.502,77.3367,-0.029774
4.533,77.3264,-0.029774
4.565,77.3146,-0.029774
4.596,77.3024,-0.029774
4.628,77.2889,-0.029774
4.658,77.2757,-0.029774
4.694,77.2592,-0.029774
4.721,77.2459,-0.020402
4.752,77.2303,-0.020402
4.782,77.2143,-0.020402
4.813,77.1969,-0.020402
4.845,77.1784,-0.020402
4.875,77.1602,-0.020402
4.907,77.1408,-0.020402
4.936,77.1210,-0.020402
4.967,77.1005,-0.006390
4.998,77.0793,-0.006390
5.029,77.0569,-0.006390
5.060,77.0336,-0.006390
5.091,77.0106,-0.006390
5.123,76.9856,-0.006390
5.154,76.9598,-0.006390
5.186,76.9336,0.007359
5.216,76.9071,0.007359
5.248,76.8789,0.007359
5.279,76.8511,0.007359
5.310,76.8223,0.007359
5.341,76.7922,0.007359
5.372,76.7617,0.007359
5.402,76.7311,0.007359
5.433,76.7002,0.007359
5.464,76.6674,0.017089
5.495,76.6351,0.017089
5.526,76.5996,0.017089
5.557,76.5666,0.017089
5.588,76.5302,0.017089
5.619,76.4952,0.017089
5.651,76.4547,0.017089
5.680,76.4210,0.017089
5.711,76.3829,0.022717
5.742,76.3437,0.022717
5.778,76.2971,0.022717
5.804,76.2631,0.022717
5.835,76.2227,0.022717
5.865,76.1816,0.022717
5.896,76.1392,0.022717
5.927,76.0959,0.022717
5.959,76.0512,0.022717
5.990,76.0058,0.027996
6.022,75.9593,0.027996
6.052,75.9138,0.027996
6.083,75.8664,0.027996
6.114,75.8206,0.027996
6.146,75.7727,0.027996
6.176,75.7276,0.027996
6.207,75.6808,0.027996
6.238,75.6343,0.034442
6.270,75.5870,0.034442
6.300,75.5412,0.034442
6.331,75.4941,0.034442
6.362,75.4488,0.034442
6.393,75.4017,0.034442
6.424,75.3556,0.034442
6.456,75.3074,0.034442
6.487,75.2611,0.038573
6.518,75.2150,0.038573
6.549,75.1685,0.038573
6.580,75.1220,0.038573
6.611,75.0755,0.038573
6.641,75.0302,0.038573
6.673,74.9833,0.038573
6.704,74.9355,0.038573
6.735,74.8902,0.024448
6.765,74.8439,0.024448
6.797,74.7966,0.024448
6.828,74.7497,0.024448
6.859,74.7029,0.024448
6.891,74.6544,0.024448
6.922,74.6078,0.024448
6.954,74.5589,0.024448
6.985,74.5151,0.024448
7.015,74.4685,0.007839
7.045,74.4239,0.007839
7.076,74.3775,0.007839
7.107,74.3317,0.007839
7.137,74.2862,0.007839
7.168,74.2387,0.007839
7.200,74.1924,0.007839
7.230,74.1456,0.005929
7.262,74.0985,0.005929
7.293,74.0520,0.005929
7.323,74.0063,0.005929
7.355,73.9593,0.005929
7.386,73.9133,0.005929
7.417,73.8660,0.005929
7.448,73.8195,0.005674
7.480,73.7719,0.005674
7.511,73.7282,0.005674
7.543,73.6828,0.005674
7.574,73.6382,0.005674
7.606,73.5940,0.005674
7.637,73.5522,0.005674
7.666,73.5130,0.005674
7.697,73.4733,0.005674
7.728,73.4333,0.005562
7.759,73.3942,0.005562
7.789,73.3566,0.005562
7.820,73.3194,0.005562
7.850,73.2828,0.005562
7.882,73.2465,0.005562
7.913,73.2103,0.005562
7.944,73.1752,0.005562
7.974,73.1422,0.005467
8.006,73.1087,0.005467
8.036,73.0755,0.005467
8.068,73.0439,0.005467
8.099,73.0127,0.005467
8.137,72.9749,0.005467
8.176,72.9379,0.005467
8.207,72.9095,0.005430
8.238,72.8810,0.005430
8.269,72.8540,0.005430
8.300,72.8274,0.005430
8.332,72.8010,0.005430
8.362,72.7766,0.005430
8.394,72.7519,0.005430
8.426,72.7280,0.005430
8.456,72.7054,0.005430
8.488,72.6827,0.005355
8.519,72.6615,0.005355
8.550,72.6408,0.005355
8.580,72.6211,0.005355
8.611,72.6026,0.005355
8.643,72.5834,0.005355
8.675,72.5655,0.005355
8.706,72.5483,0.005355
8.735,72.5330,0.005326
8.769,72.5160,0.005326
8.801,72.5006,0.005326
8.833,72.4867,0.005326
8.863,72.4735,0.005326
8.895,72.4609,0.005326
8.925,72.4493,0.005326
8.956,72.4379,0.005289
8.987,72.4280,0.005289
9.018,72.4184,0.005289
9.048,72.4095,0.005289
9.082,72.4005,0.005289
9.111,72.3937,0.005289
9.142,72.3871,0.005289
9.173,72.3811,0.005289
9.205,72.3756,0.005195
9.236,72.3710,0.005195
9.265,72.3676,0.005195
9.297,72.3645,0.005195
9.327,72.3621,0.005195
9.358,72.3605,0.005195
9.389,72.3596,0.005195
9.420,72.3594,0.005195
9.451,72.3594,0.005185
9.482,72.3594,0.005185
9.514,72.3594,0.005185
9.545,72.3594,0.005185
9.575,72.3599,0.005185
9.607,72.3610,0.005185
9.638,72.3630,0.005185
9.668,72.3656,0.005185
9.699,72.3689,0.005185
9.731,72.3731,0.005242
9.762,72.3781,0.005242
9.794,72.3838,0.005242
9.824,72.3899,0.005242
9.855,72.3968,0.005242
9.886,72.4048,0.005242
9.917,72.4132,0.005242
9.947,72.4224,0.005147
9.979,72.4323,0.005147
10.010,72.4432,0.005147
10.043,72.4549,0.005147
10.073,72.4671,0.005147
10.104,72.4802,0.005147
10.135,72.4932,0.005147
10.166,72.5075,0.005147
10.196,72.5225,0.005147
10.227,72.5382,0.004997
10.258,72.5547,0.004997
10.290,72.5722,0.004997
10.320,72.5897,0.004997
10.351,72.6084,0.004997
10.383,72.6286,0.004997
10.414,72.6483,0.004997
10.445,72.6699,0.004978
10.476,72.6909,0.004978
10.507,72.7137,0.004978
10.539,72.7369,0.004978
10.569,72.7603,0.004978
10.600,72.7855,0.004978
10.631,72.8099,0.004978
10.663,72.8362,0.004978
10.694,72.8636,0.004978
10.725,72.8911,0.004856
10.756,72.9196,0.004856
10.788,72.9487,0.004856
10.818,72.9773,0.004856
10.848,73.0076,0.004856
10.880,73.0389,0.004856
10.912,73.0725,0.004856
10.944,73.1052,0.004686
10.974,73.1377,0.004686
11.005,73.1721,0.004686
11.035,73.2061,0.004686
11.067,73.2415,0.004686
11.098,73.2776,0.004686
11.128,73.3145,0.004686
11.160,73.3533,0.004686
11.191,73.3910,0.004686
11.222,73.4304,0.004564
11.253,73.4699,0.004564
11.284,73.5107,0.004564
11.315,73.5510,0.004564
11.350,73.5998,0.004564
11.376,73.6354,0.004564
11.407,73.6793,0.004564
11.438,73.7228,0.004357
11.469,73.7675,0.004357
11.500,73.8148,0.004357
11.533,73.8640,0.004357
11.562,73.9067,0.004357
11.592,73.9518,0.004357
11.623,73.9990,0.004357
11.654,74.0452,0.004357
11.685,74.0915,0.004357
11.716,74.1385,0.004103
11.747,74.1852,0.004103
11.778,74.2317,0.004103
11.810,74.2780,0.004103
11.840,74.3243,0.004103
11.872,74.3712,0.004103
11.903,74.4194,0.004103
11.934,74.4645,0.004103
11.965,74.5103,0.003924
11.996,74.5579,0.003924
12.028,74.6048,0.003924
12.058,74.6509,0.003924
12.090,74.6978,0.003924
12.120,74.7424,0.003924
12.150,74.7889,0.003924
12.182,74.8370,0.003632
12.213,74.8831,0.003632
12.244,74.9298,0.003632
12.275,74.9761,0.003632
12.306,75.0219,0.003632
12.337,75.0693,0.003632
12.368,75.1155,0.003632
12.399,75.1633,0.003632
12.431,75.2103,0.003632
12.462,75.2575,0.003275
12.493,75.3021,0.003275
12.524,75.3496,0.003275
12.554,75.3941,0.003275
12.586,75.4426,0.003275
12.617,75.4888,0.003275
12.649,75.5372,0.003275
12.679,75.5816,0.003275
12.710,75.6280,0.002833
12.742,75.6755,0.002833
12.772,75.7223,0.002833
12.804,75.7700,0.002833
12.834,75.8143,0.002833
12.865,75.8613,0.002833
12.896,75.9073,0.002833
12.928,75.9533,0.002833
12.959,75.9996,0.002833
12.991,76.0440,0.002014
13.022,76.0874,0.002014
13.053,76.1302,0.002014
13.085,76.1737,0.002014
13.115,76.2139,0.002014
13.146,76.2548,0.002014
13.178,76.2946,0.002014
13.208,76.3337,0.000659
13.240,76.3718,0.000659
13.275,76.4153,0.000659
13.302,76.4464,0.000659
13.333,76.4838,0.000659
13.364,76.5186,0.000659
13.396,76.5537,0.000659
13.426,76.5868,0.000659
13.457,76.6201,0.000659
13.489,76.6528,-0.001920
13.522,76.6868,-0.001920
13.551,76.7164,-0.001920
13.582,76.7463,-0.001920
13.613,76.7762,-0.001920
13.647,76.8076,-0.001920
13.675,76.8328,-0.001920
13.706,76.8597,-0.007274
13.737,76.8867,-0.007274
13.768,76.9119,-0.007274
13.800,76.9379,-0.007274
13.830,76.9616,-0.007274
13.862,76.9866,-0.007274
13.893,77.0090,-0.007274
13.924,77.0312,-0.007274
13.955,77.0528,-0.016543
13.986,77.0732,-0.016543
14.016,77.0937,-0.016543
14.048,77.1128,-0.016543
14.079,77.1315,-0.016543
14.111,77.1499,-0.016543
14.142,77.1668,-0.016543
14.172,77.1826,-0.016543
14.202,77.1984,-0.016543
14.233,77.2131,-0.028843
14.264,77.2274,-0.028843
14.295,77.2406,-0.028843
14.326,77.2536,-0.028843
14.356,77.2656,-0.028843
14.388,77.2768,-0.028843
14.419,77.2877,-0.028843
14.451,77.2975,-0.028843
14.481,77.3065,-0.041133
14.513,77.3151,-0.041133
14.544,77.3227,-0.041133
14.575,77.3297,-0.041133
14.607,77.3362,-0.041133
14.639,77.3418,-0.041133
14.669,77.3463,-0.041133
14.700,77.3503,-0.041133
14.731,77.3535,-0.049743
14.762,77.3561,-0.049743
14.794,77.3580,-0.049743
14.825,77.3590,-0.049743
14.856,77.3594,-0.049743
14.887,77.3594,-0.049743
14.918,77.3594,-0.049743
14.948,77.3594,-0.049743
14.979,77.3594,-0.052124
15.010,77.3594,-0.052124
15.041,77.3594,-0.052124
15.072,77.3594,-0.052124
15.103,77.3594,-0.052124
15.135,77.3594,-0.052124
15.165,77.3594,-0.052124
15.196,77.3594,-0.052124
15.227,77.3594,-0.052124
15.258,77.3594,-0.049612
15.288,77.3594,-0.049612
15.320,77.3594,-0.049612
15.351,77.3594,-0.049612
15.382,77.3594,-0.049612
15.413,77.3594,-0.049612
15.445,77.3594,-0.049612
15.475,77.3594,-0.046290
15.506,77.3594,-0.046290
15.537,77.3594,-0.046290
15.569,77.3594,-0.046290
15.599,77.3594,-0.046290
15.631,77.3594,-0.046290
15.662,77.3594,-0.046290
15.695,77.3594,-0.046290
15.724,77.3594,-0.043994
15.755,77.3594,-0.043994
15.785,77.3594,-0.043994
15.816,77.3594,-0.043994
15.847,77.3594,-0.043994
15.878,77.3594,-0.043994
15.909,77.3594,-0.043994
15.941,77.3594,-0.043994
15.971,77.3594,-0.042319
16.001,77.3594,-0.042319
16.033,77.3594,-0.042319
16.064,77.3594,-0.042319
16.096,77.3594,-0.042319
16.127,77.3594,-0.042319
16.157,77.3594,-0.042319
16.187,77.3594,-0.042319
16.219,77.3594,-0.040907
16.250,77.3594,-0.040907
16.281,77.3594,-0.040907
16.312,77.3594,-0.040907
16.342,77.3594,-0.040907
16.374,77.3594,-0.040907
16.405,77.3594,-0.040907
16.437,77.3594,-0.040907
16.467,77.3594,-0.039712
16.500,77.3594,-0.039712
16.530,77.3594,-0.039712
16.561,77.3594,-0.039712
16.592,77.3594,-0.039712
16.624,77.3594,-0.039712
16.655,77.3594,-0.039712
16.687,77.3594,-0.038771
16.717,77.3594,-0.038771
16.748,77.3594,-0.038771
16.779,77.3594,-0.038771
16.811,77.3594,-0.038771
16.840,77.3594,-0.038771
16.872,77.3594,-0.038771
16.903,77.3594,-0.038771
16.934,77.3594,-0.038771
16.965,77.3594,-0.037971
16.996,77.3594,-0.037971
17.028,77.3594,-0.037971
17.059,77.3594,-0.037971
17.089,77.3594,-0.037971
17.120,77.3594,-0.037971
17.151,77.3594,-0.037971
17.184,77.3594,-0.037971
17.212,77.3594,-0.037265
17.242,77.3594,-0.037265
17.273,77.3594,-0.037265
17.304,77.3594,-0.037265
17.335,77.3594,-0.037265
17.365,77.3594,-0.037265
17.396,77.3594,-0.037265
17.427,77.3594,-0.037265
17.458,77.3594,-0.036606
17.489,77.3594,-0.036606
17.520,77.3594,-0.036606
17.550,77.3594,-0.036606
17.581,77.3594,-0.036606
17.612,77.3594,-0.036606
17.642,77.3594,-0.036606
17.673,77.3594,-0.036606
17.705,77.3594,-0.035957
17.736,77.3594,-0.035957
17.767,77.3594,-0.035957
17.798,77.3594,-0.035957
17.828,77.3594,-0.035957
17.859,77.3594,-0.035957
17.890,77.3594,-0.035957
17.921,77.3594,-0.035957
17.952,77.3594,-0.035411
17.985,77.3594,-0.035411
18.014,77.3594,-0.035411
18.045,77.3594,-0.035411
18.076,77.3594,-0.035411
18.107,77.3594,-0.035411
18.139,77.3594,-0.035411
18.172,77.3594,-0.035411
18.200,77.3594,-0.034960
18.232,77.3594,-0.034960
18.263,77.3594,-0.034960
18.294,77.3594,-0.034960
18.328,77.3594,-0.034960
18.357,77.3594,-0.034960
18.387,77.3594,-0.034960
18.419,77.3594,-0.034960
18.449,77.3594,-0.034960
18.480,77.3594,-0.034489
18.511,77.3594,-0.034489
18.542,77.3594,-0.034489
18.573,77.3594,-0.034489
18.604,77.3594,-0.034489
18.635,77.3594,-0.034489
18.666,77.3594,-0.034489
18.697,77.3594,-0.034084
18.728,77.3594,-0.034084
18.760,77.3594,-0.034084
18.792,77.3594,-0.034084
18.823,77.3594,-0.034084
18.853,77.3594,-0.034084
18.885,77.3594,-0.034084
18.916,77.3594,-0.034084
18.948,77.3594,-0.033764
18.978,77.3594,-0.033764
19.009,77.3594,-0.033764
19.040,77.3594,-0.033764
19.071,77.3594,-0.033764
19.102,77.3594,-0.033764
19.133,77.3594,-0.033764
19.165,77.3594,-0.033764
19.196,77.3594,-0.033322
19.226,77.3594,-0.033322
19.257,77.3594,-0.033322
19.289,77.3594,-0.033322
19.320,77.3594,-0.033322
19.351,77.3594,-0.033322
19.383,77.3594,-0.033322
19.415,77.3594,-0.033322
19.447,77.3594,-0.033322
19.476,77.3594,-0.033322
19.510,77.3594,-0.032955
19.539,77.3594,-0.032955
19.570,77.3594,-0.032955
19.600,77.3588,-0.032955
19.632,77.3574,-0.032955
19.663,77.3553,-0.032955
19.693,77.3524,-0.032955
19.724,77.3491,-0.032579
19.756,77.3447,-0.032579
19.786,77.3399,-0.032579
19.817,77.3341,-0.032579
19.848,77.3276,-0.032579
19.878,77.3207,-0.032579
19.909,77.3130,-0.032579
19.939,77.3046,-0.032579
19.970,77.2954,-0.029379
20.001,77.2852,-0.029379
20.032,77.2749,-0.029379
20.063,77.2633,-0.029379
20.093,77.2516,-0.029379
20.124,77.2381,-0.029379
20.156,77.2243,-0.029379
20.187,77.2099,-0.029379
20.218,77.1952,-0.019884
20.248,77.1792,-0.019884
20.280,77.1628,-0.019884
20.310,77.1453,-0.019884
20.341,77.1278,-0.019884
20.372,77.1088,-0.019884
20.403,77.0895,-0.019884
20.434,77.0698,-0.019884
20.466,77.0477,-0.005853
20.497,77.0259,-0.005853
20.528,77.0037,-0.005853
20.560,76.9804,-0.005853
20.591,76.9560,-0.005853
20.622,76.9315,-0.005853
20.652,76.9068,-0.005853
20.683,76.8810,-0.005853
20.714,76.8539,0.007811
20.745,76.8264,0.007811
20.776,76.7988,0.007811
20.807,76.7696,0.007811
20.838,76.7397,0.007811
20.869,76.7092,0.007811
20.900,76.6790,0.007811
20.930,76.6475,0.007811
20.962,76.6135,0.017306
20.994,76.5801,0.017306
21.025,76.5452,0.017306
21.056,76.5109,0.017306
21.087,76.4761,0.017306
21.118,76.4390,0.017306
21.148,76.4022,0.017306
21.180,76.3652,0.017306
21.211,76.3258,0.022726
21.240,76.2886,0.022726
21.272,76.2482,0.022726
21.302,76.2089,0.022726
21.334,76.1663,0.022726
21.364,76.1255,0.022726
21.394,76.0842,0.022726
21.426,76.0398,0.022726
21.458,75.9934,0.022726
21.490,75.9480,0.027930
21.520,75.9027,0.027930
21.551,75.8578,0.027930
21.583,75.8096,0.027930
21.612,75.7652,0.027930
21.643,75.7179,0.027930
21.674,75.6725,0.027930
21.705,75.6259,0.034179
21.737,75.5788,0.034179
21.769,75.5314,0.034179
21.798,75.4865,0.034179
21.830,75.4389,0.034179
21.860,75.3935,0.034179
21.893,75.3446,0.034179
21.923,75.2995,0.034179
21.955,75.2504,0.038131
21.985,75.2066,0.038131
22.016,75.1601,0.038131
22.046,75.1138,0.038131
22.076,75.0687,0.038131
22.107,75.0226,0.038131
22.137,74.9779,0.038131
22.168,74.9315,0.038131
22.199,74.8851,0.038131
22.230,74.8397,0.038131
22.260,74.7925,0.023912
22.291,74.7472,0.023912
22.322,74.7007,0.023912
22.352,74.6555,0.023912
22.385,74.6068,0.023912
22.414,74.5624,0.023912
22.445,74.5153,0.023912
22.476,74.4700,0.007500
22.507,74.4227,0.007500
22.537,74.3780,0.007500
22.568,74.3313,0.007500
22.600,74.2846,0.007500
22.631,74.2361,0.007500
22.662,74.1896,0.007500
22.694,74.1425,0.007500
22.724,74.0963,0.005966
22.756,74.0502,0.005966
22.787,74.0024,0.005966
22.818,73.9575,0.005966
22.849,73.9111,0.005966
22.879,73.8645,0.005966
22.911,73.8173,0.005966
22.942,73.7704,0.005966
22.974,73.7244,0.005731
23.004,73.6790,0.005731
23.034,73.6371,0.005731
23.066,73.5918,0.005731
23.097,73.5490,0.005731
23.127,73.5075,0.005731
23.158,73.4674,0.005731
23.189,73.4267,0.005731
23.220,73.3874,0.005552
23.251,73.3477,0.005552
23.281,73.3093,0.005552
23.312,73.2719,0.005552
23.344,73.2347,0.005552
23.375,73.1976,0.005552
23.406,73.1619,0.005552
23.437,73.1268,0.005552
23.468,73.0935,0.005505
23.499,73.0597,0.005505
23.531,73.0266,0.005505
23.561,72.9947,0.005505
23.593,72.9634,0.005505
23.624,72.9319,0.005505
23.655,72.9026,0.005505
23.688,72.8723,0.005505
23.718,72.8448,0.005467
23.748,72.8174,0.005467
23.779,72.7911,0.005467
23.810,72.7648,0.005467
23.840,72.7400,0.005467
23.873,72.7146,0.005467
23.903,72.6906,0.005467
23.936,72.6668,0.005467
23.966,72.6440,0.005392
23.998,72.6224,0.005392
24.028,72.6020,0.005392
24.059,72.5816,0.005392
24.090,72.5623,0.005392
24.121,72.5430,0.005392
24.152,72.5249,0.005392
24.184,72.5072,0.005392
24.215,72.4910,0.005355
24.245,72.4752,0.005355
24.275,72.4604,0.005355
24.307,72.4456,0.005355
24.337,72.4323,0.005355
24.368,72.4196,0.005355
24.399,72.4074,0.005355
24.428,72.3960,0.005355
24.460,72.3850,0.005317
24.490,72.3751,0.005317
24.522,72.3656,0.005317
24.552,72.3571,0.005317
24.583,72.3489,0.005317
24.614,72.3419,0.005317
24.645,72.3353,0.005317
24.676,72.3296,0.005317
24.707,72.3245,0.005260
24.738,72.3202,0.005260
24.769,72.3166,0.005260
24.801,72.3136,0.005260
24.830,72.3116,0.005260
24.861,72.3101,0.005260
24.893,72.3095,0.005260
24.923,72.3094,0.005260
24.955,72.3094,0.005260
24.985,72.3094,0.005260
25.017,72.3094,0.005176
25.048,72.3100,0.005176
25.079,72.3112,0.005176
25.110,72.3132,0.005176
25.140,72.3160,0.005176
25.171,72.3194,0.005176
25.202,72.3236,0.005176
25.233,72.3285,0.005157
25.266,72.3344,0.005157
25.295,72.3406,0.005157
25.326,72.3476,0.005157
25.357,72.3555,0.005157
25.388,72.3638,0.005157
25.418,72.3730,0.005157
25.449,72.3831,0.005157
25.479,72.3932,0.005044
25.511,72.4050,0.005044
25.541,72.4168,0.005044
25.572,72.4296,0.005044
25.604,72.4435,0.005044
25.634,72.4573,0.005044
25.664,72.4725,0.005044
25.696,72.4887,0.004931
25.726,72.5041,0.004931
25.757,72.5215,0.004931
25.788,72.5396,0.004931
25.821,72.5590,0.004931
25.851,72.5781,0.004931
25.887,72.6017,0.004931
25.914,72.6197,0.004931
25.948,72.6444,0.004884
25.976,72.6643,0.004884
26.009,72.6891,0.004884
26.039,72.7110,0.004884
26.069,72.7355,0.004884
26.100,72.7602,0.004884
26.130,72.7855,0.004884
26.162,72.8130,0.004884
26.192,72.8397,0.004809
26.224,72.8689,0.004809
26.254,72.8963,0.004809
26.285,72.9260,0.004809
26.315,72.9560,0.004809
26.351,72.9921,0.004809
26.376,73.0176,0.004809
26.407,73.0496,0.004809
26.438,73.0827,0.004696
26.468,73.1160,0.004696
26.501,73.1527,0.004696
26.529,73.1842,0.004696
26.559,73.2206,0.004696
26.590,73.2570,0.004696
26.621,73.2948,0.004696
26.654,73.3344,0.004696
26.685,73.3734,0.004696
26.715,73.4123,0.004517
26.746,73.4524,0.004517
26.778,73.4948,0.004517
26.815,73.5457,0.004517
26.856,73.6013,0.004517
26.888,73.6464,0.004517
26.918,73.6908,0.004517
26.949,73.7339,0.004301
26.981,73.7813,0.004301
27.012,73.8278,0.004301
27.043,73.8743,0.004301
27.074,73.9218,0.004301
27.106,73.9687,0.004301
27.137,74.0150,0.004301
27.167,74.0608,0.004301
27.199,74.1083,0.004122
27.230,74.1558,0.004122
27.261,74.2011,0.004122
27.291,74.2475,0.004122
27.322,74.2948,0.004122
27.354,74.3425,0.004122
27.384,74.3864,0.004122
27.415,74.4324,0.004122
27.445,74.4779,0.003943
27.475,74.5247,0.003943
27.506,74.5695,0.003943
27.537,74.6171,0.003943
27.568,74.6627,0.003943
27.598,74.7091,0.003943
27.630,74.7548,0.003943
27.662,74.8031,0.003943
27.692,74.8483,0.003623
27.723,74.8955,0.003623
27.753,74.9399,0.003623
27.785,74.9873,0.003623
27.816,75.0350,0.003623
27.848,75.0834,0.003623
27.880,75.1309,0.003623
27.911,75.1768,0.003623
27.941,75.2222,0.003247
27.972,75.2696,0.003247
28.003,75.3153,0.003247
28.035,75.3637,0.003247
28.065,75.4085,0.003247
28.096,75.4547,0.003247
28.127,75.5005,0.003247
28.158,75.5475,0.003247
28.189,75.5966,0.003247
28.220,75.6405,0.002710
28.251,75.6873,0.002710
28.281,75.7326,0.002710
28.312,75.7786,0.002710
28.343,75.8256,0.002710
28.374,75.8722,0.002710
28.404,75.9169,0.002710
28.436,75.9618,0.001939
28.468,76.0064,0.001939
28.499,76.0497,0.001939
28.530,76.0923,0.001939
28.561,76.1353,0.001939
28.592,76.1758,0.001939
28.623,76.2158,0.001939
28.654,76.2543,0.001939
28.686,76.2939,0.001939
28.717,76.3327,0.000518
28.748,76.3699,0.000518
28.779,76.4066,0.000518
28.809,76.4416,0.000518
28.841,76.4778,0.000518
28.871,76.5109,0.000518
28.902,76.5454,0.000518
28.932,76.5774,-0.002381
28.965,76.6108,-0.002381
28.994,76.6403,-0.002381
29.025,76.6718,-0.002381
29.056,76.7022,-0.002381
29.087,76.7312,-0.002381
29.118,76.7597,-0.002381
29.150,76.7880,-0.002381
29.181,76.8163,-0.002381
29.212,76.8417,-0.008140
29.243,76.8680,-0.008140
29.273,76.8924,-0.008140
29.305,76.9176,-0.008140
29.336,76.9409,-0.008140
29.367,76.9637,-0.008140
29.399,76.9858,-0.008140
29.427,77.0054,-0.008140
29.459,77.0265,-0.008140
29.490,77.0466,-0.017927
29.525,77.0684,-0.017927
29.552,77.0845,-0.017927
29.583,77.1019,-0.017927
29.614,77.1190,-0.017927
29.646,77.1354,-0.017927
29.677,77.1510,-0.017927
29.708,77.1659,-0.017927
29.738,77.1798,-0.030320
29.770,77.1933,-0.030320
29.799,77.2055,-0.030320
29.831,77.2176,-0.030320
29.862,77.2288,-0.030320
29.892,77.2389,-0.030320
29.922,77.2487,-0.030320
29.954,77.2575,-0.030320
29.984,77.2659,-0.042159
30.016,77.2737,-0.042159
30.047,77.2804,-0.042159
30.078,77.2867,-0.042159
30.109,77.2919,-0.042159
30.141,77.2969,-0.042159
30.172,77.3007,-0.042159
30.202,77.3038,-0.042159
30.232,77.3063,-0.050082
30.263,77.3080,-0.050082
30.294,77.3090,-0.050082
30.325,77.3094,-0.050082
30.355,77.3094,-0.050082
30.386,77.3094,-0.050082
30.417,77.3094,-0.050082
30.453,77.3094,-0.051701
30.479,77.3094,-0.051701
30.510,77.3094,-0.051701
30.541,77.3094,-0.051701
30.572,77.3094,-0.051701
30.603,77.3094,-0.051701
30.634,77.3094,-0.051701
30.665,77.3094,-0.051701
30.698,77.3094,-0.048887
30.728,77.3094,-0.048887
30.759,77.3094,-0.048887
30.790,77.3094,-0.048887
30.821,77.3094,-0.048887
30.853,77.3094,-0.048887
30.884,77.3094,-0.048887
30.915,77.3094,-0.048887
30.953,77.3094,-0.045697
30.994,77.3094,-0.045697
31.026,77.3094,-0.045697
31.057,77.3094,-0.045697
31.087,77.3094,-0.045697
31.118,77.3094,-0.045697
31.149,77.3094,-0.045697
31.180,77.3094,-0.045697
31.212,77.3094,-0.043467
31.242,77.3094,-0.043467
31.273,77.3094,-0.043467
31.304,77.3094,-0.043467
31.336,77.3094,-0.043467
31.367,77.3094,-0.043467
31.399,77.3094,-0.043467
31.430,77.3094,-0.041763
31.462,77.3094,-0.041763
31.492,77.3094,-0.041763
31.523,77.3094,-0.041763
31.554,77.3094,-0.041763
31.584,77.3094,-0.041763
31.616,77.3094,-0.041763
31.647,77.3094,-0.041763
31.678,77.3094,-0.041763
31.708,77.3094,-0.041763
31.740,77.3094,-0.040493
31.769,77.3094,-0.040493
31.800,77.3094,-0.040493
31.831,77.3094,-0.040493
31.863,77.3094,-0.040493
31.894,77.3094,-0.040493
31.926,77.3094,-0.040493
31.956,77.3094,-0.040493
31.987,77.3094,-0.039411
32.018,77.3094,-0.039411
32.050,77.3094,-0.039411
32.081,77.3094,-0.039411
32.111,77.3094,-0.039411
32.142,77.3094,-0.039411
32.173,77.3094,-0.039411
32.204,77.3094,-0.039411
32.235,77.3094,-0.038423
32.266,77.3094,-0.038423
32.297,77.3094,-0.038423
32.328,77.3094,-0.038423
32.359,77.3094,-0.038423
32.390,77.3094,-0.038423
32.421,77.3094,-0.038423
32.452,77.3094,-0.038423
32.484,77.3094,-0.037604
32.516,77.3094,-0.037604
32.547,77.3094,-0.037604
32.577,77.3094,-0.037604
32.608,77.3094,-0.037604
32.639,77.3094,-0.037604
32.669,77.3094,-0.037604
32.700,77.3094,-0.037604
32.731,77.3094,-0.036870
32.762,77.3094,-0.036870
32.793,77.3094,-0.036870
32.824,77.3094,-0.036870
32.855,77.3094,-0.036870
32.887,77.3094,-0.036870
32.918,77.3094,-0.036870
32.949,77.3094,-0.036870
32.981,77.3094,-0.036211
33.013,77.3094,-0.036211
33.044,77.3094,-0.036211
33.076,77.3094,-0.036211
33.106,77.3094,-0.036211
33.136,77.3094,-0.036211
33.167,77.3094,-0.036211
33.197,77.3094,-0.036211
33.228,77.3094,-0.035665
33.260,77.3094,-0.035665
33.291,77.3094,-0.035665
33.323,77.3094,-0.035665
33.354,77.3094,-0.035665
33.385,77.3094,-0.035665
33.415,77.3094,-0.035665
33.446,77.3094,-0.035665
33.476,77.3094,-0.035157
33.507,77.3094,-0.035157
33.538,77.3094,-0.035157
33.569,77.3094,-0.035157
33.599,77.3094,-0.035157
33.630,77.3094,-0.035157
33.661,77.3094,-0.035157
33.692,77.3094,-0.034658
33.723,77.3094,-0.034658
33.754,77.3094,-0.034658
33.785,77.3094,-0.034658
33.815,77.3094,-0.034658
33.846,77.3094,-0.034658
33.877,77.3094,-0.034658
33.910,77.3094,-0.034658
33.940,77.3094,-0.034188
33.971,77.3094,-0.034188
34.003,77.3094,-0.034188
34.034,77.3094,-0.034188
34.066,77.3094,-0.034188
34.097,77.3094,-0.034188
34.128,77.3094,-0.034188
34.159,77.3094,-0.034188
34.190,77.3094,-0.033812
34.221,77.3094,-0.033812
34.252,77.3094,-0.033812
34.283,77.3094,-0.033812
34.313,77.3094,-0.033812
34.344,77.3094,-0.033812
34.375,77.3094,-0.033812
34.406,77.3094,-0.033812
34.436,77.3094,-0.033812
34.467,77.3094,-0.033407
34.498,77.3094,-0.033407
34.529,77.3094,-0.033407
34.560,77.3094,-0.033407
34.590,77.3094,-0.033407
34.622,77.3094,-0.033407
34.653,77.3094,-0.033407
34.684,77.3094,-0.033407
34.714,77.3094,-0.032974
34.746,77.3094,-0.032974
34.777,77.3094,-0.032974
34.807,77.3094,-0.032974
34.838,77.3094,-0.032974
34.869,77.3094,-0.032974
34.900,77.3094,-0.032974
34.930,77.3090,-0.032974
34.961,77.3079,-0.032607
34.992,77.3060,-0.032607
35.022,77.3036,-0.032607
35.053,77.3002,-0.032607
35.084,77.2964,-0.032607
35.115,77.2914,-0.032607
35.146,77.2861,-0.032607
35.177,77.2799,-0.032607
35.208,77.2731,-0.031007
35.239,77.2652,-0.031007
35.270,77.2571,-0.031007
35.301,77.2477,-0.031007
35.333,77.2378,-0.031007
35.363,77.2272,-0.031007
35.395,77.2160,-0.031007
35.427,77.2033,-0.031007
35.457,77.1911,-0.023940
35.488,77.1773,-0.023940
35.520,77.1629,-0.023940
35.550,77.1485,-0.023940
35.580,77.1327,-0.023940
35.613,77.1159,-0.023940
35.643,77.0993,-0.023940
35.674,77.0813,-0.023940
35.705,77.0627,-0.010973
35.735,77.0444,-0.010973
35.767,77.0234,-0.010973
35.797,77.0032,-0.010973
35.829,76.9815,-0.010973
35.860,76.9590,-0.010973
35.890,76.9363,-0.010973
35.921,76.9128,-0.010973
35.953,76.8877,0.003237
35.984,76.8629,0.003237
36.016,76.8365,0.003237
36.046,76.8101,0.003237
36.078,76.7819,0.003237
36.110,76.7528,0.003237
36.139,76.7260,0.003237
36.170,76.6963,0.003237
36.202,76.6657,0.014473
36.233,76.6343,0.014473
36.264,76.6031,0.014473
36.294,76.5715,0.014473
36.325,76.5382,0.014473
36.356,76.5045,0.014473
36.387,76.4698,0.014473
36.418,76.4353,0.014473
36.448,76.3994,0.014473
36.479,76.3622,0.020938
36.510,76.3261,0.020938
36.541,76.2873,0.020938
36.573,76.2477,0.020938
36.603,76.2091,0.020938
36.634,76.1675,0.020938
36.666,76.1265,0.020938
36.697,76.0839,0.020938
36.728,76.0412,0.020938
36.760,75.9961,0.025756
36.792,75.9522,0.025756
36.822,75.9064,0.025756
36.853,75.8628,0.025756
36.884,75.8161,0.025756
36.915,75.7701,0.025756
36.946,75.7226,0.025756
36.977,75.6776,0.031911
37.008,75.6299,0.031911
37.039,75.5834,0.031911
37.069,75.5376,0.031911
37.100,75.4922,0.031911
37.132,75.4438,0.031911
37.163,75.3973,0.031911
37.200,75.3429,0.031911
37.225,75.3053,0.037011
37.257,75.2568,0.037011
37.287,75.2110,0.037011
37.318,75.1645,0.037011
37.349,75.1194,0.037011
37.380,75.0721,0.037011
37.410,75.0274,0.037011
37.442,74.9789,0.037011
37.472,74.9345,0.029342
37.503,74.8878,0.029342
37.533,74.8427,0.029342
37.564,74.7974,0.029342
37.596,74.7490,0.029342
37.626,74.7030,0.029342
37.657,74.6557,0.029342
37.688,74.6106,0.029342
37.719,74.5645,0.013222
37.750,74.5181,0.013222
37.780,74.4728,0.013222
37.811,74.4267,0.013222
37.841,74.3805,0.013222
37.873,74.3325,0.013222
37.904,74.2868,0.013222
37.935,74.2391,0.013222
37.966,74.1927,0.006136
37.998,74.1448,0.006136
38.029,74.0985,0.006136
38.061,74.0509,0.006136
38.092,74.0042,0.006136
38.123,73.9577,0.006136
38.154,73.9110,0.006136
38.185,73.8640,0.006136
38.217,73.8165,0.005769
38.248,73.7695,0.005769
38.280,73.7224,0.005769
38.311,73.6755,0.005769
38.341,73.6326,0.005769
38.372,73.5881,0.005769
38.403,73.5449,0.005769
38.433,73.5034,0.005769
38.465,73.4603,0.005646
38.496,73.4193,0.005646
38.526,73.3778,0.005646
38.558,73.3383,0.005646
38.588,73.2986,0.005646
38.620,73.2597,0.005646
38.651,73.2212,0.005646
38.683,73.1844,0.005646
38.714,73.1472,0.005533
38.746,73.1114,0.005533
38.776,73.0765,0.005533
38.808,73.0422,0.005533
38.839,73.0086,0.005533
38.869,72.9770,0.005533
38.901,72.9440,0.005533
38.933,72.9123,0.005533
38.963,72.8827,0.005430
38.995,72.8516,0.005430
39.026,72.8227,0.005430
39.058,72.7938,0.005430
39.089,72.7663,0.005430
39.120,72.7390,0.005430
39.150,72.7133,0.005430
39.181,72.6879,0.005383
39.212,72.6631,0.005383
39.238,72.6439,0.005383
39.275,72.6160,0.005383
39.306,72.5938,0.005383
39.337,72.5719,0.005383
39.368,72.5509,0.005383
39.399,72.5308,0.005383
39.429,72.5123,0.005383
39.460,72.4934,0.005430
39.491,72.4753,0.005430
39.520,72.4587,0.005430
39.552,72.4416,0.005430
39.582,72.4261,0.005430
39.613,72.4106,0.005430
39.645,72.3960,0.005430
39.676,72.3822,0.005430
39.708,72.3689,0.005364
39.738,72.3569,0.005364
39.769,72.3454,0.005364
39.800,72.3346,0.005364
39.835,72.3232,0.005364
39.863,72.3148,0.005364
39.894,72.3062,0.005364
39.925,72.2982,0.005364
39.956,72.2910,0.005364
39.987,72.2847,0.005223
40.020,72.2788,0.005223
40.050,72.2739,0.005223
40.080,72.2697,0.005223
40.111,72.2662,0.005223
40.143,72.2632,0.005223
40.174,72.2611,0.005223
40.205,72.2599,0.005223
40.235,72.2593,0.005166
40.266,72.2593,0.005166
40.297,72.2593,0.005166
40.327,72.2593,0.005166
40.358,72.2593,0.005166
40.389,72.2598,0.005166
40.421,72.2609,0.005166
40.450,72.2626,0.005166
40.481,72.2652,0.005195
40.512,72.2686,0.005195
40.542,72.2724,0.005195
40.573,72.2771,0.005195
40.604,72.2826,0.005195
40.636,72.2889,0.005195
40.667,72.2960,0.005195
40.697,72.3034,0.005195
40.728,72.3120,0.005091
40.759,72.3208,0.005091
40.789,72.3306,0.005091
40.821,72.3411,0.005091
40.852,72.3529,0.005091
40.884,72.3651,0.005091
40.916,72.3782,0.005091
40.947,72.3915,0.005025
40.978,72.4062,0.005025
41.011,72.4216,0.005025
41.041,72.4371,0.005025
41.071,72.4531,0.005025
41.102,72.4700,0.005025
41.133,72.4882,0.005025
41.163,72.5060,0.005025
41.195,72.5257,0.005006
41.225,72.5449,0.005006
41.257,72.5665,0.005006
41.288,72.5878,0.005006
41.318,72.6095,0.005006
41.349,72.6322,0.005006
41.379,72.6553,0.005006
41.410,72.6805,0.005006
41.441,72.7048,0.005006
41.473,72.7321,0.004809
41.504,72.7583,0.004809
41.535,72.7854,0.004809
41.566,72.8134,0.004809
41.598,72.8429,0.004809
41.628,72.8727,0.004809
41.657,72.9011,0.004809
41.691,72.9337,0.004611
41.722,72.9665,0.004611
41.753,72.9987,0.004611
41.784,73.0317,0.004611
41.815,73.0654,0.004611
41.846,73.1003,0.004611
41.878,73.1362,0.004611
41.909,73.1725,0.004611
41.940,73.2094,0.004517
41.971,73.2470,0.004517
42.002,73.2859,0.004517
42.033,73.3245,0.004517
42.065,73.3653,0.004517
42.096,73.4049,0.004517
42.128,73.4475,0.004517
42.159,73.4897,0.004517
42.189,73.5318,0.004517
42.222,73.5773,0.004376
42.251,73.6201,0.004376
42.282,73.6638,0.004376
42.314,73.7107,0.004376
42.344,73.7562,0.004376
42.375,73.8023,0.004376
42.406,73.8493,0.004376
42.438,73.8953,0.004131
42.469,73.9431,0.004131
42.500,73.9902,0.004131
42.531,74.0360,0.004131
42.562,74.0822,0.004131
42.593,74.1286,0.004131
42.624,74.1761,0.004131
42.654,74.2206,0.004131
42.685,74.2676,0.004131
42.716,74.3140,0.003896
42.748,74.3621,0.003896
42.778,74.4070,0.003896
42.810,74.4550,0.003896
42.840,74.4999,0.003896
42.871,74.5453,0.003896
42.902,74.5922,0.003896
42.932,74.6377,0.003670
42.963,74.6849,0.003670
42.994,74.7307,0.003670
43.025,74.7776,0.003670
43.056,74.8232,0.003670
43.088,74.8711,0.003670
43.118,74.9162,0.003670
43.149,74.9629,0.003670
43.180,75.0095,0.003670
43.212,75.0574,0.003341
43.243,75.1039,0.003341
43.274,75.1499,0.003341
43.304,75.1955,0.003341
43.336,75.2435,0.003341
43.366,75.2899,0.003341
43.397,75.3344,0.003341
43.428,75.3808,0.003341
43.460,75.4286,0.003341
43.491,75.4762,0.002908
43.523,75.5242,0.002908
43.553,75.5692,0.002908
43.584,75.6152,0.002908
43.614,75.6602,0.002908
43.645,75.7071,0.002908
43.676,75.7535,0.002908
43.707,75.7998,0.002908
43.738,75.8454,0.002306
43.770,75.8916,0.002306
43.800,75.9348,0.002306
43.831,75.9784,0.002306
43.862,76.0219,0.002306
43.894,76.0641,0.002306
43.925,76.1055,0.002306
43.957,76.1479,0.001195
43.988,76.1883,0.001195
44.018,76.2264,0.001195
44.050,76.2646,0.001195
44.080,76.3023,0.001195
44.111,76.3383,0.001195
44.142,76.3749,0.001195
44.172,76.4095,0.001195
44.203,76.4438,-0.000913
44.234,76.4781,-0.000913
44.265,76.5113,-0.000913
44.297,76.5453,-0.000913
44.328,76.5762,-0.000913
44.358,76.6080,-0.000913
44.389,76.6384,-0.000913
44.420,76.6674,-0.000913
44.450,76.6961,-0.000913
44.481,76.7238,-0.005345
44.513,76.7525,-0.005345
44.544,76.7788,-0.005345
44.575,76.8050,-0.005345
44.606,76.8299,-0.005345
44.636,76.8543,-0.005345
44.667,76.8783,-0.005345
44.698,76.9010,-0.005345
44.728,76.9231,-0.013476
44.758,76.9441,-0.013476
44.789,76.9649,-0.013476
44.821,76.9861,-0.013476
44.850,77.0047,-0.013476
44.882,77.0241,-0.013476
44.913,77.0421,-0.013476
44.946,77.0604,-0.025060
44.977,77.0771,-0.025060
45.008,77.0933,-0.025060
45.038,77.1079,-0.025060
45.070,77.1226,-0.025060
45.101,77.1361,-0.025060
45.132,77.1493,-0.025060
45.162,77.1614,-0.025060
45.192,77.1727,-0.025060
45.224,77.1835,-0.037557
45.254,77.1937,-0.037557
45.285,77.2031,-0.037557
45.316,77.2118,-0.037557
45.347,77.2197,-0.037557
45.378,77.2268,-0.037557
45.407,77.2331,-0.037557
45.440,77.2391,-0.047325
45.471,77.2442,-0.047325
45.503,77.2486,-0.047325
45.534,77.2522,-0.047325
45.565,77.2551,-0.047325
45.597,77.2572,-0.047325
45.629,77.2587,-0.047325
45.659,77.2593,-0.047325
45.689,77.2593,-0.047325
45.720,77.2593,-0.051522
45.751,77.2593,-0.051522
45.783,77.2593,-0.051522
45.813,77.2593,-0.051522
45.844,77.2593,-0.051522
45.875,77.2593,-0.051522
45.907,77.2593,-0.051522
45.937,77.2593,-0.051522
45.968,77.2593,-0.049941
46.000,77.2593,-0.049941
46.031,77.2593,-0.049941
46.062,77.2593,-0.049941
46.093,77.2593,-0.049941
46.124,77.2593,-0.049941
46.155,77.2593,-0.049941
46.186,77.2593,-0.046516
46.218,77.2593,-0.046516
46.249,77.2593,-0.046516
46.280,77.2593,-0.046516
46.311,77.2593,-0.046516
46.342,77.2593,-0.046516
46.373,77.2593,-0.046516
46.404,77.2593,-0.046516
46.435,77.2593,-0.046516
46.466,77.2593,-0.044031
46.498,77.2593,-0.044031
46.529,77.2593,-0.044031
46.560,77.2593,-0.044031
46.591,77.2593,-0.044031
46.622,77.2593,-0.044031
46.654,77.2593,-0.044031
46.685,77.2593,-0.042159
46.715,77.2593,-0.042159
46.746,77.2593,-0.042159
46.778,77.2593,-0.042159
46.809,77.2593,-0.042159
46.841,77.2593,-0.042159
46.872,77.2593,-0.042159
46.902,77.2593,-0.042159
46.933,77.2593,-0.042159
46.963,77.2593,-0.040672
46.994,77.2593,-0.040672
47.026,77.2593,-0.040672
47.056,77.2593,-0.040672
47.088,77.2593,-0.040672
47.119,77.2593,-0.040672
47.150,77.2593,-0.040672
47.181,77.2593,-0.040672
47.211,77.2593,-0.039486
47.242,77.2593,-0.039486
47.273,77.2593,-0.039486
47.304,77.2593,-0.039486
47.335,77.2593,-0.039486
47.366,77.2593,-0.039486
47.396,77.2593,-0.039486
47.428,77.2593,-0.039486
47.458,77.2593,-0.038517
47.490,77.2593,-0.038517
47.521,77.2593,-0.038517
47.552,77.2593,-0.038517
47.583,77.2593,-0.038517
47.615,77.2593,-0.038517
47.646,77.2593,-0.038517
47.676,77.2593,-0.038517
47.707,77.2593,-0.037670
47.738,77.2593,-0.037670
47.768,77.2593,-0.037670
47.800,77.2593,-0.037670
47.831,77.2593,-0.037670
47.862,77.2593,-0.037670
47.895,77.2593,-0.037670
47.925,77.2593,-0.037670
47.956,77.2593,-0.037670
47.986,77.2593,-0.036917
48.017,77.2593,-0.036917
48.048,77.2593,-0.036917
48.080,77.2593,-0.036917
48.110,77.2593,-0.036917
48.141,77.2593,-0.036917
48.172,77.2593,-0.036917
48.203,77.2593,-0.036917
48.234,77.2593,-0.036192
48.266,77.2593,-0.036192
48.296,77.2593,-0.036192
48.328,77.2593,-0.036192
48.359,77.2593,-0.036192
48.391,77.2593,-0.036192
48.421,77.2593,-0.036192
48.453,77.2593,-0.036192
48.483,77.2593,-0.035571
48.514,77.2593,-0.035571
48.546,77.2593,-0.035571
48.578,77.2593,-0.035571
48.609,77.2593,-0.035571
48.640,77.2593,-0.035571
48.671,77.2593,-0.035571
48.702,77.2593,-0.035571
48.731,77.2593,-0.035054
48.762,77.2593,-0.035054
48.793,77.2593,-0.035054
48.823,77.2593,-0.035054
48.854,77.2593,-0.035054
48.886,77.2593,-0.035054
48.916,77.2593,-0.035054
48.948,77.2593,-0.035054
48.978,77.2593,-0.034574
49.010,77.2593,-0.034574
49.041,77.2593,-0.034574
49.073,77.2593,-0.034574
49.105,77.2593,-0.034574
49.136,77.2593,-0.034574
49.166,77.2593,-0.034574
49.197,77.2593,-0.034574
49.228,77.2593,-0.034113
49.259,77.2593,-0.034113
49.291,77.2593,-0.034113
49.323,77.2593,-0.034113
49.353,77.2593,-0.034113
49.384,77.2593,-0.034113
49.414,77.2593,-0.034113
49.446,77.2593,-0.034113
49.477,77.2593,-0.033680
49.508,77.2593,-0.033680
49.539,77.2593,-0.033680
49.569,77.2593,-0.033680
49.600,77.2593,-0.033680
49.631,77.2593,-0.033680
49.662,77.2593,-0.033680
49.693,77.2593,-0.033680
49.724,77.2593,-0.033285
49.756,77.2593,-0.033285
49.786,77.2593,-0.033285
49.817,77.2593,-0.033285
49.848,77.2593,-0.033285
49.878,77.2593,-0.033285
49.910,77.2593,-0.033285
49.940,77.2593,-0.033285
49.971,77.2593,-0.032908
50.001,77.2593,-0.032908
50.032,77.2593,-0.032908
50.063,77.2593,-0.032908
50.095,77.2593,-0.032908
50.126,77.2593,-0.032908
50.157,77.2593,-0.032908
50.188,77.2593,-0.032908
50.219,77.2593,-0.032908
50.249,77.2593,-0.032551
50.280,77.2593,-0.032551
50.311,77.2590,-0.032551
50.343,77.2580,-0.032551
50.373,77.2564,-0.032551
50.404,77.2540,-0.032551
50.436,77.2507,-0.032551
50.468,77.2468,-0.032118
50.499,77.2420,-0.032118
50.530,77.2366,-0.032118
50.562,77.2304,-0.032118
50.593,77.2236,-0.032118
50.624,77.2160,-0.032118
50.655,77.2078,-0.032118
50.686,77.1988,-0.032118
50.717,77.1887,-0.028410
50.748,77.1783,-0.028410
50.779,77.1673,-0.028410
50.810,77.1550,-0.028410
50.841,77.1426,-0.028410
50.873,77.1289,-0.028410
50.902,77.1154,-0.028410
50.935,77.0999,-0.028410
50.966,77.0842,-0.018294
50.997,77.0679,-0.018294
51.027,77.0513,-0.018294
51.059,77.0332,-0.018294
51.089,77.0150,-0.018294
51.120,76.9957,-0.018294
51.151,76.9760,-0.018294
51.182,76.9557,-0.018294
51.213,76.9340,-0.004291
51.243,76.9120,-0.004291
51.275,76.8887,-0.004291
51.305,76.8661,-0.004291
51.341,76.8382,-0.004291
51.367,76.8160,-0.004291
51.399,76.7901,-0.004291
51.430,76.7638,-0.004291
51.460,76.7366,-0.004291
51.492,76.7084,0.008996
51.522,76.6806,0.008996
51.552,76.6523,0.008996
51.584,76.6214,0.008996
51.615,76.5910,0.008996
51.646,76.5588,0.008996
51.678,76.5253,0.008996
51.709,76.4921,0.018200
51.741,76.4577,0.018200
51.771,76.4241,0.018200
51.802,76.3889,0.018200
51.834,76.3518,0.018200
51.865,76.3153,0.018200
51.896,76.2774,0.018200
51.927,76.2391,0.018200
51.958,76.2001,0.023733
51.989,76.1620,0.023733
52.021,76.1201,0.023733
52.051,76.0797,0.023733
52.082,76.0377,0.023733
52.114,75.9942,0.023733
52.144,75.9529,0.023733
52.174,75.9094,0.023733
52.206,75.8636,0.029360
52.237,75.8183,0.029360
52.268,75.7724,0.029360
52.299,75.7262,0.029360
52.330,75.6793,0.029360
52.361,75.6328,0.029360
52.391,75.5874,0.029360
52.422,75.5397,0.029360
52.453,75.4952,0.035647
52.483,75.4479,0.035647
52.514,75.4028,0.035647
52.545,75.3568,0.035647
52.576,75.3105,0.035647
52.607,75.2633,0.035647
52.638,75.2171,0.035647
52.669,75.1702,0.035647
52.700,75.1230,0.038987
52.732,75.0767,0.038987
52.762,75.0307,0.038987
52.794,74.9840,0.038987
52.825,74.9371,0.038987
52.856,74.8896,0.038987
52.886,74.8447,0.038987
52.918,74.7970,0.038987
52.948,74.7520,0.038987
52.980,74.7042,0.023808
53.010,74.6588,0.023808
53.042,74.6109,0.023808
53.072,74.5657,0.023808
53.104,74.5177,0.023808
53.134,74.4727,0.023808
53.166,74.4255,0.023808
53.195,74.3812,0.007199
53.227,74.3336,0.007199
53.257,74.2886,0.007199
53.288,74.2420,0.007199
53.319,74.1960,0.007199
53.350,74.1483,0.007199
53.381,74.1014,0.007199
53.413,74.0554,0.007199
53.443,74.0081,0.006004
53.474,73.9625,0.006004
53.505,73.9154,0.006004
53.536,73.8701,0.006004
53.567,73.8238,0.006004
53.597,73.7784,0.006004
53.628,73.7319,0.006004
53.660,73.6841,0.006004
53.691,73.6392,0.005778
53.721,73.5940,0.005778
53.753,73.5488,0.005778
53.784,73.5044,0.005778
53.816,73.4613,0.005778
53.846,73.4190,0.005778
53.877,73.3776,0.005778
53.912,73.3298,0.005778
53.939,73.2970,0.005618
53.970,73.2582,0.005618
54.000,73.2197,0.005618
54.031,73.1814,0.005618
54.062,73.1447,0.005618
54.093,73.1081,0.005618
54.124,73.0723,0.005618
54.155,73.0369,0.005618
54.186,73.0034,0.005618
54.216,72.9701,0.005496
54.247,72.9368,0.005496
54.279,72.9043,0.005496
54.309,72.8742,0.005496
54.339,72.8436,0.005496
54.370,72.8139,0.005496
54.401,72.7845,0.005496
54.435,72.7534,0.005496
54.464,72.7272,0.005496
54.497,72.6982,0.005458
54.525,72.6745,0.005458
54.559,72.6466,0.005458
54.587,72.6243,0.005458
54.618,72.5992,0.005458
54.649,72.5765,0.005458
54.680,72.5535,0.005458
54.710,72.5324,0.005458
54.743,72.5097,0.005402
54.774,72.4892,0.005402
54.806,72.4686,0.005402
54.837,72.4495,0.005402
54.868,72.4312,0.005402
54.900,72.4132,0.005402
54.931,72.3960,0.005402
54.963,72.3800,0.005317
54.994,72.3645,0.005317
55.024,72.3502,0.005317
55.056,72.3358,0.005317
55.086,72.3225,0.005317
55.118,72.3100,0.005317
55.150,72.2981,0.005317
55.180,72.2874,0.005317
55.212,72.2769,0.005317
55.242,72.2675,0.005279
55.274,72.2584,0.005279
55.305,72.2502,0.005279
55.336,72.2429,0.005279
55.366,72.2363,0.005279
55.397,72.2305,0.005279
55.429,72.2253,0.005279
55.459,72.2208,0.005251
55.490,72.2171,0.005251
55.521,72.2141,0.005251
55.552,72.2118,0.005251
55.584,72.2103,0.005251
55.614,72.2094,0.005251
55.646,72.2093,0.005251
55.677,72.2093,0.005251
55.708,72.2093,0.005195
55.739,72.2094,0.005195
55.770,72.2102,0.005195
55.801,72.2118,0.005195
55.831,72.2139,0.005195
55.862,72.2167,0.005195
55.893,72.2205,0.005195
55.931,72.2260,0.005195
55.971,72.2330,0.005147
56.001,72.2392,0.005147
56.032,72.2461,0.005147
56.064,72.2537,0.005147
56.095,72.2625,0.005147
56.127,72.2716,0.005147
56.158,72.2819,0.005147
56.188,72.2918,0.005147
56.223,72.3048,0.005082
56.250,72.3155,0.005082
56.282,72.3287,0.005082
56.312,72.3415,0.005082
56.344,72.3563,0.005082
56.374,72.3709,0.005082
56.405,72.3864,0.005082
56.441,72.4058,0.005082
56.482,72.4286,0.005006
56.513,72.4467,0.005006
56.543,72.4650,0.005006
56.577,72.4869,0.005006
56.605,72.5051,0.005006
56.636,72.5259,0.005006
56.667,72.5479,0.005006
56.699,72.5712,0.004893
56.729,72.5944,0.004893
56.760,72.6182,0.004893
56.791,72.6431,0.004893
56.822,72.6682,0.004893
56.853,72.6944,0.004893
56.884,72.7214,0.004893
56.915,72.7483,0.004893
56.947,72.7784,0.004893
56.977,72.8063,0.004828
57.009,72.8374,0.004828
57.039,72.8669,0.004828
57.072,72.8999,0.004828
57.101,72.9309,0.004828
57.133,72.9636,0.004828
57.163,72.9973,0.004828
57.196,73.0323,0.004828
57.226,73.0677,0.004686
57.258,73.1029,0.004686
57.289,73.1402,0.004686
57.319,73.1766,0.004686
57.350,73.2129,0.004686
57.381,73.2521,0.004686
57.412,73.2918,0.004686
57.443,73.3307,0.004686
57.474,73.3720,0.004508
57.505,73.4151,0.004508
57.535,73.4545,0.004508
57.567,73.4998,0.004508
57.596,73.5403,0.004508
57.628,73.5867,0.004508
57.660,73.6315,0.004508
57.691,73.6772,0.004310
57.725,73.7297,0.004310
57.753,73.7708,0.004310
57.787,73.8223,0.004310
57.814,73.8629,0.004310
57.845,73.9105,0.004310
57.877,73.9564,0.004310
57.908,74.0042,0.004310
57.939,74.0512,0.004310
57.970,74.0978,0.004084
58.003,74.1456,0.004084
58.033,74.1912,0.004084
58.064,74.2383,0.004084
58.095,74.2852,0.004084
58.125,74.3300,0.004084
58.156,74.3757,0.004084
58.187,74.4222,0.003896
58.218,74.4690,0.003896
58.250,74.5164,0.003896
58.280,74.5619,0.003896
58.311,74.6077,0.003896
58.341,74.6534,0.003896
58.372,74.6997,0.003896
58.403,74.7461,0.003896
58.433,74.7913,0.003896
58.465,74.8385,0.003576
58.496,74.8855,0.003576
58.527,74.9322,0.003576
58.558,74.9797,0.003576
58.589,75.0248,0.003576
58.619,75.0709,0.003576
58.650,75.1176,0.003576
58.680,75.1622,0.003576
58.711,75.2071,0.003171
58.741,75.2532,0.003171
58.772,75.2996,0.003171
58.803,75.3467,0.003171
58.834,75.3929,0.003171
58.866,75.4402,0.003171
58.896,75.4860,0.003171
58.927,75.5335,0.003171
58.958,75.5783,0.002644
58.989,75.6252,0.002644
59.020,75.6708,0.002644
59.051,75.7187,0.002644
59.082,75.7648,0.002644
59.114,75.8111,0.002644
59.145,75.8552,0.002644
59.175,75.9004,0.002644
59.206,75.9420,0.001760
59.237,75.9847,0.001760
59.268,76.0260,0.001760
59.299,76.0682,0.001760
59.330,76.1085,0.001760
59.355,76.1405,0.001760
59.392,76.1875,0.001760
59.423,76.2241,0.001760
59.454,76.2623,0.001760
59.485,76.2997,0.000179
59.516,76.3353,0.000179
59.547,76.3708,0.000179
59.578,76.4053,0.000179
59.609,76.4391,0.000179
59.640,76.4724,0.000179
59.671,76.5036,0.000179
59.702,76.5365,-0.002955
59.733,76.5675,-0.002955
59.764,76.5969,-0.002955
59.795,76.6259,-0.002955
59.825,76.6548,-0.002955
59.856,76.6820,-0.002955
59.886,76.7096,-0.002955
59.917,76.7358,-0.002955
59.949,76.7618,-0.002955
59.979,76.7868,-0.009194
60.010,76.8112,-0.009194
60.041,76.8348,-0.009194
60.074,76.8588,-0.009194
60.104,76.8810,-0.009194
60.136,76.9032,-0.009194
60.167,76.9237,-0.009194
60.197,76.9433,-0.009194
60.229,76.9626,-0.019348
60.259,76.9809,-0.019348
60.291,76.9995,-0.019348
60.322,77.0162,-0.019348
60.352,77.0323,-0.019348
60.383,77.0482,-0.019348
60.415,77.0632,-0.019348
60.446,77.0773,-0.019348
60.477,77.0910,-0.031854
60.508,77.1039,-0.031854
60.539,77.1157,-0.031854
60.570,77.1272,-0.031854
60.601,77.1377,-0.031854
60.632,77.1475,-0.031854
60.662,77.1565,-0.031854
60.694,77.1653,-0.043231
60.725,77.1728,-0.043231
60.756,77.1799,-0.043231
60.787,77.1857,-0.043231
60.818,77.1913,-0.043231
60.849,77.1962,-0.043231
60.880,77.2000,-0.043231
60.911,77.2033,-0.043231
60.943,77.2060,-0.043231
60.976,77.2079,-0.050176
61.004,77.2089,-0.050176
61.036,77.2093,-0.050176
61.067,77.2093,-0.050176
61.098,77.2093,-0.050176
61.128,77.2093,-0.050176
61.160,77.2093,-0.050176
61.190,77.2093,-0.050967
61.222,77.2093,-0.050967
61.253,77.2093,-0.050967
61.285,77.2093,-0.050967
61.316,77.2093,-0.050967
61.347,77.2093,-0.050967
61.378,77.2093,-0.050967
61.410,77.2093,-0.050967
61.440,77.2093,-0.050967
61.471,77.2093,-0.047918
61.502,77.2093,-0.047918
61.533,77.2093,-0.047918
61.564,77.2093,-0.047918
61.596,77.2093,-0.047918
61.628,77.2093,-0.047918
61.658,77.2093,-0.047918
61.691,77.2093,-0.047918
61.721,77.2093,-0.044953
61.752,77.2093,-0.044953
61.782,77.2093,-0.044953
61.813,77.2093,-0.044953
61.844,77.2093,-0.044953
61.875,77.2093,-0.044953
61.906,77.2093,-0.044953
61.936,77.2093,-0.044953
61.968,77.2093,-0.042864
62.000,77.2093,-0.042864
62.030,77.2093,-0.042864
62.061,77.2093,-0.042864
62.092,77.2093,-0.042864
62.124,77.2093,-0.042864
62.155,77.2093,-0.042864
62.186,77.2093,-0.042864
62.216,77.2093,-0.041227
62.248,77.2093,-0.041227
62.279,77.2093,-0.041227
62.310,77.2093,-0.041227
62.341,77.2093,-0.041227
62.372,77.2093,-0.041227
62.402,77.2093,-0.041227
62.433,77.2093,-0.041227
62.463,77.2093,-0.039891
62.494,77.2093,-0.039891
62.525,77.2093,-0.039891
62.556,77.2093,-0.039891
62.586,77.2093,-0.039891
62.618,77.2093,-0.039891
62.649,77.2093,-0.039891
62.680,77.2093,-0.039891
62.712,77.2093,-0.038837
62.742,77.2093,-0.038837
62.773,77.2093,-0.038837
62.805,77.2093,-0.038837
62.835,77.2093,-0.038837
62.868,77.2093,-0.038837
62.898,77.2093,-0.038837
62.929,77.2093,-0.038837
62.960,77.2093,-0.037971
62.990,77.2093,-0.037971
63.021,77.2093,-0.037971
63.056,77.2093,-0.037971
63.083,77.2093,-0.037971
63.115,77.2093,-0.037971
63.145,77.2093,-0.037971
63.176,77.2093,-0.037971
63.206,77.2093,-0.037971
63.237,77.2093,-0.037171
63.267,77.2093,-0.037171
63.298,77.2093,-0.037171
63.329,77.2093,-0.037171
63.361,77.2093,-0.037171
63.391,77.2093,-0.037171
63.423,77.2093,-0.037171
63.453,77.2093,-0.036456
63.484,77.2093,-0.036456
63.514,77.2093,-0.036456
63.546,77.2093,-0.036456
63.577,77.2093,-0.036456
63.609,77.2093,-0.036456
63.640,77.2093,-0.036456
63.670,77.2093,-0.036456
63.701,77.2093,-0.036456
63.731,77.2093,-0.035863
63.763,77.2093,-0.035863
63.794,77.2093,-0.035863
63.824,77.2093,-0.035863
63.855,77.2093,-0.035863
63.885,77.2093,-0.035863
63.916,77.2093,-0.035863
63.947,77.2093,-0.035261
63.979,77.2093,-0.035261
64.010,77.2093,-0.035261
64.042,77.2093,-0.035261
64.072,77.2093,-0.035261
64.104,77.2093,-0.035261
64.135,77.2093,-0.035261
64.166,77.2093,-0.035261
64.197,77.2093,-0.035261
64.227,77.2093,-0.034762
64.258,77.2093,-0.034762
64.289,77.2093,-0.034762
64.321,77.2093,-0.034762
64.350,77.2093,-0.034762
64.381,77.2093,-0.034762
64.413,77.2093,-0.034762
64.443,77.2093,-0.034320
64.474,77.2093,-0.034320
64.505,77.2093,-0.034320
64.536,77.2093,-0.034320
64.567,77.2093,-0.034320
64.598,77.2093,-0.034320
64.628,77.2093,-0.034320
64.659,77.2093,-0.034320
64.690,77.2093,-0.033859
64.721,77.2093,-0.033859
64.752,77.2093,-0.033859
64.783,77.2093,-0.033859
64.815,77.2093,-0.033859
64.846,77.2093,-0.033859
64.877,77.2093,-0.033859
64.908,77.2093,-0.033859
64.940,77.2093,-0.033859
64.971,77.2093,-0.033435
65.003,77.2093,-0.033435
65.033,77.2093,-0.033435
65.064,77.2093,-0.033435
65.095,77.2093,-0.033435
65.126,77.2093,-0.033435
65.158,77.2093,-0.033435
65.189,77.2093,-0.033435
65.220,77.2093,-0.033435
65.251,77.2093,-0.033059
65.282,77.2093,-0.033059
65.312,77.2093,-0.033059
65.343,77.2093,-0.033059
65.374,77.2093,-0.033059
65.405,77.2093,-0.033059
65.437,77.2093,-0.033059
65.468,77.2093,-0.032673
65.499,77.2093,-0.032673
65.529,77.2093,-0.032673
65.560,77.2093,-0.032673
65.591,77.2093,-0.032673
65.623,77.2093,-0.032673
65.653,77.2093,-0.032673
65.684,77.2092,-0.032673
65.714,77.2084,-0.032334
65.745,77.2071,-0.032334
65.776,77.2048,-0.032334
65.808,77.2019,-0.032334
65.839,77.1983,-0.032334
65.870,77.1938,-0.032334
65.901,77.1886,-0.032334
65.932,77.1828,-0.032334
65.963,77.1763,-0.031130
65.994,77.1690,-0.031130
66.024,77.1609,-0.031130
66.055,77.1525,-0.031130
66.086,77.1430,-0.031130
66.118,77.1327,-0.031130
66.149,77.1216,-0.031130
66.180,77.1098,-0.031130
66.210,77.0978,-0.024571
66.242,77.0844,-0.024571
66.273,77.0709,-0.024571
66.304,77.0560,-0.024571
66.335,77.0410,-0.024571
66.366,77.0244,-0.024571
66.397,77.0079,-0.024571
66.429,76.9900,-0.024571
66.460,76.9720,-0.011904
66.491,76.9528,-0.011904
66.521,76.9340,-0.011904
66.552,76.9134,-0.011904
66.583,76.8921,-0.011904
66.615,76.8696,-0.011904
66.646,76.8470,-0.011904
66.677,76.8238,-0.011904
66.707,76.7998,0.002287
66.738,76.7756,0.002287
66.769,76.7500,0.002287
66.801,76.7230,0.002287
66.832,76.6960,0.002287
66.863,76.6681,0.002287
66.894,76.6399,0.002287
66.926,76.6096,0.002287
66.956,76.5809,0.002287
66.987,76.5501,0.013814
67.017,76.5202,0.013814
67.048,76.4881,0.013814
67.079,76.4551,0.013814
67.111,76.4213,0.013814
67.141,76.3876,0.013814
67.172,76.3524,0.013814
67.203,76.3176,0.020581
67.235,76.2796,0.020581
67.265,76.2423,0.020581
67.296,76.2057,0.020581
67.327,76.1673,0.020581
67.357,76.1286,0.020581
67.388,76.0890,0.020581
67.420,76.0473,0.020581
67.450,76.0068,0.025314
67.481,75.9641,0.025314
67.511,75.9238,0.025314
67.542,75.8788,0.025314
67.573,75.8361,0.025314
67.605,75.7895,0.025314
67.635,75.7440,0.025314
67.666,75.6978,0.025314
67.696,75.6528,0.031346
67.727,75.6049,0.031346
67.758,75.5604,0.031346
67.788,75.5155,0.031346
67.819,75.4688,0.031346
67.850,75.4203,0.031346
67.881,75.3739,0.031346
67.913,75.3277,0.031346
67.944,75.2817,0.036757
67.975,75.2351,0.036757
68.006,75.1881,0.036757
68.037,75.1425,0.036757
68.067,75.0962,0.036757
68.099,75.0484,0.036757
68.130,75.0021,0.036757
68.162,74.9538,0.036757
68.192,74.9088,0.031139
68.223,74.8628,0.031139
68.254,74.8163,0.031139
68.286,74.7678,0.031139
68.316,74.7228,0.031139
68.348,74.6744,0.031139
68.379,74.6286,0.031139
68.411,74.5799,0.031139
68.441,74.5360,0.015038
68.472,74.4885,0.015038
68.503,74.4422,0.015038
68.535,74.3946,0.015038
68.566,74.3477,0.015038
68.597,74.3011,0.015038
68.628,74.2538,0.015038
68.659,74.2077,0.015038
68.690,74.1612,0.006230
68.720,74.1168,0.006230
68.751,74.0694,0.006230
68.783,74.0230,0.006230
68.814,73.9756,0.006230
68.846,73.9286,0.006230
68.878,73.8796,0.006230
68.909,73.8338,0.006230
68.941,73.7843,0.006230
68.971,73.7411,0.005872
69.002,73.6930,0.005872
69.034,73.6457,0.005872
69.065,73.5995,0.005872
69.096,73.5537,0.005872
69.125,73.5120,0.005872
69.157,73.4669,0.005872
69.187,73.4244,0.005872
69.218,73.3816,0.005872
69.249,73.3413,0.005703
69.280,73.2993,0.005703
69.311,73.2584,0.005703
69.342,73.2197,0.005703
69.372,73.1810,0.005703
69.404,73.1431,0.005703
69.434,73.1052,0.005703
69.465,73.0695,0.005618
69.496,73.0328,0.005618
69.527,72.9980,0.005618
69.558,72.9637,0.005618
69.589,72.9301,0.005618
69.619,72.8976,0.005618
69.651,72.8641,0.005618
69.679,72.8356,0.005618
69.712,72.8031,0.005486
69.743,72.7724,0.005486
69.773,72.7433,0.005486
69.805,72.7142,0.005486
69.836,72.6858,0.005486
69.868,72.6584,0.005486
69.899,72.6312,0.005486
69.930,72.6058,0.005486
69.959,72.5816,0.005486
69.991,72.5573,0.005411
70.022,72.5330,0.005411
70.053,72.5099,0.005411
70.085,72.4876,0.005411
70.116,72.4657,0.005411
70.148,72.4443,0.005411
70.179,72.4242,0.005411
70.210,72.4053,0.005411
70.240,72.3868,0.005355
70.272,72.3687,0.005355
70.303,72.3516,0.005355
70.335,72.3348,0.005355
70.365,72.3192,0.005355
70.396,72.3045,0.005355
70.428,72.2902,0.005355
70.459,72.2769,0.005307
70.490,72.2639,0.005307
70.520,72.2521,0.005307
70.551,72.2413,0.005307
70.582,72.2305,0.005307
70.613,72.2208,0.005307
70.643,72.2118,0.005307
70.675,72.2035,0.005307
70.706,72.1954,0.005307
70.733,72.1896,0.005317
70.769,72.1824,0.005317
70.799,72.1771,0.005317
70.829,72.1726,0.005317
70.861,72.1684,0.005317
70.893,72.1650,0.005317
70.924,72.1625,0.005317
70.956,72.1607,0.005307
70.987,72.1597,0.005307
71.017,72.1593,0.005307
71.048,72.1593,0.005307
71.079,72.1593,0.005307
71.110,72.1593,0.005307
71.141,72.1599,0.005307
71.172,72.1612,0.005307
71.204,72.1632,0.005307
71.235,72.1660,0.005279
71.272,72.1704,0.005279
71.313,72.1762,0.005279
71.343,72.1813,0.005279
71.374,72.1872,0.005279
71.405,72.1942,0.005279
71.436,72.2015,0.005279
71.467,72.2099,0.005119
71.499,72.2190,0.005119
71.531,72.2288,0.005119
71.561,72.2391,0.005119
71.592,72.2500,0.005119
71.623,72.2624,0.005119
71.655,72.2752,0.005119
71.686,72.2887,0.005119
71.718,72.3031,0.005119
71.749,72.3181,0.005025
71.780,72.3334,0.005025
71.811,72.3496,0.005025
71.842,72.3662,0.005025
71.873,72.3844,0.005025
71.903,72.4020,0.005025
71.935,72.4220,0.005025
71.966,72.4415,0.005035
71.998,72.4634,0.005035
72.029,72.4840,0.005035
72.059,72.5055,0.005035
72.090,72.5288,0.005035
72.122,72.5530,0.005035
72.152,72.5770,0.005035
72.183,72.6016,0.005035
72.214,72.6268,0.004940
72.246,72.6540,0.004940
72.277,72.6817,0.004940
72.310,72.7112,0.004940
72.338,72.7373,0.004940
72.369,72.7660,0.004940
72.400,72.7972,0.004940
72.431,72.8278,0.004940
72.463,72.8604,0.004780
72.495,72.8934,0.004780
72.526,72.9263,0.004780
72.557,72.9611,0.004780
72.589,72.9956,0.004780
72.620,73.0317,0.004780
72.651,73.0674,0.004780
72.682,73.1044,0.004780
72.713,73.1423,0.004639
72.744,73.1798,0.004639
72.775,73.2188,0.004639
72.806,73.2582,0.004639
72.837,73.2980,0.004639
72.868,73.3392,0.004639
72.899,73.3822,0.004639
72.930,73.4239,0.004639
72.961,73.4678,0.004442
72.992,73.5113,0.004442
73.023,73.5558,0.004442
73.054,73.6003,0.004442
73.084,73.6459,0.004442
73.116,73.6947,0.004442
73.147,73.7400,0.004442
73.177,73.7854,0.004442
73.209,73.8325,0.004442
73.241,73.8809,0.004169
73.272,73.9280,0.004169
73.302,73.9729,0.004169
73.333,74.0192,0.004169
73.364,74.0662,0.004169
73.395,74.1133,0.004169
73.427,74.1603,0.004169
73.457,74.2058,0.003962
73.489,74.2526,0.003962
73.519,74.2985,0.003962
73.550,74.3444,0.003962
73.581,74.3915,0.003962
73.612,74.4376,0.003962
73.644,74.4854,0.003962
73.676,74.5334,0.003962
73.707,74.5806,0.003962
73.738,74.6264,0.003745
73.769,74.6736,0.003745
73.800,74.7211,0.003745
73.831,74.7664,0.003745
73.863,74.8135,0.003745
73.894,74.8617,0.003745
73.926,74.9080,0.003745
73.956,74.9548,0.003745
73.987,74.9999,0.003416
74.018,75.0465,0.003416
74.049,75.0941,0.003416
74.080,75.1394,0.003416
74.111,75.1865,0.003416
74.142,75.2340,0.003416
74.173,75.2797,0.003416
74.205,75.3275,0.002983
74.235,75.3728,0.002983
74.267,75.4206,0.002983
74.298,75.4679,0.002983
74.330,75.5154,0.002983
74.361,75.5624,0.002983
74.392,75.6090,0.002983
74.424,75.6550,0.002983
74.455,75.7027,0.002315
74.485,75.7469,0.002315
74.517,75.7933,0.002315
74.545,75.8321,0.002315
74.580,75.8826,0.002315
74.611,75.9245,0.002315
74.641,75.9660,0.002315
74.672,76.0076,0.002315
74.703,76.0473,0.001167
74.735,76.0879,0.001167
74.766,76.1271,0.001167
74.797,76.1663,0.001167
74.827,76.2032,0.001167
74.859,76.2406,0.001167
74.890,76.2768,0.001167
74.921,76.3120,0.001167
74.952,76.3470,0.001167
74.983,76.3805,-0.000988
75.014,76.4139,-0.000988
75.044,76.4454,-0.000988
75.075,76.4781,-0.000988
75.106,76.5084,-0.000988
75.138,76.5402,-0.000988
75.169,76.5695,-0.000988
75.201,76.5997,-0.005307
75.231,76.6268,-0.005307
75.263,76.6553,-0.005307
75.294,76.6826,-0.005307
75.326,76.7087,-0.005307
75.356,76.7331,-0.005307
75.387,76.7579,-0.005307
75.417,76.7813,-0.005307
75.449,76.8042,-0.005307
75.479,76.8269,-0.013372
75.511,76.8486,-0.013372
75.543,76.8702,-0.013372
75.574,76.8898,-0.013372
75.605,76.9098,-0.013372
75.636,76.9280,-0.013372
75.667,76.9465,-0.013372
75.698,76.9636,-0.025050
75.729,76.9804,-0.025050
75.760,76.9960,-0.025050
75.791,77.0111,-0.025050
75.822,77.0253,-0.025050
75.853,77.0389,-0.025050
75.883,77.0517,-0.025050
75.914,77.0637,-0.025050
75.945,77.0750,-0.037500
75.978,77.0863,-0.037500
76.009,77.0961,-0.037500
76.040,77.1055,-0.037500
76.071,77.1139,-0.037500
76.101,77.1215,-0.037500
76.132,77.1286,-0.037500
76.163,77.1349,-0.037500
76.194,77.1405,-0.047184
76.224,77.1453,-0.047184
76.256,77.1495,-0.047184
76.286,77.1529,-0.047184
76.318,77.1556,-0.047184
76.350,77.1576,-0.047184
76.380,77.1588,-0.047184
76.412,77.1593,-0.047184
76.442,77.1593,-0.051193
76.473,77.1593,-0.051193
76.504,77.1593,-0.051193
76.534,77.1593,-0.051193
76.566,77.1593,-0.051193
76.596,77.1593,-0.051193
76.627,77.1593,-0.051193
76.660,77.1593,-0.051193
76.689,77.1593,-0.051193
76.721,77.1593,-0.049621
76.751,77.1593,-0.049621
76.783,77.1593,-0.049621
76.813,77.1593,-0.049621
76.844,77.1593,-0.049621
76.875,77.1593,-0.049621
76.909,77.1593,-0.049621
76.935,77.1593,-0.046327
76.966,77.1593,-0.046327
76.999,77.1593,-0.046327
77.029,77.1593,-0.046327
77.060,77.1593,-0.046327
77.092,77.1593,-0.046327
77.122,77.1593,-0.046327
77.153,77.1593,-0.046327
77.184,77.1593,-0.046327
77.216,77.1593,-0.043824
77.246,77.1593,-0.043824
77.277,77.1593,-0.043824
77.308,77.1593,-0.043824
77.339,77.1593,-0.043824
77.371,77.1593,-0.043824
77.402,77.1593,-0.043824
77.433,77.1593,-0.043824
77.464,77.1593,-0.042027
77.494,77.1593,-0.042027
77.524,77.1593,-0.042027
77.554,77.1593,-0.042027
77.585,77.1593,-0.042027
77.616,77.1593,-0.042027
77.648,77.1593,-0.042027
77.678,77.1593,-0.042027
77.709,77.1593,-0.042027
77.739,77.1593,-0.040568
77.770,77.1593,-0.040568
77.801,77.1593,-0.040568
77.838,77.1593,-0.040568
77.881,77.1593,-0.040568
77.910,77.1593,-0.040568
77.943,77.1593,-0.040568
77.971,77.1593,-0.040568
78.003,77.1593,-0.039317
78.033,77.1593,-0.039317
78.063,77.1593,-0.039317
78.094,77.1593,-0.039317
78.131,77.1593,-0.039317
78.171,77.1593,-0.039317
78.202,77.1593,-0.039317
78.232,77.1593,-0.038376
78.263,77.1593,-0.038376
78.295,77.1593,-0.038376
78.326,77.1593,-0.038376
78.358,77.1593,-0.038376
78.389,77.1593,-0.038376
78.420,77.1593,-0.038376
78.450,77.1593,-0.038376
78.481,77.1593,-0.037576
78.512,77.1593,-0.037576
78.543,77.1593,-0.037576
78.575,77.1593,-0.037576
78.606,77.1593,-0.037576
78.637,77.1593,-0.037576
78.668,77.1593,-0.037576
78.699,77.1593,-0.037576
78.730,77.1593,-0.036870
78.762,77.1593,-0.036870
78.794,77.1593,-0.036870
78.824,77.1593,-0.036870
78.855,77.1593,-0.036870
78.887,77.1593,-0.036870
78.918,77.1593,-0.036870
78.950,77.1593,-0.036192
78.980,77.1593,-0.036192
79.013,77.1593,-0.036192
79.042,77.1593,-0.036192
79.072,77.1593,-0.036192
79.103,77.1593,-0.036192
79.134,77.1593,-0.036192
79.165,77.1593,-0.036192
79.196,77.1593,-0.036192
79.228,77.1593,-0.035562
79.260,77.1593,-0.035562
79.289,77.1593,-0.035562
79.320,77.1593,-0.035562
79.351,77.1593,-0.035562
79.382,77.1593,-0.035562
79.413,77.1593,-0.035562
79.445,77.1593,-0.035562
79.475,77.1593,-0.035016
79.505,77.1593,-0.035016
79.537,77.1593,-0.035016
79.568,77.1593,-0.035016
79.599,77.1593,-0.035016
79.630,77.1593,-0.035016
79.661,77.1593,-0.035016
79.692,77.1593,-0.034508
79.723,77.1593,-0.034508
79.755,77.1593,-0.034508
79.787,77.1593,-0.034508
79.818,77.1593,-0.034508
79.849,77.1593,-0.034508
79.880,77.1593,-0.034508
79.911,77.1593,-0.034508
79.942,77.1593,-0.034508
79.971,77.1593,-0.034122
80.005,77.1593,-0.034122
80.037,77.1593,-0.034122
80.068,77.1593,-0.034122
80.099,77.1593,-0.034122
80.130,77.1593,-0.034122
80.161,77.1593,-0.034122
80.192,77.1593,-0.033642
80.224,77.1593,-0.033642
80.255,77.1593,-0.033642
80.287,77.1593,-0.033642
80.317,77.1593,-0.033642
80.347,77.1593,-0.033642
80.378,77.1593,-0.033642
80.409,77.1593,-0.033642
80.440,77.1593,-0.033143
80.471,77.1593,-0.033143
80.502,77.1593,-0.033143
80.534,77.1593,-0.033143
80.565,77.1593,-0.033143
80.596,77.1593,-0.033143
80.627,77.1593,-0.033143
80.658,77.1593,-0.033143
80.689,77.1593,-0.032739
80.720,77.1592,-0.032739
80.750,77.1583,-0.032739
80.781,77.1567,-0.032739
80.812,77.1544,-0.032739
80.844,77.1513,-0.032739
80.875,77.1474,-0.032739
80.907,77.1427,-0.032739
80.937,77.1377,-0.032739
80.968,77.1317,-0.032202
81.000,77.1248,-0.032202
81.031,77.1173,-0.032202
81.062,77.1091,-0.032202
81.093,77.0999,-0.032202
81.125,77.0901,-0.032202
81.157,77.0795,-0.032202
81.188,77.0684,-0.026688
81.219,77.0565,-0.026688
81.249,77.0442,-0.026688
81.281,77.0308,-0.026688
81.311,77.0167,-0.026688
81.342,77.0022,-0.026688
81.372,76.9869,-0.026688
81.403,76.9711,-0.026688
81.434,76.9543,-0.026688
81.464,76.9371,-0.014153
81.495,76.9188,-0.014153
81.526,76.8996,-0.014153
81.557,76.8796,-0.014153
81.587,76.8599,-0.014153
81.619,76.8382,-0.014153
81.650,76.8157,-0.014153
81.682,76.7927,-0.014153
81.714,76.7685,0.000442
81.744,76.7446,0.000442
81.775,76.7200,0.000442
81.806,76.6950,0.000442
81.837,76.6684,0.000442
81.867,76.6414,0.000442
81.899,76.6137,0.000442
81.928,76.5862,0.000442
81.960,76.5563,0.012648
81.993,76.5241,0.012648
82.021,76.4965,0.012648
82.052,76.4654,0.012648
82.083,76.4330,0.012648
82.114,76.3992,0.012648
82.146,76.3656,0.012648
82.176,76.3326,0.012648
82.206,76.2982,0.012648
82.238,76.2624,0.020091
82.269,76.2247,0.020091
82.300,76.1881,0.020091
82.331,76.1501,0.020091
82.362,76.1100,0.020091
82.394,76.0705,0.020091
82.423,76.0327,0.020091
82.454,75.9924,0.020091
82.486,75.9501,0.025257
82.517,75.9073,0.025257
82.547,75.8648,0.025257
82.580,75.8194,0.025257
82.610,75.7762,0.025257
82.641,75.7296,0.025257
82.673,75.6838,0.025257
82.704,75.6364,0.025257
82.734,75.5919,0.031591
82.765,75.5448,0.031591
82.796,75.4991,0.031591
82.827,75.4516,0.031591
82.858,75.4055,0.031591
82.887,75.3616,0.031591
82.918,75.3142,0.031591
82.949,75.2692,0.031591
82.980,75.2220,0.037293
83.013,75.1726,0.037293
83.043,75.1279,0.037293
83.073,75.0834,0.037293
83.103,75.0378,0.037293
83.133,74.9919,0.037293
83.164,74.9464,0.037293
83.195,74.8985,0.037293
83.226,74.8532,0.036842
83.259,74.8024,0.036842
83.287,74.7619,0.036842
83.318,74.7141,0.036842
83.349,74.6686,0.036842
83.380,74.6217,0.036842
83.411,74.5759,0.036842
83.443,74.5287,0.036842
83.473,74.4826,0.020599
83.504,74.4356,0.020599
83.535,74.3896,0.020599
83.566,74.3435,0.020599
83.597,74.2976,0.020599
83.628,74.2507,0.020599
83.659,74.2037,0.020599
83.690,74.1571,0.020599
83.721,74.1113,0.006456
83.752,74.0653,0.006456
83.783,74.0176,0.006456
83.814,73.9715,0.006456
83.845,73.9244,0.006456
83.876,73.8783,0.006456
83.908,73.8310,0.006456
83.939,73.7838,0.005957
83.970,73.7375,0.005957
84.002,73.6895,0.005957
84.032,73.6441,0.005957
84.063,73.5972,0.005957
84.095,73.5509,0.005957
84.127,73.5040,0.005957
84.157,73.4590,0.005957
84.188,73.4163,0.005957
84.217,73.3752,0.005740
84.250,73.3308,0.005740
84.281,73.2887,0.005740
84.312,73.2475,0.005740
84.343,73.2077,0.005740
84.373,73.1689,0.005740
84.404,73.1297,0.005740
84.435,73.0927,0.005740
84.466,73.0548,0.005543
84.497,73.0176,0.005543
84.528,72.9822,0.005543
84.559,72.9470,0.005543
84.590,72.9121,0.005543
84.621,72.8779,0.005543
84.652,72.8448,0.005543
84.684,72.8117,0.005439
84.715,72.7799,0.005439
84.747,72.7482,0.005439
84.775,72.7206,0.005439
84.809,72.6890,0.005439
84.840,72.6602,0.005439
84.871,72.6326,0.005439
84.901,72.6058,0.005439
84.935,72.5764,0.005439
84.962,72.5541,0.005420
84.992,72.5299,0.005420
85.023,72.5056,0.005420
85.056,72.4803,0.005420
85.084,72.4597,0.005420
85.115,72.4377,0.005420
85.148,72.4141,0.005420
85.176,72.3958,0.005420
85.207,72.3752,0.005430
85.239,72.3560,0.005430
85.273,72.3351,0.005430
85.298,72.3212,0.005430
85.332,72.3021,0.005430
85.363,72.2858,0.005430
85.395,72.2701,0.005430
85.425,72.2549,0.005430
85.456,72.2410,0.005411
85.487,72.2275,0.005411
85.519,72.2146,0.005411
85.550,72.2026,0.005411
85.586,72.1895,0.005411
85.627,72.1759,0.005411
85.658,72.1665,0.005411
85.689,72.1576,0.005411
85.720,72.1495,0.005411
85.754,72.1417,0.005298
85.781,72.1360,0.005298
85.812,72.1300,0.005298
85.843,72.1250,0.005298
85.873,72.1206,0.005298
85.904,72.1169,0.005298
85.936,72.1139,0.005298
85.967,72.1117,0.005232
85.997,72.1102,0.005232
86.029,72.1095,0.005232
86.060,72.1093,0.005232
86.092,72.1093,0.005232
86.123,72.1093,0.005232
86.154,72.1093,0.005232
86.185,72.1093,0.005251
86.217,72.1093,0.005251
86.247,72.1093,0.005251
86.278,72.1100,0.005251
86.309,72.1112,0.005251
86.340,72.1132,0.005251
86.370,72.1158,0.005251
86.401,72.1193,0.005251
86.432,72.1233,0.005251
86.462,72.1282,0.005270
86.494,72.1339,0.005270
86.524,72.1402,0.005270
86.556,72.1474,0.005270
86.587,72.1553,0.005270
86.618,72.1637,0.005270
86.649,72.1731,0.005270
86.681,72.1833,0.005270
86.711,72.1938,0.005138
86.741,72.2048,0.005138
86.776,72.2184,0.005138
86.802,72.2295,0.005138
86.834,72.2432,0.005138
86.865,72.2574,0.005138
86.897,72.2732,0.005138
86.927,72.2887,0.005138
86.958,72.3053,0.005053
86.989,72.3223,0.005053
87.020,72.3401,0.005053
87.052,72.3592,0.005053
87.082,72.3786,0.005053
87.114,72.3992,0.005053
87.144,72.4198,0.005053
87.176,72.4412,0.005053
87.207,72.4640,0.004978
87.239,72.4872,0.004978
87.270,72.5117,0.004978
87.300,72.5359,0.004978
87.331,72.5605,0.004978
87.361,72.5861,0.004978
87.392,72.6125,0.004978
87.422,72.6393,0.004978
87.453,72.6677,0.004893
87.484,72.6958,0.004893
87.515,72.7255,0.004893
87.546,72.7557,0.004893
87.578,72.7875,0.004893
87.609,72.8191,0.004893
87.640,72.8522,0.004893
87.671,72.8860,0.004893
87.702,72.9197,0.004762
87.733,72.9542,0.004762
87.764,72.9905,0.004762
87.795,73.0266,0.004762
87.826,73.0626,0.004762
87.857,73.1009,0.004762
87.891,73.1420,0.004762
87.919,73.1774,0.004762
87.950,73.2177,0.004762
87.981,73.2580,0.004545
88.012,73.2998,0.004545
88.043,73.3414,0.004545
88.075,73.3848,0.004545
88.105,73.4275,0.004545
88.136,73.4719,0.004545
88.167,73.5166,0.004545
88.198,73.5625,0.004545
88.229,73.6084,0.004329
88.263,73.6591,0.004329
88.291,73.7028,0.004329
88.325,73.7529,0.004329
88.354,73.7963,0.004329
88.384,73.8405,0.004329
88.415,73.8866,0.004329
88.450,73.9399,0.004329
88.476,73.9800,0.004329
88.507,74.0252,0.004112
88.538,74.0720,0.004112
88.569,74.1186,0.004112
88.599,74.1639,0.004112
88.631,74.2113,0.004112
88.661,74.2574,0.004112
88.693,74.3058,0.004112
88.725,74.3521,0.003915
88.756,74.3991,0.003915
88.786,74.4435,0.003915
88.817,74.4898,0.003915
88.848,74.5365,0.003915
88.879,74.5829,0.003915
88.908,74.6268,0.003915
88.940,74.6746,0.003915
88.971,74.7206,0.003623
89.001,74.7667,0.003623
89.031,74.8114,0.003623
89.063,74.8596,0.003623
89.093,74.9046,0.003623
89.125,74.9524,0.003623
89.156,74.9991,0.003623
89.187,75.0452,0.003623
89.218,75.0910,0.003200
89.249,75.1382,0.003200
89.280,75.1847,0.003200
89.311,75.2311,0.003200
89.342,75.2778,0.003200
89.373,75.3240,0.003200
89.404,75.3716,0.003200
89.434,75.4172,0.003200
89.465,75.4618,0.002691
89.497,75.5092,0.002691
89.527,75.5556,0.002691
89.559,75.6028,0.002691
89.589,75.6480,0.002691
89.621,75.6952,0.002691
89.651,75.7391,0.002691
89.683,75.7849,0.002691
89.713,75.8272,0.001891
89.744,75.8706,0.001891
89.775,75.9124,0.001891
89.807,75.9548,0.001891
89.837,75.9941,0.001891
89.870,76.0367,0.001891
89.900,76.0750,0.001891
89.932,76.1137,0.001891
89.962,76.1501,0.000367
89.998,76.1945,0.000367
90.025,76.2242,0.000367
90.056,76.2606,0.000367
90.087,76.2943,0.000367
90.118,76.3287,0.000367
90.149,76.3615,0.000367
90.179,76.3941,0.000367
90.210,76.4255,-0.002673
90.241,76.4570,-0.002673
90.272,76.4876,-0.002673
90.303,76.5173,-0.002673
90.334,76.5461,-0.002673
90.367,76.5758,-0.002673
90.396,76.6020,-0.002673
90.427,76.6284,-0.002673
90.457,76.6542,-0.008667
90.487,76.6792,-0.008667
90.518,76.7028,-0.008667
90.549,76.7272,-0.008667
90.581,76.7510,-0.008667
90.613,76.7745,-0.008667
90.643,76.7959,-0.008667
90.674,76.8163,-0.008667
90.705,76.8367,-0.008667
90.736,76.8567,-0.018529
90.767,76.8751,-0.018529
90.799,76.8939,-0.018529
90.830,76.9109,-0.018529
90.861,76.9280,-0.018529
90.892,76.9436,-0.018529
90.927,76.9609,-0.018529
90.954,76.9733,-0.031017
90.985,76.9873,-0.031017
91.017,77.0003,-0.031017
91.048,77.0126,-0.031017
91.079,77.0240,-0.031017
91.111,77.0352,-0.031017
91.142,77.0451,-0.031017
91.172,77.0541,-0.031017
91.203,77.0628,-0.042686
91.235,77.0709,-0.042686
91.266,77.0778,-0.042686
91.297,77.0844,-0.042686
91.329,77.0902,-0.042686
91.360,77.0951,-0.042686
91.391,77.0992,-0.042686
91.423,77.1029,-0.042686
91.453,77.1055,-0.050054
91.484,77.1075,-0.050054
91.514,77.1087,-0.050054
91.545,77.1093,-0.050054
91.576,77.1093,-0.050054
91.607,77.1093,-0.050054
91.638,77.1093,-0.050054
91.669,77.1093,-0.050054
91.700,77.1093,-0.051334
91.729,77.1093,-0.051334
91.761,77.1093,-0.051334
91.792,77.1093,-0.051334
91.823,77.1093,-0.051334
91.854,77.1093,-0.051334
91.886,77.1093,-0.051334
91.918,77.1093,-0.051334
91.948,77.1093,-0.048558
91.979,77.1093,-0.048558
92.009,77.1093,-0.048558
92.040,77.1093,-0.048558
92.071,77.1093,-0.048558
92.102,77.1093,-0.048558
92.133,77.1093,-0.048558
92.164,77.1093,-0.048558
92.195,77.1093,-0.045509
92.228,77.1093,-0.045509
92.257,77.1093,-0.045509
92.290,77.1093,-0.045509
92.321,77.1093,-0.045509
92.351,77.1093,-0.045509
92.382,77.1093,-0.045509
92.413,77.1093,-0.045509
92.444,77.1093,-0.043354
92.475,77.1093,-0.043354
92.510,77.1093,-0.043354
92.537,77.1093,-0.043354
92.570,77.1093,-0.043354
92.599,77.1093,-0.043354
