Elapsed Time (s),Position (mm),Force (N)
-0.018,56.2001,-0.039879
0.006,56.2001,-0.039879
0.036,56.2001,-0.039879
0.067,56.2001,-0.037462
0.098,56.2001,-0.035045
0.130,56.2001,-0.032628
0.160,56.2001,-0.029003
0.191,56.2001,-0.029003
0.223,56.2001,-0.029003
0.255,56.2001,-0.031420
0.286,56.2001,-0.030211
0.316,56.2001,-0.026586
0.347,56.2001,-0.030211
0.377,56.2001,-0.033837
0.398,56.2001,-0.032628
0.424,56.2001,-0.032628
0.455,56.2001,-0.026586
0.486,56.2001,-0.030211
0.519,56.2001,-0.026586
0.548,56.2001,-0.026586
0.579,56.2001,-0.026586
0.611,56.2001,-0.027794
0.642,56.2001,-0.031420
0.673,56.2001,-0.021752
0.704,56.2001,-0.021752
0.735,56.2001,-0.029003
0.767,56.2001,-0.029003
0.798,56.2001,-0.022961
0.829,56.2001,-0.024169
0.860,56.2001,-0.027794
0.891,56.2001,-0.024169
0.912,56.2001,-0.024169
0.937,56.2001,-0.022961
0.958,56.2001,-0.026586
0.983,56.2001,-0.026586
1.015,56.2001,-0.026586
1.036,56.2001,-0.025377
1.062,56.2001,-0.025377
1.092,56.2001,-0.025377
1.123,56.2001,-0.021752
1.154,56.2001,-0.021752
1.185,56.2001,-0.021752
1.216,56.2001,-0.022961
1.247,56.2001,-0.027794
1.278,56.2001,-0.027794
1.309,56.2001,-0.027794
1.341,56.2001,-0.021752
1.372,56.2001,-0.021752
1.403,56.2001,-0.025377
1.433,56.2001,-0.020544
1.465,56.2001,-0.019335
1.496,56.2001,-0.021752
1.527,56.2001,-0.022961
1.547,56.2001,-0.024169
1.573,56.2001,-0.022961
1.595,56.2001,-0.022961
1.619,56.2001,-0.020544
1.649,56.2001,-0.024169
1.680,56.2001,-0.025377
1.711,56.2001,-0.024169
1.742,56.2001,-0.022961
1.774,56.2001,-0.020544
1.805,56.2001,-0.020544
1.837,56.2001,-0.018127
1.868,56.2001,-0.022961
1.901,56.2001,-0.024169
1.931,56.2001,-0.019335
1.963,56.2001,-0.019335
1.993,56.2001,-0.020544
2.024,56.2001,-0.020544
2.055,56.2001,-0.019335
2.086,56.2001,-0.020544
2.106,56.2001,-0.020544
2.133,56.2001,-0.024169
2.154,56.2001,-0.019335
2.180,56.2001,-0.019335
2.211,56.2001,-0.020544
2.242,56.2001,-0.022961
2.273,56.2001,-0.022961
2.304,56.2001,-0.021752
2.334,56.2001,-0.020544
2.366,56.2001,-0.024169
2.398,56.2001,-0.025377
2.430,56.2001,-0.022961
2.460,56.2001,-0.020544
2.491,56.2001,-0.020544
2.522,56.2001,-0.018127
2.553,56.2001,-0.015710
2.586,56.2001,-0.021752
2.616,56.2001,-0.020544
2.646,56.2001,-0.019335
2.677,56.2001,-0.016918
2.697,56.2001,-0.026586
2.723,56.2001,-0.026586
2.754,56.2001,-0.024169
2.785,56.2001,-0.016918
2.816,56.2001,-0.020544
2.847,56.2001,-0.020544
2.878,56.2001,-0.019335
2.909,56.2001,-0.022961
2.940,56.2001,-0.022961
2.972,56.2001,-0.020544
3.003,56.2001,-0.020544
3.034,56.2001,-0.013293
3.065,56.2001,-0.013293
3.096,56.2001,-0.025377
3.127,56.2001,-0.021752
3.158,56.2001,-0.020544
3.188,56.2001,-0.019335
3.209,56.2001,-0.020544
3.234,56.2001,-0.018127
3.256,56.2001,-0.016918
3.283,56.2001,-0.016918
3.312,56.2001,-0.022961
3.343,56.2001,-0.021752
3.374,56.2001,-0.022961
3.405,56.2001,-0.022961
3.436,56.2001,-0.021752
3.467,56.2001,-0.013293
3.498,56.2001,-0.016918
3.529,56.2001,-0.018127
3.560,56.2001,-0.020544
3.591,56.2001,-0.020544
3.623,56.2001,-0.021752
3.654,56.2001,-0.019335
3.685,56.2001,-0.020544
3.716,56.2001,-0.018127
3.739,56.2001,-0.021752
3.763,56.2001,-0.021752
3.793,56.2001,-0.022961
3.825,56.2001,-0.015710
3.857,56.2001,-0.016918
3.887,56.2001,-0.019335
3.919,56.2001,-0.019335
3.950,56.2001,-0.016918
3.982,56.2001,-0.020544
4.013,56.2001,-0.021752
4.047,56.2001,-0.022961
4.074,56.2001,-0.020544
4.106,56.2001,-0.020544
4.137,56.2001,-0.016918
4.170,56.2001,-0.019335
4.199,56.2001,-0.016918
4.231,56.2001,-0.018127
4.261,56.2001,-0.018127
4.293,56.2001,-0.013293
4.324,56.2001,-0.014501
4.345,56.2001,-0.015710
4.370,56.2001,-0.014501
4.401,56.2001,-0.016918
4.432,56.2001,-0.019335
4.467,56.2001,-0.022961
4.488,56.2001,-0.022961
4.510,56.2001,-0.018127
4.540,56.2001,-0.016918
4.572,56.2001,-0.015710
4.604,56.2001,-0.015710
4.636,56.2001,-0.015710
4.666,56.2001,-0.018127
4.697,56.2001,-0.024169
4.728,56.2001,-0.024169
4.759,56.2001,-0.015710
4.791,56.2001,-0.022961
4.822,56.2001,-0.022961
4.853,56.2001,-0.016918
4.884,56.2001,-0.016918
4.916,56.2001,-0.020544
4.937,56.2001,-0.020544
4.962,56.2001,-0.020544
4.993,56.2001,-0.020544
5.025,56.2001,-0.021752
5.056,56.2001,-0.021752
5.087,56.2001,-0.016918
5.117,56.2001,-0.022961
5.148,56.2001,-0.018127
5.179,56.2001,-0.016918
5.210,56.2001,-0.014501
5.242,56.2001,-0.021752
5.273,56.2001,-0.024169
5.304,56.2001,-0.021752
5.334,56.2001,-0.018127
5.355,56.2001,-0.022961
5.381,56.2001,-0.020544
5.412,56.2001,-0.019335
5.443,56.2001,-0.018127
5.464,56.2001,-0.018127
5.489,56.2001,-0.018127
5.520,56.2001,-0.018127
5.552,56.2001,-0.018127
5.582,56.2001,-0.016918
5.614,56.2001,-0.015710
5.645,56.2001,-0.015710
5.677,56.2001,-0.014501
5.707,56.2001,-0.024169
5.739,56.2001,-0.022961
5.769,56.2001,-0.016918
5.801,56.2001,-0.013293
5.832,56.2001,-0.018127
5.863,56.2001,-0.016918
5.894,56.2001,-0.022961
5.926,56.2001,-0.024169
5.956,56.2001,-0.021752
5.987,56.2001,-0.020544
6.018,56.2001,-0.018127
6.040,56.2001,-0.019335
6.064,56.2001,-0.018127
6.096,56.2001,-0.014501
6.127,56.2001,-0.020544
6.160,56.2001,-0.021752
6.189,56.2001,-0.019335
6.221,56.2001,-0.015710
6.251,56.2001,-0.015710
6.282,56.2001,-0.019335
6.313,56.2001,-0.019335
6.345,56.2001,-0.018127
6.375,56.2001,-0.019335
6.406,56.2001,-0.016918
6.438,56.2001,-0.020544
6.469,56.2001,-0.019335
6.500,56.2001,-0.019335
6.532,56.2001,-0.020544
6.562,56.2001,-0.019335
6.584,56.2001,-0.018127
6.609,56.2001,-0.015710
6.641,56.2001,-0.018127
6.672,56.2001,-0.018127
6.704,56.2001,-0.015710
6.734,56.2001,-0.014501
6.764,56.2001,-0.016918
6.796,56.2001,-0.018127
6.827,56.2001,-0.019335
6.858,56.2001,-0.021752
6.891,56.2001,-0.020544
6.921,56.2001,-0.018127
6.952,56.2001,-0.021752
6.984,56.2001,-0.021752
7.005,56.2001,-0.018127
7.029,56.2001,-0.020544
7.062,56.2001,-0.020544
7.095,56.2001,-0.020544
7.127,56.2001,-0.016918
7.156,56.2001,-0.020544
7.187,56.2001,-0.022961
7.217,56.2001,-0.020544
7.237,56.2001,-0.019335
7.264,56.2001,-0.020544
7.285,56.2001,-0.016918
7.311,56.2001,-0.013293
7.342,56.2001,-0.014501
7.372,56.2001,-0.019335
7.404,56.2001,-0.018127
7.434,56.2001,-0.019335
7.466,56.2001,-0.019335
7.498,56.2001,-0.018127
7.528,56.2001,-0.019335
7.560,56.2001,-0.019335
7.591,56.2001,-0.016918
7.622,56.2001,-0.016918
7.653,56.2001,-0.014501
7.685,56.2001,-0.016918
7.716,56.2001,-0.018127
7.748,56.2001,-0.015710
7.779,56.2001,-0.019335
7.810,56.2001,-0.016918
7.841,56.2001,-0.016918
7.872,56.2001,-0.016918
7.893,56.2001,-0.016918
7.918,56.2001,-0.014501
7.949,56.2001,-0.015710
7.979,56.2001,-0.016918
8.011,56.2001,-0.019335
8.041,56.2001,-0.020544
8.072,56.2001,-0.012084
8.104,56.2001,-0.012084
8.134,56.2001,-0.018127
8.165,56.2001,-0.014501
8.196,56.2001,-0.018127
8.227,56.2001,-0.021752
8.257,56.2001,-0.019335
8.288,56.2001,-0.019335
8.309,56.2001,-0.015710
8.334,56.2001,-0.015710
8.366,56.2001,-0.019335
8.396,56.2001,-0.018127
8.426,56.2001,-0.012084
8.458,56.2001,-0.013293
8.490,56.2001,-0.020544
8.521,56.2001,-0.019335
8.553,56.2001,-0.018127
8.583,56.2001,-0.018127
8.604,56.2001,-0.018127
8.631,56.2001,-0.015710
8.661,56.2001,-0.015710
8.691,56.2001,-0.019335
8.722,56.2001,-0.020544
8.753,56.2001,-0.020544
8.785,56.2001,-0.016918
8.816,56.2001,-0.015710
8.848,56.2001,-0.016918
8.879,56.2001,-0.018127
8.911,56.2001,-0.018127
8.941,56.2001,-0.018127
8.972,56.2001,-0.018127
9.003,56.2001,-0.019335
9.035,56.2001,-0.018127
9.065,56.2001,-0.019335
9.095,56.2001,-0.015710
9.116,56.2001,-0.014501
9.142,56.2001,-0.014501
9.173,56.2001,-0.019335
9.203,56.2001,-0.019335
9.234,56.2001,-0.015710
9.265,56.2001,-0.014501
9.297,56.2001,-0.018127
9.327,56.2001,-0.014501
9.360,56.2001,-0.012084
9.390,56.2001,-0.016918
9.421,56.2001,-0.016918
9.452,56.2001,-0.016918
9.483,56.2001,-0.015710
9.514,56.2001,-0.026586
9.545,56.2001,-0.020544
9.576,56.2001,-0.013293
9.598,56.2001,-0.014501
9.624,56.2001,-0.016918
9.644,56.2001,-0.018127
9.669,56.2001,-0.016918
9.700,56.2001,-0.019335
9.723,56.2001,-0.020544
9.747,56.2001,-0.019335
9.777,56.2001,-0.016918
9.808,56.2001,-0.018127
9.839,56.2001,-0.021752
9.870,56.2001,-0.018127
9.901,56.2001,-0.016918
9.932,56.2001,-0.018127
9.964,56.2001,-0.018127
9.994,56.2001,-0.015710
10.025,56.2001,-0.015710
10.048,56.2001,-0.015710
10.070,56.2001,-0.015710
10.101,56.2001,-0.015710
10.133,56.2001,-0.019335
10.153,56.2001,-0.019335
10.179,56.2001,-0.018127
10.211,56.2001,-0.015710
10.242,56.2001,-0.015710
10.262,56.2001,-0.018127
10.289,56.2001,-0.020544
10.310,56.2001,-0.024169
10.335,56.2001,-0.024169
10.366,56.2001,-0.015710
10.398,56.2001,-0.019335
10.428,56.2001,-0.021752
10.460,56.2001,-0.019335
10.492,56.2001,-0.015710
10.522,56.2001,-0.016918
10.553,56.2001,-0.018127
10.584,56.2001,-0.018127
10.614,56.2001,-0.016918
10.645,56.2001,-0.018127
10.677,56.2001,-0.018127
10.707,56.2001,-0.015710
10.738,56.2001,-0.019335
10.758,56.2001,-0.020544
10.784,56.2001,-0.022961
10.805,56.2001,-0.019335
10.831,56.2001,-0.014501
10.852,56.2001,-0.014501
10.878,56.2001,-0.018127
10.909,56.2001,-0.018127
10.941,56.2001,-0.014501
10.972,56.2001,-0.013293
11.007,56.2001,-0.019335
11.028,56.2001,-0.019335
11.049,56.2001,-0.016918
11.081,56.2001,-0.018127
11.113,56.2001,-0.016918
11.145,56.2001,-0.016918
11.176,56.1574,-0.018127
11.207,55.9380,0.014501
11.237,55.7101,0.018127
11.267,55.5072,0.027794
11.299,55.2800,0.068882
11.330,55.0592,0.108760
11.361,54.8342,0.128095
11.392,54.6091,0.174016
11.413,54.4684,0.174016
11.438,54.2826,0.201811
11.469,54.0633,0.252566
11.500,53.8439,0.270692
11.530,53.6275,0.271901
11.562,53.3980,0.247732
11.593,53.1759,0.049546
11.625,52.9516,0.010876
11.655,52.7350,0.004834
11.686,52.5143,0.004834
11.717,52.2864,0.004834
11.748,52.0714,0.002417
11.779,51.8434,0.004834
11.810,51.6255,0.000000
11.842,51.3968,0.002417
11.872,51.1804,0.001208
11.905,50.9517,0.003625
11.935,50.7252,0.000000
11.960,50.5559,0.001208
11.996,50.2966,0.002417
12.027,50.1501,0.006042
12.057,50.1501,-0.019335
12.088,50.1501,-0.004834
12.120,50.1501,0.004834
12.152,50.1501,0.002417
12.183,50.1501,0.000000
12.215,50.1501,0.001208
12.246,50.3185,-0.003625
12.278,50.5479,-0.042296
12.309,50.7766,-0.004834
12.340,50.9901,0.003625
12.371,51.2167,-0.001208
12.402,51.4381,-0.002417
12.434,51.6639,0.001208
12.464,51.8861,0.000000
12.495,52.1005,-0.001208
12.516,52.2512,-0.002417
12.542,52.4442,-0.002417
12.563,52.5899,-0.001208
12.589,52.7671,0.001208
12.620,52.9936,-0.001208
12.650,53.2058,0.002417
12.681,53.4302,0.000000
12.712,53.6509,-0.002417
12.743,53.8717,-0.007251
12.774,54.0910,-0.006042
12.805,54.3174,-0.002417
12.835,54.5296,-0.007251
12.867,54.7547,-0.007251
12.900,54.9926,-0.006042
12.929,55.2027,-0.014501
12.962,55.4343,-0.014501
12.991,55.6436,-0.022961
13.021,55.8629,-0.022961
13.053,56.0858,-0.042296
13.073,56.1501,-0.042296
13.099,56.1501,-0.037462
13.121,56.1501,-0.042296
13.145,56.1501,-0.048338
13.176,56.1501,-0.045921
13.208,56.1501,-0.038670
13.238,56.1501,-0.038670
13.270,56.1501,-0.035045
13.301,56.1501,-0.038670
13.333,56.1501,-0.036253
13.365,56.1501,-0.039879
13.396,56.1501,-0.039879
13.426,56.1501,-0.036253
13.460,56.1501,-0.035045
13.487,56.1501,-0.032628
13.518,56.1501,-0.030211
13.549,56.1501,-0.026586
13.570,56.1501,-0.026586
13.596,56.1501,-0.027794
13.617,56.1501,-0.027794
13.646,56.1501,-0.030211
13.667,56.1501,-0.030211
13.690,56.1501,-0.030211
13.720,56.1501,-0.029003
13.751,56.1501,-0.026586
13.783,56.1501,-0.026586
13.813,56.1501,-0.027794
13.845,56.1501,-0.026586
13.876,56.1501,-0.025377
13.907,56.1501,-0.029003
13.938,56.1501,-0.024169
13.971,56.1501,-0.026586
14.001,56.1501,-0.026586
14.032,56.1501,-0.026586
14.064,56.1501,-0.027794
14.095,56.1501,-0.026586
14.126,56.1501,-0.027794
14.156,56.1501,-0.021752
14.177,56.1501,-0.022961
14.202,56.1501,-0.022961
14.233,56.1501,-0.027794
14.264,56.1501,-0.026586
14.295,56.1501,-0.026586
14.326,56.1501,-0.025377
14.358,56.1501,-0.022961
14.389,56.1501,-0.027794
14.419,56.1501,-0.024169
14.450,56.1501,-0.020544
14.480,56.1501,-0.022961
14.511,56.1501,-0.020544
14.543,56.1501,-0.019335
14.573,56.1501,-0.021752
14.605,56.1501,-0.025377
14.637,56.1501,-0.022961
14.668,56.1501,-0.022961
14.689,56.1501,-0.022961
14.714,56.1501,-0.025377
14.746,56.1501,-0.021752
14.775,56.1501,-0.020544
14.806,56.1501,-0.024169
14.837,56.1501,-0.025377
14.868,56.1501,-0.024169
14.899,56.1501,-0.024169
14.931,56.1501,-0.021752
14.962,56.1501,-0.021752
14.994,56.1501,-0.027794
15.026,56.1501,-0.024169
15.056,56.1501,-0.020544
15.088,56.1501,-0.019335
15.120,56.1501,-0.019335
15.149,56.1501,-0.025377
15.172,56.1501,-0.025377
15.196,56.1501,-0.020544
15.228,56.1501,-0.019335
15.258,56.1501,-0.019335
15.288,56.1501,-0.021752
15.319,56.1501,-0.025377
15.350,56.1501,-0.022961
15.382,56.1501,-0.020544
15.412,56.1501,-0.019335
15.443,56.1501,-0.022961
15.474,56.1501,-0.019335
15.505,56.1501,-0.021752
15.536,56.1501,-0.024169
15.566,56.1501,-0.019335
15.597,56.1501,-0.016918
15.628,56.1501,-0.022961
15.648,56.1501,-0.021752
15.674,56.1501,-0.022961
15.704,56.1501,-0.020544
15.735,56.1501,-0.018127
15.755,56.1501,-0.018127
15.782,56.1501,-0.021752
15.803,56.1501,-0.024169
15.828,56.1501,-0.024169
15.860,56.1501,-0.020544
15.890,56.1501,-0.022961
15.921,56.1501,-0.021752
15.951,56.1501,-0.016918
15.982,56.1501,-0.014501
16.013,56.1501,-0.025377
16.044,56.1501,-0.025377
16.074,56.1501,-0.015710
16.106,56.1501,-0.020544
16.137,56.1501,-0.024169
16.168,56.1501,-0.021752
16.200,56.1501,-0.022961
16.230,56.1501,-0.020544
16.260,56.1501,-0.020544
16.292,56.1501,-0.020544
16.323,56.1501,-0.020544
16.354,56.1501,-0.019335
16.386,56.1501,-0.018127
16.407,56.1501,-0.018127
16.430,56.1501,-0.016918
16.460,56.1501,-0.019335
16.491,56.1501,-0.024169
16.523,56.1501,-0.020544
16.554,56.1501,-0.018127
16.585,56.1501,-0.020544
16.616,56.1501,-0.021752
16.647,56.1501,-0.018127
16.677,56.1501,-0.016918
16.709,56.1501,-0.022961
16.740,56.1501,-0.015710
16.771,56.1501,-0.014501
16.803,56.1501,-0.016918
16.834,56.1501,-0.020544
16.866,56.1501,-0.019335
16.898,56.1501,-0.020544
16.927,56.1501,-0.020544
16.958,56.1501,-0.015710
16.979,56.1501,-0.020544
17.004,56.1501,-0.020544
17.035,56.1501,-0.016918
17.066,56.1501,-0.021752
17.097,56.1501,-0.018127
17.128,56.1501,-0.016918
17.159,56.1501,-0.021752
17.191,56.1501,-0.020544
17.223,56.1501,-0.022961
17.253,56.1501,-0.021752
17.286,56.1501,-0.020544
17.316,56.1501,-0.019335
17.348,56.1501,-0.018127
17.379,56.1501,-0.018127
17.411,56.1501,-0.020544
17.441,56.1501,-0.015710
17.473,56.1501,-0.019335
17.503,56.1501,-0.019335
17.535,56.1501,-0.019335
17.567,56.1501,-0.015710
17.587,56.1501,-0.014501
17.614,56.1501,-0.019335
17.634,56.1501,-0.018127
17.660,56.1501,-0.018127
17.690,56.1501,-0.021752
17.721,56.1501,-0.014501
17.752,56.1501,-0.024169
17.783,56.1501,-0.024169
17.814,56.1501,-0.015710
17.846,56.1501,-0.016918
17.877,56.1501,-0.020544
17.909,56.1501,-0.020544
17.942,56.1501,-0.018127
17.970,56.1501,-0.020544
18.003,56.1501,-0.020544
18.035,56.1501,-0.014501
18.064,56.1501,-0.019335
18.095,56.1501,-0.021752
18.126,56.1501,-0.018127
18.147,56.1501,-0.018127
18.172,56.1501,-0.016918
18.204,56.1501,-0.019335
18.235,56.1501,-0.018127
18.267,56.1501,-0.018127
18.298,56.1501,-0.018127
18.329,56.1501,-0.021752
18.360,56.1501,-0.016918
18.381,56.1501,-0.014501
18.408,56.1501,-0.015710
18.438,56.1501,-0.018127
18.469,56.1501,-0.018127
18.500,56.1501,-0.022961
18.532,56.1501,-0.020544
18.563,56.1501,-0.019335
18.594,56.1501,-0.019335
18.624,56.1501,-0.019335
18.655,56.1501,-0.022961
18.687,56.1501,-0.018127
18.718,56.1501,-0.015710
18.749,56.1501,-0.022961
18.781,56.1501,-0.019335
18.811,56.1501,-0.019335
18.842,56.1501,-0.016918
18.873,56.1501,-0.021752
18.905,56.1501,-0.022961
18.925,56.1501,-0.016918
18.952,56.1501,-0.016918
18.973,56.1501,-0.016918
18.999,56.1501,-0.016918
19.023,56.1501,-0.016918
19.046,56.1501,-0.018127
19.078,56.1501,-0.016918
19.108,56.1501,-0.018127
19.139,56.1501,-0.018127
19.170,56.1501,-0.018127
19.200,56.1501,-0.014501
19.232,56.1501,-0.016918
19.264,56.1501,-0.016918
19.294,56.1501,-0.020544
19.315,56.1501,-0.020544
19.340,56.1501,-0.022961
19.371,56.1501,-0.019335
19.402,56.1501,-0.020544
19.433,56.1501,-0.016918
19.465,56.1501,-0.018127
19.485,56.1501,-0.018127
19.510,56.1501,-0.015710
19.541,56.1501,-0.015710
19.573,56.1501,-0.018127
19.604,56.1501,-0.018127
19.636,56.1501,-0.019335
19.667,56.1501,-0.016918
19.697,56.1501,-0.018127
19.729,56.1501,-0.016918
19.760,56.1501,-0.020544
19.791,56.1501,-0.014501
19.822,56.1501,-0.014501
19.852,56.1501,-0.019335
19.884,56.1501,-0.019335
19.914,56.1501,-0.018127
19.944,56.1501,-0.019335
19.966,56.1501,-0.019335
19.991,56.1501,-0.018127
20.021,56.1501,-0.020544
20.053,56.1501,-0.019335
20.084,56.1501,-0.016918
20.115,56.1501,-0.019335
20.146,56.1501,-0.019335
20.176,56.1501,-0.018127
20.207,56.1501,-0.014501
20.237,56.1501,-0.018127
20.267,56.1501,-0.019335
20.298,56.1501,-0.019335
20.329,56.1501,-0.016918
20.361,56.1501,-0.014501
20.382,56.1501,-0.014501
20.408,56.1501,-0.016918
20.428,56.1501,-0.015710
20.453,56.1501,-0.016918
20.484,56.1501,-0.016918
20.514,56.1501,-0.019335
20.545,56.1501,-0.018127
20.566,56.1501,-0.021752
20.591,56.1501,-0.021752
20.622,56.1501,-0.020544
20.653,56.1501,-0.018127
20.684,56.1501,-0.014501
20.715,56.1501,-0.018127
20.745,56.1501,-0.018127
20.776,56.1501,-0.015710
20.806,56.1501,-0.015710
20.836,56.1501,-0.024169
20.867,56.1501,-0.021752
20.898,56.1501,-0.016918
20.918,56.1501,-0.015710
20.945,56.1501,-0.016918
20.976,56.1501,-0.016918
21.006,56.1501,-0.022961
21.038,56.1501,-0.019335
21.068,56.1501,-0.016918
21.099,56.1501,-0.019335
21.132,56.1501,-0.015710
21.161,56.1501,-0.016918
21.192,56.1501,-0.020544
21.223,56.1501,-0.020544
21.253,56.1501,-0.014501
21.284,56.1501,-0.019335
21.304,56.1501,-0.019335
21.331,56.1501,-0.020544
21.362,56.1501,-0.015710
21.394,56.1501,-0.018127
21.414,56.1501,-0.016918
21.440,56.1501,-0.016918
21.464,56.1501,-0.016918
21.486,56.1501,-0.015710
21.517,56.1501,-0.016918
21.548,56.1501,-0.018127
21.579,56.1501,-0.016918
21.611,56.1501,-0.020544
21.632,56.1501,-0.020544
21.657,56.1501,-0.019335
21.688,56.1501,-0.019335
21.720,56.1501,-0.016918
21.751,56.1501,-0.014501
21.781,56.1501,-0.019335
21.813,56.1501,-0.013293
21.845,56.1501,-0.014501
21.875,56.1501,-0.018127
21.908,56.1501,-0.015710
21.938,56.1501,-0.012084
21.968,56.1501,-0.015710
21.991,56.1501,-0.018127
22.015,56.1501,-0.015710
22.047,56.1501,-0.015710
22.077,56.1501,-0.015710
22.108,56.1501,-0.019335
22.139,56.1501,-0.014501
22.160,56.1501,-0.018127
22.189,56.1501,-0.018127
22.219,56.1501,-0.019335
22.248,56.1501,-0.014501
22.270,56.1501,-0.013293
22.295,56.1501,-0.014501
22.316,56.1501,-0.021752
22.340,56.1501,-0.021752
22.372,56.1501,-0.016918
22.404,56.1501,-0.014501
22.435,56.1501,-0.013293
22.465,56.1501,-0.016918
22.497,56.1501,-0.014501
22.528,56.1501,-0.016918
22.560,56.1501,-0.015710
22.591,56.1501,-0.019335
22.624,56.1501,-0.018127
22.653,56.1501,-0.021752
22.684,56.1501,-0.021752
22.715,56.1501,-0.018127
22.745,56.1501,-0.015710
22.776,56.1501,-0.019335
22.810,56.1501,-0.016918
22.839,56.1501,-0.016918
22.859,56.1501,-0.016918
22.886,56.1501,-0.016918
22.908,56.1501,-0.015710
22.933,56.1501,-0.020544
22.963,56.1501,-0.019335
22.995,56.1501,-0.020544
23.028,56.1501,-0.015710
23.058,56.1501,-0.015710
23.088,56.1501,-0.019335
23.118,56.1501,-0.019335
23.148,56.1501,-0.020544
23.178,56.1501,-0.018127
23.210,56.1501,-0.018127
23.240,56.1501,-0.016918
23.273,56.1501,-0.016918
23.303,56.1501,-0.015710
23.334,56.1501,-0.015710
23.358,56.1501,-0.016918
23.380,56.1501,-0.016918
23.401,56.1501,-0.016918
23.426,56.1501,-0.016918
23.456,56.1501,-0.015710
23.487,56.1501,-0.018127
23.518,56.1501,-0.015710
23.549,56.1501,-0.018127
23.581,56.1501,-0.015710
23.611,56.1501,-0.018127
23.642,56.1501,-0.016918
23.673,56.1501,-0.020544
23.705,56.1501,-0.014501
23.737,56.1501,-0.018127
23.767,56.1501,-0.016918
23.799,56.1501,-0.016918
23.831,56.1501,-0.021752
23.863,56.1501,-0.016918
23.895,56.1501,-0.014501
23.925,56.1501,-0.013293
23.956,56.1501,-0.016918
23.987,56.1501,-0.018127
24.007,56.1501,-0.015710
24.034,56.1501,-0.014501
24.064,56.1501,-0.016918
24.095,56.1501,-0.016918
24.129,56.1501,-0.019335
24.156,56.1501,-0.018127
24.188,56.1501,-0.016918
24.219,56.1501,-0.015710
24.250,56.1501,-0.015710
24.280,56.1501,-0.014501
24.312,56.1501,-0.022961
24.343,56.1501,-0.016918
24.376,56.1501,-0.015710
24.406,56.1501,-0.016918
24.438,55.9764,0.009668
24.470,55.7442,0.012084
24.501,55.5128,0.025377
24.532,55.2951,0.062839
24.563,55.0667,0.084591
24.585,54.9098,0.107552
24.609,54.7384,0.126887
24.640,54.5069,0.151056
24.671,54.2885,0.205436
24.701,54.0637,0.228397
24.733,53.8432,0.286402
24.764,53.6102,0.328698
24.795,53.3911,0.331115
24.827,53.1583,0.154681
24.859,52.9305,0.033837
24.889,52.7158,0.003625
24.919,52.4952,0.004834
24.951,52.2674,0.003625
24.980,52.0454,0.002417
25.012,51.8270,0.002417
25.043,51.6022,0.002417
25.064,51.4510,0.006042
25.089,51.2688,0.004834
25.120,51.0395,0.002417
25.151,50.8212,0.001208
25.182,50.5919,0.001208
25.213,50.3721,0.001208
25.244,50.1407,0.002417
25.276,50.1000,0.001208
25.308,50.1000,-0.019335
25.338,50.1000,0.000000
25.370,50.1000,-0.001208
25.401,50.1000,0.002417
25.433,50.1000,-0.001208
25.465,50.1000,0.000000
25.494,50.1000,0.001208
25.525,50.1000,0.002417
25.557,50.1000,-0.004834
25.587,50.2015,0.001208
25.618,50.4235,-0.033837
25.639,50.5782,-0.004834
25.665,50.7627,-0.003625
25.696,50.9875,-0.003625
25.727,51.2118,0.002417
25.758,51.4374,0.002417
25.789,51.6564,0.000000
25.821,51.8907,-0.001208
25.852,52.1149,0.000000
25.883,52.3354,0.001208
25.914,52.5589,0.003625
25.944,52.7816,0.003625
25.975,53.0087,-0.006042
26.006,53.2285,-0.003625
26.037,53.4620,0.001208
26.069,53.6863,-0.002417
26.099,53.9024,0.001208
26.130,54.1303,0.000000
26.150,54.2785,0.000000
26.177,54.4629,0.000000
26.208,54.6900,-0.006042
26.239,54.9207,-0.010876
26.271,55.1427,-0.009668
26.302,55.3732,-0.010876
26.332,55.5866,-0.013293
26.363,55.8151,-0.026586
26.394,56.0321,-0.041087
26.425,56.1000,-0.039879
26.456,56.1000,-0.010876
26.488,56.1000,-0.049546
26.518,56.1000,-0.042296
26.549,56.1000,-0.041087
26.580,56.1000,-0.037462
26.611,56.1000,-0.035045
26.642,56.1000,-0.035045
26.663,56.1000,-0.036253
26.688,56.1000,-0.038670
26.719,56.1000,-0.033837
26.750,56.1000,-0.033837
26.782,56.1000,-0.031420
26.814,56.1000,-0.031420
26.844,56.1000,-0.033837
26.877,56.1000,-0.027794
26.907,56.1000,-0.035045
26.938,56.1000,-0.035045
26.968,56.1000,-0.027794
27.000,56.1000,-0.025377
27.030,56.1000,-0.026586
27.061,56.1000,-0.030211
27.092,56.1000,-0.030211
27.124,56.1000,-0.031420
27.156,56.1000,-0.025377
27.178,56.1000,-0.025377
27.202,56.1000,-0.030211
27.234,56.1000,-0.024169
27.254,56.1000,-0.025377
27.280,56.1000,-0.025377
27.312,56.1000,-0.025377
27.343,56.1000,-0.030211
27.373,56.1000,-0.025377
27.406,56.1000,-0.026586
27.437,56.1000,-0.027794
27.467,56.1000,-0.024169
27.499,56.1000,-0.024169
27.531,56.1000,-0.025377
27.556,56.1000,-0.025377
27.592,56.1000,-0.025377
27.622,56.1000,-0.024169
27.653,56.1000,-0.025377
27.685,56.1000,-0.024169
27.716,56.1000,-0.022961
27.746,56.1000,-0.026586
27.778,56.1000,-0.027794
27.809,56.1000,-0.022961
27.840,56.1000,-0.024169
27.862,56.1000,-0.025377
27.887,56.1000,-0.024169
27.907,56.1000,-0.022961
27.933,56.1000,-0.025377
27.965,56.1000,-0.022961
27.995,56.1000,-0.020544
28.025,56.1000,-0.021752
28.057,56.1000,-0.021752
28.088,56.1000,-0.025377
28.119,56.1000,-0.021752
28.150,56.1000,-0.020544
28.181,56.1000,-0.018127
28.212,56.1000,-0.026586
28.243,56.1000,-0.025377
28.274,56.1000,-0.022961
28.304,56.1000,-0.020544
28.335,56.1000,-0.021752
28.355,56.1000,-0.018127
28.381,56.1000,-0.022961
28.402,56.1000,-0.022961
28.428,56.1000,-0.020544
28.459,56.1000,-0.021752
28.490,56.1000,-0.022961
28.521,56.1000,-0.020544
28.552,56.1000,-0.016918
28.583,56.1000,-0.021752
28.615,56.1000,-0.019335
28.636,56.1000,-0.020544
28.662,56.1000,-0.022961
28.683,56.1000,-0.022961
28.707,56.1000,-0.019335
28.738,56.1000,-0.021752
28.769,56.1000,-0.019335
28.800,56.1000,-0.020544
28.831,56.1000,-0.024169
28.862,56.1000,-0.018127
28.894,56.1000,-0.021752
28.925,56.1000,-0.022961
28.956,56.1000,-0.022961
28.987,56.1000,-0.021752
29.018,56.1000,-0.022961
29.050,56.1000,-0.018127
29.081,56.1000,-0.019335
29.112,56.1000,-0.021752
29.143,56.1000,-0.022961
29.164,56.1000,-0.021752
29.193,56.1000,-0.021752
29.220,56.1000,-0.022961
29.240,56.1000,-0.022961
29.267,56.1000,-0.020544
29.297,56.1000,-0.022961
29.328,56.1000,-0.019335
29.360,56.1000,-0.020544
29.392,56.1000,-0.016918
29.423,56.1000,-0.022961
29.454,56.1000,-0.018127
29.484,56.1000,-0.022961
29.517,56.1000,-0.024169
29.547,56.1000,-0.018127
29.579,56.1000,-0.020544
29.609,56.1000,-0.020544
29.640,56.1000,-0.021752
29.671,56.1000,-0.019335
29.702,56.1000,-0.018127
29.734,56.1000,-0.021752
29.764,56.1000,-0.021752
29.785,56.1000,-0.020544
29.809,56.1000,-0.022961
29.841,56.1000,-0.022961
29.873,56.1000,-0.024169
29.903,56.1000,-0.020544
29.934,56.1000,-0.015710
29.965,56.1000,-0.027794
29.996,56.1000,-0.020544
30.028,56.1000,-0.019335
30.059,56.1000,-0.019335
30.089,56.1000,-0.021752
30.120,56.1000,-0.015710
30.152,56.1000,-0.021752
30.184,56.1000,-0.021752
30.212,56.1000,-0.022961
30.243,56.1000,-0.024169
30.265,56.1000,-0.019335
30.290,56.1000,-0.019335
30.321,56.1000,-0.021752
30.352,56.1000,-0.016918
30.384,56.1000,-0.018127
30.415,56.1000,-0.016918
30.446,56.1000,-0.020544
30.477,56.1000,-0.020544
30.508,56.1000,-0.013293
30.539,56.1000,-0.015710
30.570,56.1000,-0.024169
30.601,56.1000,-0.019335
30.631,56.1000,-0.020544
30.663,56.1000,-0.019335
30.693,56.1000,-0.019335
30.724,56.1000,-0.015710
30.755,56.1000,-0.020544
30.775,56.1000,-0.021752
30.801,56.1000,-0.021752
30.833,56.1000,-0.019335
30.864,56.1000,-0.010876
30.894,56.1000,-0.021752
30.928,56.1000,-0.020544
30.956,56.1000,-0.019335
30.987,56.1000,-0.021752
31.019,56.1000,-0.020544
31.052,56.1000,-0.021752
31.084,56.1000,-0.020544
31.113,56.1000,-0.020544
31.142,56.1000,-0.019335
31.174,56.1000,-0.019335
31.206,56.1000,-0.018127
31.239,56.1000,-0.016918
31.268,56.1000,-0.019335
31.300,56.1000,-0.019335
31.330,56.1000,-0.020544
31.351,56.1000,-0.020544
31.376,56.1000,-0.020544
31.407,56.1000,-0.020544
31.438,56.1000,-0.018127
31.469,56.1000,-0.020544
31.500,56.1000,-0.019335
31.530,56.1000,-0.016918
31.561,56.1000,-0.019335
31.592,56.1000,-0.019335
31.624,56.1000,-0.019335
31.654,56.1000,-0.014501
31.684,56.1000,-0.018127
31.715,56.1000,-0.020544
31.736,56.1000,-0.016918
31.761,56.1000,-0.016918
31.792,56.1000,-0.018127
31.824,56.1000,-0.015710
31.856,56.1000,-0.019335
31.886,56.1000,-0.016918
31.907,56.1000,-0.014501
31.933,56.1000,-0.018127
31.966,56.1000,-0.018127
31.988,56.1000,-0.019335
32.010,56.1000,-0.018127
32.042,56.1000,-0.020544
32.073,56.1000,-0.018127
32.104,56.1000,-0.014501
32.136,56.1000,-0.018127
32.168,56.1000,-0.021752
32.197,56.1000,-0.019335
32.228,56.1000,-0.020544
32.260,56.1000,-0.020544
32.290,56.1000,-0.018127
32.320,56.1000,-0.018127
32.343,56.1000,-0.018127
32.367,56.1000,-0.022961
32.387,56.1000,-0.021752
32.414,56.1000,-0.019335
32.435,56.1000,-0.015710
32.460,56.1000,-0.015710
32.491,56.1000,-0.015710
32.522,56.1000,-0.018127
32.553,56.1000,-0.019335
32.585,56.1000,-0.015710
32.616,56.1000,-0.016918
32.648,56.1000,-0.015710
32.678,56.1000,-0.016918
32.710,56.1000,-0.016918
32.742,56.1000,-0.018127
32.774,56.1000,-0.019335
32.805,56.1000,-0.018127
32.834,56.1000,-0.019335
32.866,56.1000,-0.016918
32.897,56.1000,-0.016918
32.927,56.1000,-0.014501
32.958,56.1000,-0.015710
32.978,56.1000,-0.015710
33.005,56.1000,-0.015710
33.035,56.1000,-0.016918
33.066,56.1000,-0.016918
33.097,56.1000,-0.016918
33.120,56.1000,-0.016918
33.143,56.1000,-0.016918
33.174,56.1000,-0.016918
33.204,56.1000,-0.019335
33.237,56.1000,-0.018127
33.268,56.1000,-0.019335
33.298,56.1000,-0.016918
33.329,56.1000,-0.018127
33.361,56.1000,-0.016918
33.391,56.1000,-0.020544
33.411,56.1000,-0.020544
33.437,56.1000,-0.019335
33.468,56.1000,-0.014501
33.499,56.1000,-0.013293
33.529,56.1000,-0.018127
33.563,56.1000,-0.016918
33.592,56.1000,-0.019335
33.623,56.1000,-0.015710
33.655,56.1000,-0.016918
33.686,56.1000,-0.018127
33.717,56.1000,-0.015710
33.748,56.1000,-0.016918
33.779,56.1000,-0.019335
33.810,56.1000,-0.014501
33.841,56.1000,-0.020544
33.873,56.1000,-0.018127
33.904,56.1000,-0.018127
33.934,56.1000,-0.016918
33.966,56.1000,-0.019335
33.988,56.1000,-0.021752
34.012,56.1000,-0.018127
34.042,56.1000,-0.016918
34.073,56.1000,-0.018127
34.106,56.1000,-0.020544
34.136,56.1000,-0.021752
34.167,56.1000,-0.015710
34.198,56.1000,-0.016918
34.229,56.1000,-0.018127
34.260,56.1000,-0.019335
34.291,56.1000,-0.015710
34.321,56.1000,-0.015710
34.352,56.1000,-0.018127
34.384,56.1000,-0.016918
34.415,56.1000,-0.021752
34.436,56.1000,-0.021752
34.462,56.1000,-0.021752
34.482,56.1000,-0.013293
34.508,56.1000,-0.014501
34.538,56.1000,-0.013293
34.569,56.1000,-0.022961
34.600,56.1000,-0.019335
34.631,56.1000,-0.013293
34.663,56.1000,-0.018127
34.694,56.1000,-0.015710
34.725,56.1000,-0.018127
34.756,56.1000,-0.019335
34.787,56.1000,-0.019335
34.818,56.1000,-0.020544
34.849,56.1000,-0.020544
34.880,56.1000,-0.015710
34.911,56.1000,-0.018127
34.943,56.1000,-0.014501
34.974,56.1000,-0.016918
35.005,56.1000,-0.019335
35.029,56.1000,-0.019335
35.051,56.1000,-0.024169
35.082,56.1000,-0.020544
35.114,56.1000,-0.019335
35.135,56.1000,-0.021752
35.161,56.1000,-0.021752
35.191,56.1000,-0.019335
35.221,56.1000,-0.020544
35.254,56.1000,-0.019335
35.283,56.1000,-0.019335
35.315,56.1000,-0.014501
35.347,56.1000,-0.016918
35.379,56.1000,-0.016918
35.410,56.1000,-0.016918
35.441,56.1000,-0.015710
35.472,56.1000,-0.016918
35.504,56.1000,-0.015710
35.536,56.1000,-0.015710
35.566,56.1000,-0.015710
35.598,56.1000,-0.015710
35.620,56.1000,-0.019335
35.644,56.1000,-0.015710
35.675,56.1000,-0.013293
35.695,56.1000,-0.013293
35.720,56.1000,-0.015710
35.750,56.1000,-0.016918
35.781,56.1000,-0.018127
35.812,56.1000,-0.018127
35.843,56.1000,-0.018127
35.873,56.1000,-0.014501
35.904,56.1000,-0.014501
35.936,56.1000,-0.015710
35.967,56.1000,-0.016918
35.997,56.1000,-0.016918
36.029,56.1000,-0.016918
36.060,56.1000,-0.015710
36.090,56.1000,-0.019335
36.122,56.1000,-0.019335
36.144,56.1000,-0.016918
36.167,56.1000,-0.018127
36.199,56.1000,-0.020544
36.230,56.1000,-0.016918
36.262,56.1000,-0.014501
36.292,56.1000,-0.016918
36.322,56.1000,-0.022961
36.353,56.1000,-0.019335
36.384,56.1000,-0.019335
36.416,56.1000,-0.016918
36.447,56.1000,-0.015710
36.479,56.1000,-0.016918
36.509,56.1000,-0.015710
36.541,56.1000,-0.015710
36.571,56.1000,-0.015710
36.602,56.1000,-0.015710
36.632,56.1000,-0.018127
36.665,56.1000,-0.014501
36.686,56.1000,-0.014501
36.710,56.1000,-0.014501
36.742,56.1000,-0.014501
36.763,56.1000,-0.016918
36.789,56.1000,-0.013293
36.821,56.1000,-0.015710
36.852,56.1000,-0.016918
36.883,56.1000,-0.020544
36.914,56.1000,-0.019335
36.945,56.1000,-0.016918
36.976,56.1000,-0.018127
37.007,56.1000,-0.015710
37.039,56.1000,-0.014501
37.070,56.1000,-0.015710
37.102,56.1000,-0.016918
37.132,56.1000,-0.018127
37.164,56.1000,-0.015710
37.194,56.1000,-0.016918
37.225,56.1000,-0.019335
37.256,56.1000,-0.015710
37.287,56.1000,-0.016918
37.318,56.1000,-0.019335
37.338,56.1000,-0.019335
37.363,56.1000,-0.019335
37.395,56.1000,-0.015710
37.426,56.1000,-0.020544
37.457,56.1000,-0.018127
37.489,56.1000,-0.013293
37.520,56.1000,-0.016918
37.551,56.1000,-0.016918
37.582,56.1000,-0.019335
37.614,56.1000,-0.015710
37.644,56.1000,-0.016918
37.676,56.1000,-0.015710
37.706,56.1000,-0.019335
37.737,55.9508,-0.014501
37.768,55.7260,0.031420
37.800,55.4917,0.024169
37.831,55.2725,0.062839
37.862,55.0440,0.080966
37.895,54.8017,0.123262
37.925,54.5913,0.148639
37.956,54.3643,0.175225
37.987,54.1429,0.224771
38.019,53.9086,0.258608
38.050,53.6845,0.291236
38.081,53.4597,0.360117
38.113,53.2296,0.392745
38.143,53.0120,0.451959
38.175,52.7792,0.328698
38.205,52.5630,0.009668
38.236,52.3410,0.002417
38.267,52.1124,0.004834
38.298,51.8890,-0.002417
38.328,51.6742,0.006042
38.352,51.5043,0.006042
38.375,51.3350,0.001208
38.406,51.1117,0.000000
38.426,50.9663,0.001208
38.453,50.7696,0.001208
38.475,50.6112,0.001208
38.499,50.4355,0.004834
38.531,50.2084,-0.001208
38.562,50.0500,-0.001208
38.593,50.0500,-0.027794
38.624,50.0500,-0.024169
38.655,50.0500,0.003625
38.686,50.0500,-0.002417
38.718,50.0500,-0.003625
38.748,50.0500,0.000000
38.779,50.0500,0.000000
38.803,50.0500,0.001208
38.827,50.0500,0.002417
38.856,50.0500,-0.002417
38.887,50.1747,-0.001208
38.917,50.3916,-0.025377
38.948,50.6200,0.000000
38.970,50.7697,0.000000
38.995,50.9513,-0.002417
39.026,51.1741,0.001208
39.057,51.4054,0.002417
39.088,51.6260,0.000000
39.121,51.8595,0.002417
39.151,52.0787,0.003625
39.182,52.3043,0.001208
39.212,52.5227,0.002417
39.244,52.7583,0.002417
39.274,52.9767,-0.002417
39.305,53.1923,0.001208
39.336,53.4186,-0.001208
39.366,53.6370,-0.001208
39.388,53.7947,-0.001208
39.414,53.9819,-0.004834
39.445,54.2025,-0.002417
39.467,54.3616,-0.002417
39.492,54.5503,-0.006042
39.514,54.7116,-0.006042
39.539,54.8887,-0.008459
39.569,55.1063,-0.012084
39.600,55.3276,-0.012084
39.632,55.5577,-0.016918
39.664,55.7897,-0.024169
39.694,56.0081,-0.032628
39.725,56.0500,-0.033837
39.757,56.0500,-0.048338
39.788,56.0500,-0.048338
39.817,56.0500,-0.043504
39.848,56.0500,-0.039879
39.879,56.0500,-0.043504
39.910,56.0500,-0.035045
39.930,56.0500,-0.035045
39.956,56.0500,-0.032628
39.977,56.0500,-0.035045
40.002,56.0500,-0.035045
40.033,56.0500,-0.030211
40.063,56.0500,-0.032628
40.095,56.0500,-0.027794
40.126,56.0500,-0.031420
40.157,56.0500,-0.032628
40.188,56.0500,-0.029003
40.218,56.0500,-0.029003
40.250,56.0500,-0.030211
40.281,56.0500,-0.025377
40.312,56.0500,-0.030211
40.344,56.0500,-0.029003
40.374,56.0500,-0.026586
40.406,56.0500,-0.030211
