Elapsed Time (s),Position (mm),Force (N)
-0.015,53.7000,-0.027794
0.017,53.7000,-0.032628
0.049,53.7000,-0.030211
0.080,53.7000,-0.024169
0.112,53.7000,-0.024169
0.144,53.7000,-0.030211
0.174,53.7000,-0.031420
0.205,53.7000,-0.025377
0.235,53.7000,-0.026586
0.267,53.7000,-0.030211
0.298,53.7000,-0.024169
0.318,53.7000,-0.024169
0.343,53.7000,-0.026586
0.375,53.7000,-0.029003
0.405,53.7000,-0.027794
0.437,53.7000,-0.026586
0.467,53.7000,-0.026586
0.498,53.7000,-0.025377
0.530,53.7000,-0.031420
0.562,53.7000,-0.020544
0.594,53.7000,-0.022961
0.624,53.7000,-0.024169
0.655,53.7000,-0.024169
0.687,53.7000,-0.027794
0.717,53.7000,-0.025377
0.747,53.7000,-0.022961
0.779,53.7000,-0.020544
0.809,53.7000,-0.024169
0.831,53.7000,-0.027794
0.856,53.7000,-0.025377
0.887,53.7000,-0.024169
0.918,53.7000,-0.021752
0.954,53.7000,-0.026586
0.981,53.7000,-0.024169
1.012,53.7000,-0.019335
1.043,53.7000,-0.019335
1.074,53.7000,-0.022961
1.104,53.7000,-0.020544
1.136,53.7000,-0.021752
1.167,53.7000,-0.021752
1.199,53.7000,-0.021752
1.230,53.7000,-0.019335
1.261,53.7000,-0.025377
1.292,53.7000,-0.024169
1.323,53.7000,-0.022961
1.354,53.7000,-0.022961
1.386,53.7000,-0.022961
1.417,53.7000,-0.019335
1.441,53.7000,-0.019335
1.463,53.7000,-0.016918
1.496,53.7000,-0.022961
1.517,53.7000,-0.020544
1.541,53.7000,-0.022961
1.573,53.7000,-0.021752
1.604,53.7000,-0.020544
1.636,53.7000,-0.018127
1.666,53.7000,-0.019335
1.697,53.7000,-0.018127
1.729,53.7000,-0.019335
1.759,53.7000,-0.021752
1.789,53.7000,-0.020544
1.821,53.7000,-0.021752
1.851,53.7000,-0.021752
1.882,53.7000,-0.027794
1.913,53.7000,-0.022961
1.933,53.7000,-0.022961
1.958,53.7000,-0.019335
1.992,53.7000,-0.021752
2.013,53.7000,-0.021752
2.038,53.7000,-0.019335
2.067,53.7000,-0.016918
2.098,53.7000,-0.022961
2.129,53.7000,-0.022961
2.159,53.7000,-0.016918
2.191,53.7000,-0.016918
2.221,53.7000,-0.025377
2.252,53.7000,-0.021752
2.284,53.7000,-0.021752
2.315,53.7000,-0.020544
2.346,53.7000,-0.019335
2.376,53.7000,-0.021752
2.396,53.7000,-0.019335
2.426,53.7000,-0.019335
2.453,53.7000,-0.019335
2.485,53.7000,-0.024169
2.506,53.7000,-0.021752
2.531,53.7000,-0.021752
2.563,53.7000,-0.021752
2.594,53.7000,-0.019335
2.625,53.7000,-0.018127
2.655,53.7000,-0.020544
2.686,53.7000,-0.021752
2.717,53.7000,-0.022961
2.749,53.7000,-0.018127
2.779,53.7000,-0.025377
2.811,53.7000,-0.025377
2.841,53.7000,-0.021752
2.872,53.7000,-0.019335
2.903,53.7000,-0.020544
2.934,53.7000,-0.021752
2.965,53.7000,-0.020544
2.985,53.7000,-0.018127
3.012,53.7000,-0.018127
3.033,53.7000,-0.024169
3.059,53.7000,-0.020544
3.089,53.7000,-0.018127
3.121,53.7000,-0.021752
3.152,53.7000,-0.022961
3.183,53.7000,-0.019335
3.215,53.7000,-0.018127
3.246,53.7000,-0.018127
3.278,53.7000,-0.021752
3.308,53.7000,-0.019335
3.339,53.7000,-0.015710
3.369,53.7000,-0.018127
3.401,53.7000,-0.016918
3.421,53.7000,-0.018127
3.448,53.7000,-0.019335
3.478,53.7000,-0.021752
3.509,53.7000,-0.020544
3.539,53.7000,-0.019335
3.570,53.7000,-0.019335
3.602,53.7000,-0.021752
3.633,53.7000,-0.022961
3.664,53.7000,-0.020544
3.686,53.7000,-0.020544
3.711,53.7000,-0.024169
3.732,53.7000,-0.025377
3.758,53.7000,-0.021752
3.789,53.7000,-0.016918
3.822,53.7000,-0.019335
3.855,53.7000,-0.019335
3.876,53.7000,-0.018127
3.899,53.7000,-0.018127
3.930,53.7000,-0.018127
3.960,53.7000,-0.019335
3.992,53.7000,-0.015710
4.024,53.7000,-0.016918
4.045,53.7000,-0.019335
4.070,53.7000,-0.019335
4.101,53.7000,-0.022961
4.132,53.7000,-0.015710
4.164,53.7000,-0.020544
4.194,53.7000,-0.020544
4.226,53.7000,-0.018127
4.257,53.7000,-0.018127
4.289,53.7000,-0.019335
4.321,53.7000,-0.018127
4.353,53.7000,-0.015710
4.382,53.7000,-0.020544
4.414,53.7000,-0.021752
4.446,53.7000,-0.018127
4.476,53.7000,-0.020544
4.507,53.7000,-0.014501
4.538,53.7000,-0.019335
4.569,53.7000,-0.019335
4.600,53.7000,-0.021752
4.621,53.7000,-0.020544
4.648,53.7000,-0.020544
4.669,53.7000,-0.018127
4.694,53.7000,-0.019335
4.725,53.7000,-0.016918
4.756,53.7000,-0.015710
4.788,53.7000,-0.019335
4.818,53.7000,-0.016918
4.848,53.7000,-0.015710
4.879,53.7000,-0.020544
4.910,53.7000,-0.020544
4.942,53.7000,-0.016918
4.974,53.7000,-0.018127
5.004,53.7000,-0.021752
5.035,53.7000,-0.019335
5.067,53.7000,-0.018127
5.097,53.7000,-0.020544
5.128,53.7000,-0.021752
5.159,53.7000,-0.021752
5.190,53.7000,-0.018127
5.221,53.7000,-0.018127
5.255,53.7000,-0.021752
5.283,53.7000,-0.024169
5.315,53.7000,-0.016918
5.345,53.7000,-0.019335
5.376,53.7000,-0.019335
5.407,53.7000,-0.018127
5.438,53.7000,-0.019335
5.468,53.7000,-0.019335
5.500,53.7000,-0.016918
5.531,53.7000,-0.018127
5.562,53.7000,-0.020544
5.593,53.7000,-0.018127
5.625,53.7000,-0.013293
5.656,53.7000,-0.018127
5.688,53.7000,-0.025377
5.708,53.7000,-0.025377
5.733,53.7000,-0.019335
5.764,53.7000,-0.015710
5.795,53.7000,-0.020544
5.825,53.7000,-0.019335
5.858,53.7000,-0.019335
5.888,53.7000,-0.019335
5.919,53.7000,-0.018127
5.950,53.7000,-0.018127
5.981,53.7000,-0.016918
6.012,53.7000,-0.016918
6.044,53.7000,-0.014501
6.075,53.7000,-0.016918
6.107,53.7000,-0.016918
6.137,53.7000,-0.021752
6.169,53.7000,-0.018127
6.201,53.7000,-0.016918
6.232,53.7000,-0.014501
6.263,53.7000,-0.020544
6.285,53.7000,-0.019335
6.310,53.7000,-0.019335
6.348,53.7000,-0.019335
6.372,53.7000,-0.019335
6.404,53.7000,-0.018127
6.434,53.7000,-0.016918
6.464,53.7000,-0.020544
6.495,53.7000,-0.019335
6.526,53.7000,-0.018127
6.558,53.7000,-0.020544
6.589,53.7000,-0.020544
6.620,53.7000,-0.021752
6.651,53.7000,-0.018127
6.682,53.7000,-0.015710
6.713,53.7000,-0.016918
6.744,53.7000,-0.019335
6.775,53.7000,-0.019335
6.797,53.7000,-0.018127
6.822,53.7000,-0.021752
6.852,53.7000,-0.016918
6.884,53.7000,-0.015710
6.915,53.7000,-0.016918
6.947,53.7000,-0.018127
6.978,53.7000,-0.018127
7.009,53.7000,-0.018127
7.040,53.7000,-0.015710
7.070,53.7000,-0.019335
7.102,53.7000,-0.016918
7.132,53.7000,-0.013293
7.163,53.7000,-0.015710
7.194,53.7000,-0.015710
7.226,53.7000,-0.016918
7.257,53.7000,-0.016918
7.281,53.7000,-0.016918
7.305,53.7000,-0.016918
7.334,53.7000,-0.019335
7.366,53.7000,-0.013293
7.399,53.7000,-0.016918
7.428,53.7000,-0.016918
7.449,53.7000,-0.013293
7.477,53.7000,-0.014501
7.497,53.7000,-0.015710
7.521,53.7000,-0.015710
7.553,53.7000,-0.015710
7.584,53.7000,-0.013293
7.615,53.7000,-0.013293
7.646,53.7000,-0.021752
7.677,53.7000,-0.019335
7.708,53.7000,-0.016918
7.740,53.7000,-0.013293
7.770,53.7000,-0.013293
7.802,53.7000,-0.018127
7.832,53.7000,-0.019335
7.863,53.7000,-0.016918
7.894,53.7000,-0.016918
7.925,53.7000,-0.016918
7.956,53.7000,-0.020544
7.987,53.7000,-0.021752
8.008,53.7000,-0.021752
8.032,53.7000,-0.015710
8.063,53.7000,-0.015710
8.093,53.7000,-0.014501
8.125,53.7000,-0.016918
8.156,53.7000,-0.020544
8.187,53.7000,-0.019335
8.218,53.7000,-0.019335
8.249,53.7000,-0.018127
8.280,53.7000,-0.016918
8.312,53.7000,-0.019335
8.344,53.7000,-0.019335
8.375,53.7000,-0.014501
8.407,53.7000,-0.016918
8.437,53.7000,-0.014501
8.468,53.7000,-0.016918
8.498,53.7000,-0.019335
8.528,53.7000,-0.022961
8.559,53.7000,-0.018127
8.590,53.7000,-0.016918
8.620,53.7000,-0.010876
8.652,53.7000,-0.012084
8.684,53.7000,-0.013293
8.715,53.7000,-0.014501
8.747,53.7000,-0.015710
8.778,53.7000,-0.014501
8.808,53.7000,-0.012084
8.839,53.7000,-0.014501
8.870,53.7000,-0.016918
8.901,53.7000,-0.019335
8.932,53.7000,-0.020544
8.962,53.7000,-0.016918
8.993,53.7000,-0.015710
9.024,53.7000,-0.016918
9.054,53.7000,-0.019335
9.085,53.7000,-0.015710
9.116,53.7000,-0.016918
9.149,53.7000,-0.020544
9.180,53.7000,-0.018127
9.210,53.7000,-0.018127
9.242,53.7000,-0.014501
9.272,53.7000,-0.015710
9.303,53.7000,-0.015710
9.334,53.7000,-0.015710
9.365,53.7000,-0.020544
9.396,53.7000,-0.015710
9.427,53.7000,-0.015710
9.449,53.7000,-0.019335
9.473,53.7000,-0.018127
9.503,53.7000,-0.015710
9.534,53.7000,-0.015710
9.564,53.7000,-0.021752
9.595,53.7000,-0.016918
9.626,53.7000,-0.015710
9.657,53.7000,-0.016918
9.688,53.7000,-0.012084
9.718,53.7000,-0.016918
9.749,53.7000,-0.014501
9.781,53.7000,-0.014501
9.813,53.7000,-0.013293
9.844,53.7000,-0.019335
9.877,53.7000,-0.019335
9.899,53.7000,-0.019335
9.921,53.7000,-0.019335
9.952,53.7000,-0.013293
9.983,53.7000,-0.014501
10.005,53.7000,-0.019335
10.029,53.7000,-0.019335
10.061,53.7000,-0.018127
10.091,53.7000,-0.019335
10.122,53.7000,-0.016918
10.156,53.7000,-0.014501
10.185,53.7000,-0.014501
10.216,53.7000,-0.018127
10.248,53.7000,-0.014501
10.278,53.7000,-0.015710
10.309,53.7000,-0.018127
10.339,53.7000,-0.016918
10.370,53.7000,-0.020544
10.401,53.7000,-0.019335
10.433,53.7000,-0.015710
10.464,53.7000,-0.015710
10.485,53.7000,-0.016918
10.510,53.7000,-0.016918
10.541,53.7000,-0.016918
10.563,53.7000,-0.016918
10.586,53.7000,-0.016918
10.617,53.7000,-0.020544
10.648,53.7000,-0.020544
10.679,53.7000,-0.014501
10.709,53.7000,-0.014501
10.740,53.7000,-0.018127
10.772,53.7000,-0.013293
10.803,53.7000,-0.018127
10.833,53.7000,-0.015710
10.864,53.7000,-0.014501
10.895,53.7000,-0.010876
10.926,53.7000,-0.013293
10.958,53.7000,-0.016918
10.983,53.7000,-0.016918
11.004,53.7000,-0.016918
11.035,53.7000,-0.014501
11.066,53.7000,-0.016918
11.098,53.7000,-0.014501
11.128,53.7000,-0.014501
11.158,53.5635,-0.015710
11.190,53.2930,0.015710
11.222,53.0147,0.032628
11.253,52.7545,0.056797
11.283,52.4935,0.080966
11.313,52.2307,0.132929
11.344,51.9619,0.192143
11.375,51.6888,0.225980
11.408,51.4191,0.299695
11.438,51.1572,0.373410
11.458,50.9806,0.373410
11.485,50.7514,0.404830
11.506,50.5730,0.352867
11.532,50.3421,0.186101
11.554,50.1604,0.032628
11.579,49.9406,0.032628
11.610,49.6667,0.009668
11.642,49.3936,0.006042
11.675,49.1127,0.004834
11.703,48.8690,0.004834
11.734,48.6053,0.002417
11.766,48.3261,0.000000
11.796,48.0694,0.001208
11.828,47.7997,0.004834
11.858,47.6501,-0.019335
11.882,47.6501,-0.019335
11.904,47.6501,-0.001208
11.937,47.6501,0.001208
11.968,47.6501,-0.002417
11.998,47.6501,0.000000
12.029,47.6501,0.003625
12.050,47.6501,0.002417
12.075,47.6501,0.002417
12.097,47.6501,0.001208
12.122,47.6501,0.000000
12.152,47.6501,0.000000
12.172,47.6501,0.003625
12.200,47.6501,0.003625
12.220,47.6508,0.003625
12.245,47.8253,0.000000
12.276,48.0924,-0.049546
12.308,48.3673,-0.004834
12.338,48.6240,-0.001208
12.369,48.8980,0.003625
12.400,49.1599,0.000000
12.433,49.4537,-0.002417
12.462,49.6915,0.003625
12.493,49.9594,0.001208
12.524,50.2274,0.003625
12.555,50.4970,-0.002417
12.586,50.7684,-0.002417
12.616,51.0260,-0.001208
12.647,51.2914,-0.001208
12.668,51.4706,-0.006042
12.694,51.6972,-0.006042
12.725,51.9633,-0.003625
12.758,52.2460,-0.004834
12.787,52.4992,-0.009668
12.817,52.7518,-0.014501
12.849,53.0292,-0.014501
12.879,53.2919,-0.030211
12.911,53.5667,-0.030211
12.942,53.6501,-0.021752
12.973,53.6501,-0.018127
13.004,53.6501,-0.054380
13.035,53.6501,-0.045921
13.066,53.6501,-0.045921
13.098,53.6501,-0.043504
13.129,53.6501,-0.039879
13.160,53.6501,-0.037462
13.191,53.6501,-0.037462
13.212,53.6501,-0.037462
13.238,53.6501,-0.035045
13.269,53.6501,-0.035045
13.300,53.6501,-0.032628
13.331,53.6501,-0.031420
13.362,53.6501,-0.035045
13.393,53.6501,-0.033837
13.423,53.6501,-0.031420
13.454,53.6501,-0.027794
13.485,53.6501,-0.027794
13.516,53.6501,-0.030211
13.547,53.6501,-0.031420
13.578,53.6501,-0.027794
13.610,53.6501,-0.026586
13.641,53.6501,-0.026586
13.672,53.6501,-0.025377
13.703,53.6501,-0.029003
13.723,53.6501,-0.030211
13.749,53.6501,-0.030211
13.779,53.6501,-0.022961
13.810,53.6501,-0.020544
13.841,53.6501,-0.031420
13.872,53.6501,-0.022961
13.902,53.6501,-0.021752
13.933,53.6501,-0.021752
13.965,53.6501,-0.024169
13.995,53.6501,-0.024169
14.026,53.6501,-0.024169
14.058,53.6501,-0.027794
14.088,53.6501,-0.021752
14.121,53.6501,-0.021752
14.151,53.6501,-0.021752
14.172,53.6501,-0.027794
14.197,53.6501,-0.024169
14.228,53.6501,-0.020544
14.260,53.6501,-0.024169
14.291,53.6501,-0.026586
14.321,53.6501,-0.026586
14.353,53.6501,-0.019335
14.383,53.6501,-0.018127
14.415,53.6501,-0.026586
14.447,53.6501,-0.024169
14.479,53.6501,-0.019335
14.511,53.6501,-0.021752
14.542,53.6501,-0.021752
14.574,53.6501,-0.022961
14.606,53.6501,-0.021752
14.636,53.6501,-0.026586
14.668,53.6501,-0.021752
14.698,53.6501,-0.020544
14.729,53.6501,-0.021752
14.761,53.6501,-0.024169
14.792,53.6501,-0.020544
14.823,53.6501,-0.022961
14.843,53.6501,-0.024169
14.869,53.6501,-0.024169
14.900,53.6501,-0.022961
14.932,53.6501,-0.021752
14.963,53.6501,-0.021752
14.993,53.6501,-0.022961
15.024,53.6501,-0.021752
15.054,53.6501,-0.021752
15.086,53.6501,-0.019335
15.118,53.6501,-0.021752
15.151,53.6501,-0.021752
15.180,53.6501,-0.021752
15.212,53.6501,-0.022961
15.242,53.6501,-0.019335
15.274,53.6501,-0.018127
15.304,53.6501,-0.018127
15.335,53.6501,-0.020544
15.366,53.6501,-0.021752
15.386,53.6501,-0.019335
15.412,53.6501,-0.018127
15.444,53.6501,-0.018127
15.476,53.6501,-0.019335
15.507,53.6501,-0.018127
15.537,53.6501,-0.019335
15.568,53.6501,-0.020544
15.599,53.6501,-0.019335
15.631,53.6501,-0.020544
15.661,53.6501,-0.021752
15.692,53.6501,-0.024169
15.724,53.6501,-0.019335
15.755,53.6501,-0.019335
15.786,53.6501,-0.018127
15.817,53.6501,-0.022961
15.849,53.6501,-0.022961
15.870,53.6501,-0.020544
15.894,53.6501,-0.021752
15.915,53.6501,-0.021752
15.940,53.6501,-0.021752
15.971,53.6501,-0.020544
16.005,53.6501,-0.021752
16.028,53.6501,-0.022961
16.049,53.6501,-0.022961
16.081,53.6501,-0.021752
16.112,53.6501,-0.021752
16.144,53.6501,-0.022961
16.174,53.6501,-0.021752
16.206,53.6501,-0.019335
16.236,53.6501,-0.018127
16.268,53.6501,-0.018127
16.298,53.6501,-0.018127
16.329,53.6501,-0.019335
16.361,53.6501,-0.020544
16.393,53.6501,-0.025377
16.424,53.6501,-0.027794
16.455,53.6501,-0.018127
16.485,53.6501,-0.020544
16.506,53.6501,-0.021752
16.533,53.6501,-0.021752
16.554,53.6501,-0.021752
16.579,53.6501,-0.021752
16.611,53.6501,-0.021752
16.645,53.6501,-0.021752
16.667,53.6501,-0.016918
16.689,53.6501,-0.016918
16.721,53.6501,-0.018127
16.750,53.6501,-0.018127
16.783,53.6501,-0.020544
16.814,53.6501,-0.019335
16.845,53.6501,-0.024169
16.875,53.6501,-0.019335
16.906,53.6501,-0.019335
16.937,53.6501,-0.018127
16.968,53.6501,-0.022961
16.999,53.6501,-0.016918
17.029,53.6501,-0.018127
17.050,53.6501,-0.021752
17.078,53.6501,-0.019335
17.107,53.6501,-0.019335
17.140,53.6501,-0.020544
17.169,53.6501,-0.020544
17.190,53.6501,-0.019335
17.215,53.6501,-0.020544
17.246,53.6501,-0.019335
17.277,53.6501,-0.018127
17.308,53.6501,-0.016918
17.340,53.6501,-0.022961
17.370,53.6501,-0.019335
17.402,53.6501,-0.019335
17.434,53.6501,-0.020544
17.466,53.6501,-0.019335
17.496,53.6501,-0.016918
17.528,53.6501,-0.019335
17.559,53.6501,-0.012084
17.591,53.6501,-0.012084
17.621,53.6501,-0.018127
17.652,53.6501,-0.018127
17.683,53.6501,-0.022961
17.714,53.6501,-0.018127
17.746,53.6501,-0.018127
17.776,53.6501,-0.021752
17.798,53.6501,-0.021752
17.823,53.6501,-0.014501
17.856,53.6501,-0.015710
17.887,53.6501,-0.018127
17.918,53.6501,-0.019335
17.949,53.6501,-0.019335
17.979,53.6501,-0.019335
18.010,53.6501,-0.022961
18.042,53.6501,-0.018127
18.076,53.6501,-0.020544
18.103,53.6501,-0.015710
18.135,53.6501,-0.016918
18.165,53.6501,-0.015710
18.196,53.6501,-0.018127
18.227,53.6501,-0.021752
18.258,53.6501,-0.021752
18.278,53.6501,-0.021752
18.305,53.6501,-0.013293
18.337,53.6501,-0.019335
18.358,53.6501,-0.019335
18.383,53.6501,-0.018127
18.413,53.6501,-0.014501
18.444,53.6501,-0.015710
18.475,53.6501,-0.019335
18.507,53.6501,-0.018127
18.537,53.6501,-0.013293
18.568,53.6501,-0.015710
18.599,53.6501,-0.020544
18.630,53.6501,-0.020544
18.661,53.6501,-0.015710
18.693,53.6501,-0.016918
18.725,53.6501,-0.016918
18.756,53.6501,-0.016918
18.786,53.6501,-0.015710
18.817,53.6501,-0.014501
18.848,53.6501,-0.014501
18.879,53.6501,-0.014501
18.900,53.6501,-0.014501
18.926,53.6501,-0.018127
18.960,53.6501,-0.016918
18.988,53.6501,-0.015710
19.019,53.6501,-0.015710
19.051,53.6501,-0.019335
19.082,53.6501,-0.019335
19.113,53.6501,-0.016918
19.145,53.6501,-0.018127
19.176,53.6501,-0.016918
19.209,53.6501,-0.022961
19.239,53.6501,-0.018127
19.270,53.6501,-0.018127
19.300,53.6501,-0.015710
19.332,53.6501,-0.015710
19.363,53.6501,-0.019335
19.394,53.6501,-0.020544
19.426,53.6501,-0.014501
19.457,53.6501,-0.015710
19.488,53.6501,-0.016918
19.519,53.6501,-0.018127
19.540,53.6501,-0.018127
19.566,53.6501,-0.018127
19.596,53.6501,-0.015710
19.627,53.6501,-0.018127
19.658,53.6501,-0.019335
19.690,53.6501,-0.016918
19.721,53.6501,-0.016918
19.752,53.6501,-0.016918
19.784,53.6501,-0.016918
19.804,53.6501,-0.020544
19.830,53.6501,-0.020544
19.860,53.6501,-0.020544
19.891,53.6501,-0.012084
19.930,53.6501,-0.014501
19.954,53.6501,-0.018127
19.985,53.6501,-0.016918
20.016,53.6501,-0.016918
20.047,53.6501,-0.020544
20.078,53.6501,-0.016918
20.109,53.6501,-0.016918
20.141,53.6501,-0.019335
20.172,53.6501,-0.016918
20.203,53.6501,-0.018127
20.234,53.6501,-0.019335
20.266,53.6501,-0.019335
20.296,53.6501,-0.020544
20.318,53.6501,-0.020544
20.343,53.6501,-0.015710
20.373,53.6501,-0.018127
20.405,53.6501,-0.015710
20.436,53.6501,-0.018127
20.466,53.6501,-0.016918
20.498,53.6501,-0.016918
20.528,53.6501,-0.020544
20.560,53.6501,-0.018127
20.592,53.6501,-0.013293
20.623,53.6501,-0.014501
20.654,53.6501,-0.018127
20.684,53.6501,-0.020544
20.715,53.6501,-0.015710
20.746,53.6501,-0.018127
20.777,53.6501,-0.014501
20.798,53.6501,-0.014501
20.824,53.6501,-0.010876
20.844,53.6501,-0.015710
20.870,53.6501,-0.015710
20.901,53.6501,-0.021752
20.932,53.6501,-0.015710
20.963,53.6501,-0.015710
20.994,53.6501,-0.020544
21.026,53.6501,-0.019335
21.057,53.6501,-0.016918
21.088,53.6501,-0.014501
21.120,53.6501,-0.015710
21.151,53.6501,-0.015710
21.184,53.6501,-0.014501
21.212,53.6501,-0.016918
21.244,53.6501,-0.016918
21.277,53.6501,-0.016918
21.306,53.6501,-0.015710
21.337,53.6501,-0.020544
21.368,53.6501,-0.018127
21.400,53.6501,-0.014501
21.430,53.6501,-0.014501
21.461,53.6501,-0.016918
21.493,53.6501,-0.015710
21.524,53.6501,-0.014501
21.554,53.6501,-0.020544
21.586,53.6501,-0.019335
21.617,53.6501,-0.018127
21.648,53.6501,-0.016918
21.681,53.6501,-0.015710
21.712,53.6501,-0.018127
21.743,53.6501,-0.016918
21.774,53.6501,-0.016918
21.804,53.6501,-0.019335
21.835,53.6501,-0.015710
21.866,53.6501,-0.016918
21.897,53.6501,-0.016918
21.927,53.6501,-0.016918
21.948,53.6501,-0.018127
21.974,53.6501,-0.019335
22.004,53.6501,-0.019335
22.035,53.6501,-0.019335
22.066,53.6501,-0.016918
22.097,53.6501,-0.020544
22.129,53.6501,-0.018127
22.159,53.6501,-0.016918
22.190,53.6501,-0.016918
22.222,53.6501,-0.013293
22.254,53.6501,-0.015710
22.285,53.6501,-0.019335
22.317,53.6501,-0.018127
22.348,53.6501,-0.018127
22.372,53.6501,-0.018127
22.394,53.6501,-0.014501
22.424,53.6501,-0.014501
22.455,53.6501,-0.014501
22.475,53.6501,-0.014501
22.503,53.6501,-0.015710
22.523,53.6501,-0.016918
22.549,53.6501,-0.016918
22.581,53.6501,-0.016918
22.613,53.6501,-0.018127
22.643,53.6501,-0.015710
22.674,53.6501,-0.013293
22.705,53.6501,-0.016918
22.736,53.6501,-0.020544
22.767,53.6501,-0.016918
22.798,53.6501,-0.013293
22.829,53.6501,-0.015710
22.862,53.6501,-0.018127
22.891,53.6501,-0.016918
22.922,53.6501,-0.015710
22.952,53.6501,-0.016918
22.982,53.6501,-0.013293
23.003,53.6501,-0.016918
23.029,53.6501,-0.016918
23.060,53.6501,-0.018127
23.091,53.6501,-0.015710
23.122,53.6501,-0.014501
23.153,53.6501,-0.019335
23.184,53.6501,-0.018127
23.215,53.6501,-0.015710
23.248,53.6501,-0.015710
23.278,53.6501,-0.018127
23.310,53.6501,-0.020544
23.340,53.6501,-0.013293
23.372,53.6501,-0.015710
23.403,53.6501,-0.019335
23.434,53.6501,-0.015710
23.466,53.6501,-0.018127
23.497,53.6501,-0.018127
23.528,53.6501,-0.016918
23.558,53.6501,-0.016918
23.579,53.6501,-0.016918
23.605,53.6501,-0.014501
23.636,53.6501,-0.018127
23.666,53.6501,-0.018127
23.697,53.6501,-0.012084
23.728,53.6501,-0.016918
23.758,53.6501,-0.020544
23.789,53.6501,-0.020544
23.820,53.6501,-0.014501
23.852,53.6501,-0.016918
23.882,53.6501,-0.013293
23.902,53.6501,-0.012084
23.929,53.6501,-0.012084
23.961,53.6501,-0.018127
23.991,53.6501,-0.015710
24.022,53.6501,-0.018127
24.043,53.6501,-0.015710
24.068,53.6501,-0.015710
24.090,53.6501,-0.021752
24.118,53.6501,-0.013293
24.144,53.6501,-0.014501
24.175,53.6501,-0.015710
24.206,53.6501,-0.015710
24.237,53.6501,-0.018127
24.269,53.6501,-0.015710
24.300,53.6501,-0.018127
24.331,53.6501,-0.018127
24.363,53.6501,-0.014501
24.394,53.6501,-0.015710
24.426,53.4645,-0.018127
24.464,53.1397,0.042296
24.486,52.9424,0.033837
24.517,52.6874,0.072507
24.537,52.5082,0.072507
24.563,52.2841,0.096676
24.594,52.0223,0.157098
24.624,51.7568,0.224771
24.647,51.5665,0.259816
24.671,51.3605,0.259816
24.701,51.0882,0.328698
24.733,50.8272,0.386703
24.764,50.5507,0.383078
24.795,50.2879,0.277943
24.827,50.0113,0.085800
24.858,49.7494,0.009668
24.889,49.4720,0.010876
24.920,49.2083,0.006042
24.954,48.9103,0.006042
24.983,48.6673,0.001208
25.013,48.4106,0.002417
25.043,48.1460,0.001208
25.073,47.8867,0.001208
25.105,47.6192,-0.001208
25.125,47.6001,-0.016918
25.151,47.6001,-0.016918
25.182,47.6001,-0.001208
25.203,47.6001,-0.001208
25.228,47.6001,0.000000
25.250,47.6001,0.000000
25.274,47.6001,-0.001208
25.307,47.6001,0.001208
25.336,47.6001,-0.002417
25.368,47.6001,-0.001208
25.399,47.6001,0.002417
25.430,47.6001,0.002417
25.460,47.6001,-0.001208
25.491,47.6001,0.000000
25.521,47.6001,-0.003625
25.552,47.6883,-0.001208
25.583,47.9589,-0.038670
25.616,48.2414,0.000000
25.645,48.4948,0.003625
25.667,48.6765,0.001208
25.692,48.8997,-0.001208
25.714,49.0866,-0.001208
25.738,49.3003,0.002417
25.769,49.5649,0.000000
25.800,49.8301,-0.003625
25.832,50.1006,-0.002417
25.864,50.3730,-0.001208
25.895,50.6426,-0.002417
25.927,50.9227,0.001208
25.958,51.1897,0.000000
25.988,51.4490,-0.002417
26.019,51.7162,-0.007251
26.050,51.9814,-0.008459
26.082,52.2537,-0.003625
26.112,52.5139,-0.009668
26.142,52.7758,-0.019335
26.175,53.0567,-0.021752
26.205,53.3178,-0.026586
26.226,53.4918,-0.038670
26.252,53.6001,-0.042296
26.283,53.6001,-0.013293
26.313,53.6001,-0.047129
26.345,53.6001,-0.048338
26.376,53.6001,-0.043504
26.407,53.6001,-0.039879
26.438,53.6001,-0.041087
26.470,53.6001,-0.036253
26.502,53.6001,-0.038670
26.533,53.6001,-0.035045
26.565,53.6001,-0.036253
26.597,53.6001,-0.036253
26.628,53.6001,-0.033837
26.659,53.6001,-0.030211
26.690,53.6001,-0.030211
26.721,53.6001,-0.035045
26.753,53.6001,-0.032628
26.774,53.6001,-0.027794
26.799,53.6001,-0.027794
26.829,53.6001,-0.029003
26.861,53.6001,-0.027794
26.892,53.6001,-0.025377
26.924,53.6001,-0.026586
26.955,53.6001,-0.031420
26.987,53.6001,-0.027794
27.018,53.6001,-0.025377
27.048,53.6001,-0.025377
27.079,53.6001,-0.025377
27.110,53.6001,-0.025377
27.142,53.6001,-0.026586
27.172,53.6001,-0.026586
27.202,53.6001,-0.027794
27.234,53.6001,-0.021752
27.265,53.6001,-0.025377
27.286,53.6001,-0.027794
27.311,53.6001,-0.025377
27.332,53.6001,-0.024169
27.356,53.6001,-0.024169
27.387,53.6001,-0.024169
27.419,53.6001,-0.025377
27.450,53.6001,-0.026586
27.480,53.6001,-0.018127
27.511,53.6001,-0.021752
27.543,53.6001,-0.022961
27.574,53.6001,-0.022961
27.604,53.6001,-0.026586
27.638,53.6001,-0.026586
27.667,53.6001,-0.020544
27.700,53.6001,-0.021752
27.730,53.6001,-0.024169
27.761,53.6001,-0.025377
27.792,53.6001,-0.026586
27.823,53.6001,-0.021752
27.844,53.6001,-0.025377
27.870,53.6001,-0.025377
27.900,53.6001,-0.029003
27.934,53.6001,-0.022961
27.963,53.6001,-0.024169
27.994,53.6001,-0.025377
28.026,53.6001,-0.024169
28.056,53.6001,-0.024169
28.087,53.6001,-0.022961
28.118,53.6001,-0.024169
28.150,53.6001,-0.024169
28.180,53.6001,-0.016918
28.212,53.6001,-0.020544
28.242,53.6001,-0.024169
28.274,53.6001,-0.020544
28.305,53.6001,-0.025377
28.325,53.6001,-0.021752
28.351,53.6001,-0.021752
28.372,53.6001,-0.021752
28.397,53.6001,-0.026586
28.428,53.6001,-0.020544
28.449,53.6001,-0.019335
28.474,53.6001,-0.021752
28.504,53.6001,-0.022961
28.534,53.6001,-0.019335
28.566,53.6001,-0.020544
28.597,53.6001,-0.026586
28.627,53.6001,-0.022961
28.658,53.6001,-0.024169
28.690,53.6001,-0.024169
28.722,53.6001,-0.022961
28.755,53.6001,-0.019335
28.785,53.6001,-0.020544
28.818,53.6001,-0.022961
28.849,53.6001,-0.022961
28.879,53.6001,-0.019335
28.912,53.6001,-0.020544
28.941,53.6001,-0.020544
28.973,53.6001,-0.022961
29.004,53.6001,-0.019335
29.024,53.6001,-0.019335
29.051,53.6001,-0.022961
29.073,53.6001,-0.022961
29.097,53.6001,-0.026586
29.128,53.6001,-0.019335
29.160,53.6001,-0.018127
29.190,53.6001,-0.019335
29.221,53.6001,-0.024169
29.252,53.6001,-0.020544
29.284,53.6001,-0.022961
29.314,53.6001,-0.022961
29.346,53.6001,-0.021752
29.378,53.6001,-0.019335
29.409,53.6001,-0.019335
29.440,53.6001,-0.020544
29.474,53.6001,-0.020544
29.502,53.6001,-0.020544
29.533,53.6001,-0.020544
29.564,53.6001,-0.022961
29.594,53.6001,-0.021752
29.624,53.6001,-0.021752
29.655,53.6001,-0.025377
29.687,53.6001,-0.024169
29.717,53.6001,-0.022961
29.748,53.6001,-0.021752
29.779,53.6001,-0.018127
29.811,53.6001,-0.015710
29.842,53.6001,-0.018127
29.872,53.6001,-0.024169
29.903,53.6001,-0.020544
29.934,53.6001,-0.016918
29.965,53.6001,-0.019335
29.996,53.6001,-0.016918
30.026,53.6001,-0.016918
30.058,53.6001,-0.018127
30.088,53.6001,-0.018127
30.119,53.6001,-0.019335
30.150,53.6001,-0.021752
30.181,53.6001,-0.019335
30.212,53.6001,-0.021752
30.242,53.6001,-0.024169
30.273,53.6001,-0.019335
30.305,53.6001,-0.020544
30.337,53.6001,-0.020544
30.369,53.6001,-0.018127
30.399,53.6001,-0.024169
30.431,53.6001,-0.024169
30.461,53.6001,-0.020544
30.492,53.6001,-0.021752
30.522,53.6001,-0.024169
30.554,53.6001,-0.024169
30.585,53.6001,-0.021752
30.617,53.6001,-0.020544
30.648,53.6001,-0.020544
30.679,53.6001,-0.022961
30.709,53.6001,-0.022961
30.731,53.6001,-0.018127
30.756,53.6001,-0.019335
30.787,53.6001,-0.019335
30.818,53.6001,-0.021752
30.849,53.6001,-0.020544
30.880,53.6001,-0.019335
30.911,53.6001,-0.015710
30.941,53.6001,-0.019335
30.973,53.6001,-0.018127
31.004,53.6001,-0.019335
31.036,53.6001,-0.022961
31.068,53.6001,-0.018127
31.100,53.6001,-0.020544
31.131,53.6001,-0.019335
31.161,53.6001,-0.016918
31.192,53.6001,-0.015710
31.223,53.6001,-0.021752
31.253,53.6001,-0.021752
31.273,53.6001,-0.020544
31.300,53.6001,-0.016918
31.321,53.6001,-0.016918
31.346,53.6001,-0.018127
31.377,53.6001,-0.019335
31.409,53.6001,-0.015710
31.440,53.6001,-0.015710
31.471,53.6001,-0.018127
31.503,53.6001,-0.016918
31.534,53.6001,-0.014501
31.566,53.6001,-0.019335
31.596,53.6001,-0.022961
31.627,53.6001,-0.024169
31.657,53.6001,-0.018127
31.688,53.6001,-0.018127
31.719,53.6001,-0.020544
31.751,53.6001,-0.019335
31.782,53.6001,-0.016918
31.813,53.6001,-0.016918
31.833,53.6001,-0.015710
31.864,53.6001,-0.016918
31.889,53.6001,-0.016918
31.921,53.6001,-0.019335
31.952,53.6001,-0.019335
31.983,53.6001,-0.016918
32.013,53.6001,-0.020544
32.046,53.6001,-0.021752
32.076,53.6001,-0.021752
32.107,53.6001,-0.018127
32.137,53.6001,-0.018127
32.168,53.6001,-0.015710
32.200,53.6001,-0.020544
32.231,53.6001,-0.015710
32.263,53.6001,-0.020544
32.294,53.6001,-0.022961
32.325,53.6001,-0.018127
32.345,53.6001,-0.018127
32.372,53.6001,-0.019335
32.393,53.6001,-0.018127
32.419,53.6001,-0.018127
32.449,53.6001,-0.018127
32.480,53.6001,-0.018127
32.510,53.6001,-0.015710
32.542,53.6001,-0.015710
32.571,53.6001,-0.015710
32.602,53.6001,-0.019335
32.634,53.6001,-0.018127
32.665,53.6001,-0.014501
32.695,53.6001,-0.013293
32.727,53.6001,-0.022961
32.759,53.6001,-0.015710
32.790,53.6001,-0.018127
32.820,53.6001,-0.016918
32.845,53.6001,-0.020544
32.867,53.6001,-0.020544
32.898,53.6001,-0.016918
32.919,53.6001,-0.016918
32.945,53.6001,-0.019335
32.975,53.6001,-0.020544
33.006,53.6001,-0.021752
33.037,53.6001,-0.016918
33.068,53.6001,-0.016918
33.098,53.6001,-0.015710
33.129,53.6001,-0.015710
33.160,53.6001,-0.015710
33.190,53.6001,-0.019335
33.222,53.6001,-0.019335
33.252,53.6001,-0.014501
33.283,53.6001,-0.014501
33.315,53.6001,-0.019335
33.346,53.6001,-0.019335
33.366,53.6001,-0.018127
33.391,53.6001,-0.018127
33.424,53.6001,-0.018127
33.453,53.6001,-0.022961
33.485,53.6001,-0.019335
33.516,53.6001,-0.018127
33.548,53.6001,-0.024169
33.579,53.6001,-0.020544
33.612,53.6001,-0.020544
33.642,53.6001,-0.019335
33.674,53.6001,-0.018127
33.705,53.6001,-0.015710
33.735,53.6001,-0.016918
33.766,53.6001,-0.018127
33.796,53.6001,-0.015710
33.827,53.6001,-0.015710
33.847,53.6001,-0.015710
33.873,53.6001,-0.013293
33.894,53.6001,-0.014501
33.920,53.6001,-0.015710
33.950,53.6001,-0.015710
33.980,53.6001,-0.015710
34.011,53.6001,-0.019335
34.042,53.6001,-0.014501
34.074,53.6001,-0.018127
34.105,53.6001,-0.018127
34.136,53.6001,-0.016918
34.168,53.6001,-0.019335
34.198,53.6001,-0.020544
34.229,53.6001,-0.019335
34.261,53.6001,-0.014501
34.285,53.6001,-0.014501
34.307,53.6001,-0.016918
34.338,53.6001,-0.024169
34.359,53.6001,-0.024169
34.384,53.6001,-0.019335
34.415,53.6001,-0.016918
34.445,53.6001,-0.016918
34.476,53.6001,-0.019335
34.507,53.6001,-0.020544
34.538,53.6001,-0.016918
34.569,53.6001,-0.018127
34.600,53.6001,-0.016918
34.633,53.6001,-0.015710
34.663,53.6001,-0.016918
34.694,53.6001,-0.014501
34.725,53.6001,-0.018127
34.756,53.6001,-0.018127
34.787,53.6001,-0.018127
34.807,53.6001,-0.015710
34.833,53.6001,-0.018127
34.854,53.6001,-0.018127
34.880,53.6001,-0.018127
34.912,53.6001,-0.016918
34.943,53.6001,-0.016918
34.974,53.6001,-0.015710
35.004,53.6001,-0.016918
35.035,53.6001,-0.015710
35.066,53.6001,-0.018127
35.097,53.6001,-0.019335
35.129,53.6001,-0.019335
35.160,53.6001,-0.018127
35.190,53.6001,-0.015710
35.222,53.6001,-0.018127
35.253,53.6001,-0.015710
35.285,53.6001,-0.016918
35.315,53.6001,-0.019335
35.348,53.6001,-0.014501
35.378,53.6001,-0.019335
35.410,53.6001,-0.014501
35.441,53.6001,-0.018127
35.462,53.6001,-0.019335
35.488,53.6001,-0.019335
35.519,53.6001,-0.021752
35.549,53.6001,-0.014501
35.580,53.6001,-0.015710
35.611,53.6001,-0.014501
35.643,53.6001,-0.013293
35.674,53.6001,-0.013293
35.706,53.6001,-0.016918
35.737,53.6001,-0.019335
35.767,53.6001,-0.014501
35.798,53.6001,-0.022961
35.829,53.6001,-0.019335
35.860,53.6001,-0.016918
35.883,53.6001,-0.016918
35.909,53.6001,-0.019335
35.937,53.6001,-0.018127
35.957,53.6001,-0.018127
35.983,53.6001,-0.019335
36.014,53.6001,-0.015710
36.045,53.6001,-0.014501
36.076,53.6001,-0.015710
36.107,53.6001,-0.015710
36.141,53.6001,-0.014501
36.171,53.6001,-0.016918
36.202,53.6001,-0.016918
36.234,53.6001,-0.015710
36.264,53.6001,-0.015710
36.295,53.6001,-0.020544
36.327,53.6001,-0.019335
36.358,53.6001,-0.016918
36.389,53.6001,-0.016918
36.420,53.6001,-0.016918
36.451,53.6001,-0.015710
36.482,53.6001,-0.016918
36.502,53.6001,-0.013293
36.528,53.6001,-0.016918
36.549,53.6001,-0.016918
36.575,53.6001,-0.015710
36.606,53.6001,-0.016918
36.637,53.6001,-0.018127
36.668,53.6001,-0.018127
36.699,53.6001,-0.013293
36.730,53.6001,-0.019335
36.761,53.6001,-0.020544
36.792,53.6001,-0.015710
36.824,53.6001,-0.012084
36.854,53.6001,-0.019335
36.887,53.6001,-0.019335
36.918,53.6001,-0.015710
36.948,53.6001,-0.015710
36.979,53.6001,-0.015710
37.011,53.6001,-0.016918
37.042,53.6001,-0.018127
37.073,53.6001,-0.016918
37.103,53.6001,-0.019335
37.134,53.6001,-0.018127
37.165,53.6001,-0.009668
37.186,53.6001,-0.013293
37.211,53.6001,-0.013293
37.243,53.6001,-0.018127
37.272,53.6001,-0.015710
37.304,53.6001,-0.019335
37.335,53.6001,-0.018127
37.366,53.6001,-0.015710
37.397,53.6001,-0.014501
37.429,53.6001,-0.013293
37.459,53.6001,-0.019335
37.491,53.6001,-0.015710
37.523,53.6001,-0.015710
37.554,53.4008,-0.015710
37.585,53.1319,0.019335
37.617,52.8535,0.047129
37.647,52.5854,0.047129
37.678,52.3226,0.118428
37.698,52.1407,0.118428
37.724,51.9179,0.147431
37.756,51.6378,0.244106
37.781,51.4307,0.282777
37.802,51.2392,0.282777
37.833,50.9677,0.354075
37.865,50.6962,0.392745
37.897,50.4152,0.369785
37.927,50.1541,0.293653
37.959,49.8738,0.012084
37.989,49.6162,0.006042
38.020,49.3395,0.001208
38.051,49.0784,0.001208
38.081,48.8061,0.006042
38.113,48.5398,0.006042
38.144,48.2674,0.003625
38.175,47.9994,0.002417
38.206,47.7252,0.004834
38.237,47.5501,-0.016918
38.258,47.5501,-0.016918
38.285,47.5501,-0.047129
38.305,47.5501,0.001208
38.331,47.5501,0.002417
38.363,47.5501,-0.001208
38.385,47.5501,0.001208
38.409,47.5501,0.001208
38.440,47.5501,0.002417
38.471,47.5501,0.000000
38.503,47.5501,0.000000
38.534,47.5507,0.003625
38.570,47.8207,-0.001208
38.596,48.0495,-0.037462
38.628,48.3211,0.001208
38.659,48.5918,-0.001208
38.679,48.7744,-0.001208
38.705,48.9981,-0.001208
38.736,49.2653,0.000000
38.767,49.5333,0.003625
38.801,49.8300,0.000000
38.829,50.0746,0.000000
38.860,50.3469,0.002417
38.890,50.6080,0.000000
38.921,50.8812,-0.003625
38.954,51.1579,-0.001208
38.985,51.4339,0.001208
39.016,51.7080,-0.003625
39.037,51.8907,-0.003625
39.063,52.1144,-0.007251
39.094,52.3850,-0.007251
39.125,52.6478,-0.016918
39.157,52.9271,-0.021752
39.187,53.1865,-0.029003
39.218,53.4588,-0.043504
39.239,53.5501,-0.043504
39.266,53.5501,-0.009668
39.288,53.5501,-0.049546
39.311,53.5501,-0.049546
39.343,53.5501,-0.047129
39.374,53.5501,-0.044713
39.405,53.5501,-0.042296
39.436,53.5501,-0.038670
39.468,53.5501,-0.037462
39.498,53.5501,-0.041087
39.530,53.5501,-0.038670
39.562,53.5501,-0.035045
39.593,53.5501,-0.032628
