Elapsed Time (s),Position (mm),Force (N)
-0.018,64.0999,-0.021752
0.000,64.0999,-0.020544
0.016,64.0999,-0.020544
0.031,64.0999,-0.024169
0.046,64.0999,-0.020544
0.062,64.0999,-0.020544
0.078,64.0999,-0.025377
0.094,64.0999,-0.025377
0.110,64.0999,-0.032628
0.134,64.0999,-0.020544
0.158,64.0999,-0.024169
0.175,64.0999,-0.025377
0.191,64.0999,-0.029003
0.207,64.0999,-0.029003
0.223,64.0999,-0.019335
0.238,64.0999,-0.026586
0.256,64.0999,-0.026586
0.271,64.0999,-0.016918
0.288,64.0999,-0.018127
0.302,64.0999,-0.016918
0.320,64.0999,-0.021752
0.335,64.0999,-0.021752
0.352,64.0999,-0.025377
0.379,64.0999,-0.018127
0.396,64.0999,-0.013293
0.411,64.0999,-0.020544
0.427,64.0999,-0.020544
0.443,64.0999,-0.020544
0.459,64.0999,-0.022961
0.475,64.0999,-0.022961
0.491,64.0999,-0.024169
0.509,64.0999,-0.016918
0.524,64.0999,-0.019335
0.541,64.0999,-0.019335
0.555,64.0999,-0.020544
0.572,64.0999,-0.022961
0.588,64.0999,-0.022961
0.604,64.0999,-0.019335
0.619,64.0999,-0.015710
0.635,64.0999,-0.018127
0.651,64.0999,-0.018127
0.667,64.0999,-0.020544
0.684,64.0999,-0.018127
0.700,64.0999,-0.022961
0.715,64.0999,-0.021752
0.731,64.0999,-0.018127
0.748,64.0999,-0.016918
0.763,64.0999,-0.022961
0.779,64.0999,-0.025377
0.795,64.0999,-0.024169
0.812,64.0999,-0.022961
0.827,64.0999,-0.016918
0.843,64.0999,-0.016918
0.860,64.0999,-0.019335
0.876,64.0999,-0.014501
0.890,64.0999,-0.020544
0.922,64.0999,-0.021752
0.938,64.0999,-0.015710
0.954,64.0999,-0.014501
0.970,64.0999,-0.018127
0.987,64.0999,-0.013293
1.002,64.0999,-0.014501
1.020,64.0999,-0.015710
1.034,64.0999,-0.024169
1.051,64.0999,-0.016918
1.067,64.0999,-0.015710
1.086,64.0999,-0.019335
1.098,64.0999,-0.015710
1.114,64.0999,-0.015710
1.130,64.0999,-0.018127
1.146,64.0999,-0.018127
1.162,64.0999,-0.013293
1.178,64.0999,-0.018127
1.194,64.0999,-0.019335
1.210,64.0999,-0.021752
1.226,64.0999,-0.016918
1.243,64.0999,-0.019335
1.258,64.0999,-0.014501
1.274,64.0999,-0.019335
1.293,64.0999,-0.020544
1.306,64.0999,-0.015710
1.322,64.0999,-0.015710
1.338,64.0999,-0.018127
1.354,64.0999,-0.020544
1.370,64.0999,-0.016918
1.386,64.0999,-0.013293
1.404,64.0999,-0.015710
1.418,64.0999,-0.016918
1.434,64.0999,-0.016918
1.463,64.0999,-0.016918
1.478,64.0999,-0.015710
1.494,64.0999,-0.013293
1.510,64.0999,-0.018127
1.526,64.0999,-0.014501
1.543,64.0999,-0.014501
1.561,64.0999,-0.010876
1.574,64.0999,-0.008459
1.591,64.0999,-0.013293
1.607,64.0999,-0.016918
1.624,64.0999,-0.020544
1.638,64.0999,-0.016918
1.654,64.0999,-0.016918
1.671,64.0999,-0.016918
1.686,64.0999,-0.016918
1.702,64.0999,-0.021752
1.718,64.0999,-0.020544
1.734,64.0999,-0.020544
1.750,64.0999,-0.015710
1.769,64.0999,-0.018127
1.782,64.0999,-0.016918
1.798,64.0999,-0.012084
1.814,64.0999,-0.012084
1.831,64.0999,-0.014501
1.846,64.0999,-0.013293
1.863,64.0999,-0.016918
1.878,64.0999,-0.018127
1.897,64.0999,-0.016918
1.909,64.0999,-0.015710
1.925,64.0999,-0.015710
1.942,64.0999,-0.015710
1.958,64.0999,-0.016918
1.974,64.0999,-0.015710
1.990,64.0999,-0.010876
2.006,64.0999,-0.009668
2.022,64.0999,-0.007251
2.038,64.0999,-0.009668
2.054,64.0999,-0.009668
2.070,64.0999,-0.016918
2.086,64.0999,-0.019335
2.101,64.0999,-0.020544
2.118,64.0999,-0.009668
2.133,64.0999,-0.009668
2.150,64.0999,-0.007251
2.165,64.0999,-0.007251
2.181,64.0999,-0.016918
2.197,64.0999,-0.015710
2.213,64.0999,-0.010876
2.230,64.0999,-0.013293
2.246,64.0999,-0.009668
2.261,64.0999,-0.019335
2.277,64.0999,-0.020544
2.293,64.0999,-0.018127
2.309,64.0999,-0.015710
2.326,64.0999,-0.012084
2.342,64.0999,-0.008459
2.357,64.0999,-0.016918
2.374,64.0999,-0.016918
2.390,64.0999,-0.012084
2.407,64.0999,-0.014501
2.424,64.0999,-0.013293
2.438,64.0999,-0.015710
2.453,64.0999,-0.010876
2.469,64.0999,-0.012084
2.486,64.0999,-0.012084
2.502,64.0999,-0.009668
2.520,64.0999,-0.013293
2.544,64.0999,-0.013293
2.560,64.0999,-0.012084
2.577,64.0999,-0.018127
2.592,64.0999,-0.016918
2.609,64.0999,-0.016918
2.626,64.0999,-0.015710
2.642,64.0999,-0.015710
2.656,64.0999,-0.016918
2.673,64.0999,-0.013293
2.689,64.0999,-0.013293
2.704,64.0999,-0.013293
2.721,64.0999,-0.012084
2.743,64.0999,-0.016918
2.753,64.0999,-0.016918
2.769,64.0999,-0.019335
2.784,64.0999,-0.019335
2.801,64.0999,-0.015710
2.816,64.0999,-0.012084
2.832,64.0999,-0.013293
2.854,64.0999,-0.016918
2.864,64.0999,-0.020544
2.881,64.0999,-0.010876
2.897,64.0999,-0.012084
2.913,64.0999,-0.014501
2.928,64.0999,-0.013293
2.944,64.0999,-0.013293
2.960,64.0999,-0.013293
2.978,64.0999,-0.016918
2.993,64.0999,-0.018127
3.009,64.0999,-0.018127
3.024,64.0999,-0.019335
3.040,64.0999,-0.013293
3.057,64.0999,-0.013293
3.072,64.0999,-0.014501
3.096,64.0999,-0.019335
3.111,64.0999,-0.019335
3.127,64.0999,-0.013293
3.143,64.0999,-0.015710
3.159,64.0999,-0.014501
3.175,64.0999,-0.019335
3.191,64.0999,-0.016918
3.207,64.0999,-0.015710
3.225,64.0999,-0.016918
3.239,64.0999,-0.019335
3.255,64.0999,-0.012084
3.271,64.0999,-0.018127
3.287,64.0999,-0.013293
3.304,64.0999,-0.015710
3.322,64.0999,-0.014501
3.335,64.0999,-0.016918
3.352,64.0999,-0.007251
3.368,64.0999,-0.004834
3.384,64.0999,-0.004834
3.399,64.0999,-0.010876
3.415,64.0999,-0.010876
3.431,64.0999,-0.015710
3.446,64.0999,-0.016918
3.465,64.0999,-0.014501
3.479,64.0999,-0.015710
3.495,64.0999,-0.009668
3.510,64.0999,-0.012084
3.531,64.0999,-0.016918
3.543,64.0999,-0.014501
3.558,64.0999,-0.015710
3.575,64.0999,-0.010876
3.596,64.0999,-0.012084
3.607,64.0999,-0.013293
3.623,64.0999,-0.006042
3.638,64.0999,-0.018127
3.662,64.0999,-0.014501
3.678,64.0999,-0.010876
3.694,64.0999,-0.013293
3.710,64.0999,-0.019335
3.726,64.0999,-0.019335
3.742,64.0999,-0.014501
3.758,64.0999,-0.016918
3.774,64.0999,-0.016918
3.791,64.0999,-0.024169
3.807,64.0999,-0.021752
3.823,64.0999,-0.013293
3.838,64.0999,-0.013293
3.860,64.0999,-0.019335
3.882,64.0999,-0.015710
3.902,64.0999,-0.018127
3.919,64.0999,-0.015710
3.935,64.0999,-0.008459
3.950,64.0999,-0.012084
3.965,64.0999,-0.013293
3.985,64.0999,-0.013293
3.998,64.0999,-0.016918
4.014,64.0999,-0.014501
4.029,64.0999,-0.015710
4.046,64.0999,-0.010876
4.063,64.0999,-0.010876
4.079,64.0999,-0.015710
4.094,64.0999,-0.015710
4.110,64.0999,-0.015710
4.125,64.0999,-0.015710
4.141,64.0999,-0.013293
4.158,64.0999,-0.009668
4.184,64.0999,-0.008459
4.200,64.0999,-0.016918
4.215,64.0999,-0.010876
4.232,64.0999,-0.013293
4.247,64.0999,-0.009668
4.263,64.0999,-0.009668
4.279,64.0999,-0.010876
4.296,64.0999,-0.015710
4.311,64.0999,-0.013293
4.328,64.0999,-0.012084
4.343,64.0999,-0.012084
4.360,64.0999,-0.013293
4.375,64.0999,-0.012084
4.391,64.0999,-0.015710
4.407,64.0999,-0.014501
4.423,64.0999,-0.014501
4.440,64.0999,-0.009668
4.455,64.0999,-0.009668
4.472,64.0999,-0.014501
4.488,64.0999,-0.013293
4.504,64.0999,-0.009668
4.519,64.0999,-0.013293
4.539,64.0999,-0.013293
4.552,64.0999,-0.013293
4.567,64.0999,-0.014501
4.583,64.0999,-0.018127
4.600,64.0999,-0.022961
4.615,64.0999,-0.009668
4.631,64.0999,-0.010876
4.647,64.0999,-0.014501
4.664,64.0999,-0.009668
4.680,64.0999,-0.014501
4.695,64.0999,-0.008459
4.719,64.0999,-0.013293
4.734,64.0999,-0.013293
4.750,64.0999,-0.013293
4.766,64.0999,-0.013293
4.788,64.0999,-0.014501
4.799,64.0999,-0.015710
4.814,64.0999,-0.015710
4.830,64.0999,-0.013293
4.848,64.0999,-0.010876
4.863,64.0999,-0.004834
4.878,64.0999,-0.015710
4.894,64.0999,-0.010876
4.911,64.0999,-0.010876
4.926,64.0999,-0.012084
4.943,64.0999,-0.010876
4.958,64.0999,-0.013293
4.975,64.0999,-0.013293
4.991,64.0999,-0.006042
5.008,64.0999,-0.013293
5.022,64.0999,-0.021752
5.038,64.0999,-0.008459
5.054,64.0999,-0.012084
5.070,64.0999,-0.009668
5.086,64.0999,-0.013293
5.102,64.0999,-0.014501
5.118,64.0999,-0.016918
5.134,64.0999,-0.019335
5.153,64.0999,-0.015710
5.168,64.0999,-0.016918
5.182,64.0999,-0.012084
5.199,64.0999,-0.012084
5.214,64.0999,-0.006042
5.230,64.0999,-0.008459
5.246,64.0999,-0.015710
5.277,64.0999,-0.012084
5.293,64.0999,-0.014501
5.309,64.0999,-0.012084
5.325,64.0999,-0.010876
5.342,64.0999,-0.010876
5.357,64.0999,-0.008459
5.374,64.0999,-0.008459
5.389,64.0999,-0.016918
5.405,64.0999,-0.016918
5.421,64.0999,-0.016918
5.437,64.0999,-0.009668
5.454,64.0999,-0.009668
5.469,64.0999,-0.013293
5.486,64.0999,-0.016918
5.501,64.0999,-0.015710
5.518,64.0999,-0.014501
5.534,64.0999,-0.014501
5.550,64.0999,-0.012084
5.565,64.0999,-0.012084
5.581,64.0999,-0.016918
5.597,64.0999,-0.009668
5.613,64.0999,-0.009668
5.629,64.0999,-0.012084
5.645,64.0999,-0.010876
5.661,64.0999,-0.013293
5.677,64.0999,-0.013293
5.701,64.0999,-0.013293
5.723,64.0999,-0.015710
5.743,64.0999,-0.016918
5.758,64.0999,-0.013293
5.773,64.0999,-0.018127
5.789,64.0999,-0.013293
5.821,64.0999,-0.009668
5.836,64.0999,-0.016918
5.853,64.0999,-0.013293
5.868,64.0999,-0.012084
5.884,64.0999,-0.016918
5.900,64.0999,-0.018127
5.917,64.0999,-0.013293
5.932,64.0999,-0.010876
5.949,64.0999,-0.010876
5.964,64.0999,-0.016918
5.983,64.0999,-0.009668
5.996,64.0999,-0.010876
6.013,64.0999,-0.009668
6.028,64.0999,-0.010876
6.046,64.0999,-0.016918
6.060,64.0999,-0.018127
6.077,64.0999,-0.016918
6.092,64.0999,-0.012084
6.108,64.0999,-0.010876
6.124,64.0999,-0.013293
6.140,64.0999,-0.014501
6.156,64.0999,-0.014501
6.172,64.0999,-0.009668
6.188,64.0999,-0.003625
6.204,64.0999,-0.012084
6.220,64.0999,-0.012084
6.235,64.0999,-0.012084
6.256,64.0999,-0.012084
6.267,64.0999,-0.007251
6.283,64.0999,-0.016918
6.299,64.0999,-0.010876
6.316,64.0999,-0.012084
6.332,64.0999,-0.013293
6.348,64.0999,-0.010876
6.377,64.0999,-0.012084
6.393,64.0999,-0.014501
6.408,64.0999,-0.015710
6.424,64.0999,-0.013293
6.442,64.0999,-0.010876
6.457,64.0999,-0.010876
6.472,64.0999,-0.006042
6.488,64.0999,-0.016918
6.505,64.0999,-0.016918
6.521,64.0999,-0.010876
6.539,64.0999,-0.010876
6.553,64.0999,-0.012084
6.570,64.0999,-0.012084
6.585,64.0999,-0.012084
6.601,64.0999,-0.013293
6.616,64.0999,-0.013293
6.632,64.0999,-0.015710
6.648,64.0999,-0.012084
6.664,64.0999,-0.007251
6.683,64.0999,-0.010876
6.697,64.0999,-0.010876
6.712,64.0999,-0.012084
6.729,64.0999,-0.010876
6.744,64.0999,-0.012084
6.761,64.0999,-0.012084
6.776,64.0999,-0.008459
6.792,64.0999,-0.012084
6.809,64.0999,-0.016918
6.825,64.0999,-0.015710
6.843,64.0999,-0.016918
6.857,64.0999,-0.014501
6.874,64.0999,-0.015710
6.890,64.0999,-0.018127
6.904,64.0999,-0.013293
6.920,64.0999,-0.006042
6.937,64.0999,-0.009668
6.953,64.0999,-0.014501
6.968,64.0999,-0.014501
6.985,64.0999,-0.014501
7.001,64.0999,-0.010876
7.016,64.0999,-0.010876
7.033,64.0999,-0.010876
7.049,64.0999,-0.014501
7.064,64.0999,-0.014501
7.081,64.0999,-0.013293
7.096,64.0999,-0.013293
7.113,64.0999,-0.008459
7.128,64.0999,-0.008459
7.144,64.0999,-0.008459
7.160,64.0999,-0.006042
7.176,64.0999,-0.010876
7.193,64.0999,-0.015710
7.209,64.0999,-0.009668
7.225,64.0999,-0.009668
7.241,64.0999,-0.013293
7.257,64.0999,-0.013293
7.272,64.0999,-0.008459
7.289,64.0999,-0.008459
7.304,64.0999,-0.010876
7.320,64.0999,-0.007251
7.336,64.0999,-0.009668
7.352,64.0999,-0.007251
7.368,64.0999,-0.014501
7.384,64.0999,-0.014501
7.400,64.0999,-0.013293
7.417,64.0999,-0.014501
7.435,64.0999,-0.007251
7.459,64.0999,-0.014501
7.475,64.0999,-0.014501
7.491,64.0999,-0.014501
7.507,64.0999,-0.019335
7.523,64.0999,-0.014501
7.539,64.0999,-0.009668
7.555,64.0999,-0.014501
7.572,64.0999,-0.015710
7.587,64.0999,-0.008459
7.603,64.0999,-0.013293
7.620,64.0999,-0.012084
7.635,64.0999,-0.012084
7.651,64.0999,-0.009668
7.667,64.0999,-0.012084
7.682,64.0999,-0.012084
7.700,64.0999,-0.009668
7.715,64.0999,-0.009668
7.731,64.0999,-0.012084
7.747,64.0999,-0.010876
7.763,64.0999,-0.010876
7.779,64.0999,-0.015710
7.795,64.0999,-0.015710
7.811,64.0999,-0.006042
7.827,64.0999,-0.015710
7.844,64.0999,-0.015710
7.859,64.0999,-0.018127
7.875,64.0999,-0.018127
7.891,64.0999,-0.010876
7.908,64.0999,-0.009668
7.923,64.0999,-0.009668
7.940,64.0999,-0.008459
7.955,64.0999,-0.021752
7.985,64.0999,-0.014501
8.001,64.0999,-0.009668
8.018,64.0999,-0.007251
8.034,64.0999,-0.004834
8.050,64.0999,-0.009668
8.066,64.0999,-0.009668
8.081,64.0999,-0.015710
8.097,64.0999,-0.009668
8.113,64.0999,-0.012084
8.129,64.0999,-0.009668
8.146,64.0999,-0.009668
8.163,64.0999,-0.016918
8.177,64.0999,-0.015710
8.193,64.0999,-0.013293
8.210,64.0999,-0.012084
8.225,64.0999,-0.016918
8.241,64.0999,-0.012084
8.258,64.0999,-0.012084
8.274,64.0999,-0.013293
8.290,64.0999,-0.013293
8.305,64.0999,-0.010876
8.322,64.0999,-0.013293
8.338,64.0999,-0.009668
8.354,64.0999,-0.010876
8.371,64.0999,-0.013293
8.385,64.0999,-0.008459
8.400,64.0999,-0.008459
8.416,64.0999,-0.012084
8.435,64.0999,-0.012084
8.449,64.0999,-0.012084
8.465,64.0999,-0.013293
8.481,64.0999,-0.010876
8.497,64.0999,-0.010876
8.513,64.0999,-0.012084
8.528,64.0999,-0.019335
8.551,64.0999,-0.014501
8.567,64.0999,-0.012084
8.583,64.0999,-0.009668
8.599,64.0999,-0.014501
8.615,64.0999,-0.013293
8.631,64.0999,-0.009668
8.647,64.0999,-0.015710
8.663,64.0999,-0.019335
8.680,64.0999,-0.014501
8.695,64.0999,-0.014501
8.712,64.0999,-0.008459
8.727,64.0999,-0.009668
8.743,64.0999,-0.010876
8.759,64.0999,-0.010876
8.775,64.0999,-0.013293
8.792,64.0999,-0.008459
8.807,64.0999,-0.014501
8.824,64.0999,-0.016918
8.839,64.0999,-0.014501
8.857,64.0999,-0.014501
8.871,64.0999,-0.010876
8.888,64.0999,-0.016918
8.902,64.0999,-0.009668
8.920,64.0999,-0.009668
8.936,64.0999,-0.013293
8.952,64.0999,-0.013293
8.967,64.0999,-0.013293
8.985,64.0999,-0.013293
8.999,64.0999,-0.008459
9.016,64.0999,-0.014501
9.031,64.0999,-0.010876
9.049,64.0999,-0.010876
9.065,64.0999,-0.009668
9.081,64.0999,-0.016918
9.098,64.0999,-0.013293
9.123,64.0999,-0.008459
9.137,64.0999,-0.009668
9.153,64.0999,-0.010876
9.169,64.0999,-0.015710
9.186,64.0999,-0.013293
9.202,64.0999,-0.009668
9.219,64.0999,-0.012084
9.233,64.0999,-0.015710
9.250,64.0999,-0.014501
9.265,64.0999,-0.014501
9.283,64.0999,-0.010876
9.297,64.0999,-0.009668
9.315,64.0999,-0.009668
9.331,64.0999,-0.014501
9.345,64.0999,-0.014501
9.361,64.0999,-0.016918
9.377,64.0999,-0.009668
9.393,64.0999,-0.009668
9.409,64.0999,-0.008459
9.425,64.0999,-0.008459
9.441,64.0999,-0.013293
9.457,64.0999,-0.014501
9.473,64.0999,-0.003625
9.492,64.0999,-0.013293
9.505,64.0999,-0.009668
9.521,64.0999,-0.009668
9.537,64.0999,-0.010876
9.553,64.0999,-0.015710
9.569,64.0999,-0.018127
9.585,64.0999,-0.007251
9.601,64.0999,-0.006042
9.618,64.0999,-0.015710
9.633,64.0999,-0.009668
9.649,64.0999,-0.010876
9.680,64.0999,-0.014501
9.695,64.0999,-0.014501
9.711,64.0999,-0.014501
9.727,64.0999,-0.014501
9.744,64.0999,-0.008459
9.761,64.0999,-0.020544
9.777,64.0999,-0.020544
9.791,64.0999,-0.015710
9.807,64.0999,-0.015710
9.823,64.0999,-0.010876
9.839,64.0999,-0.009668
9.855,64.0999,-0.010876
9.871,64.0999,-0.009668
9.887,64.0999,-0.012084
9.903,64.0999,-0.010876
9.919,64.0999,-0.012084
9.935,64.0999,-0.012084
9.951,64.0999,-0.012084
9.967,64.0999,-0.013293
9.983,64.0999,-0.012084
9.999,64.0999,-0.012084
10.015,64.0999,-0.013293
10.031,64.0999,-0.006042
10.048,64.0999,-0.015710
10.063,64.0999,-0.006042
10.079,64.0999,-0.007251
10.095,64.0999,-0.013293
10.112,64.0999,-0.015710
10.129,64.0999,-0.016918
10.145,64.0999,-0.016918
10.158,64.0999,-0.014501
10.177,64.0999,-0.014501
10.191,64.0999,-0.010876
10.208,64.0999,-0.013293
10.235,64.0999,-0.016918
10.253,64.0999,-0.013293
10.268,64.0999,-0.014501
10.284,64.0999,-0.014501
10.301,64.0999,-0.009668
10.317,64.0999,-0.012084
10.334,64.0999,-0.012084
10.348,64.0999,-0.014501
10.363,64.0999,-0.012084
10.381,64.0999,-0.008459
10.395,64.0999,-0.008459
10.411,64.0999,-0.006042
10.427,64.0999,-0.009668
10.443,64.0999,-0.015710
10.459,64.0999,-0.010876
10.476,64.0999,-0.009668
10.492,64.0999,-0.009668
10.507,64.0999,-0.007251
10.523,64.0999,-0.009668
10.540,64.0999,-0.010876
10.556,64.0999,-0.014501
10.571,64.0999,-0.007251
10.587,64.0999,-0.010876
10.604,64.0999,-0.013293
10.619,64.0999,-0.013293
10.635,64.0999,-0.009668
10.656,64.0999,-0.012084
10.668,64.0999,-0.009668
10.684,64.0999,-0.009668
10.699,64.0999,-0.013293
10.716,64.0999,-0.014501
10.732,64.0999,-0.013293
10.749,64.0999,-0.013293
10.775,64.0999,-0.013293
10.789,64.0999,-0.009668
10.806,64.0999,-0.012084
10.821,64.0999,-0.009668
10.840,64.0999,-0.013293
10.853,64.0999,-0.013293
10.869,64.0999,-0.009668
10.885,64.0999,-0.013293
10.908,64.0999,-0.010876
10.925,64.0999,-0.014501
10.940,64.0999,-0.013293
10.955,64.0999,-0.009668
10.966,64.0999,-0.013293
10.981,64.0999,-0.016918
10.997,64.0999,-0.010876
11.014,64.0999,-0.010876
11.029,64.0999,-0.010876
11.045,64.0999,-0.010876
11.062,64.0999,-0.009668
11.078,64.0999,-0.003625
11.094,64.0999,-0.009668
11.109,64.0999,-0.010876
11.127,64.0177,0.002417
11.141,63.8521,0.059214
11.157,63.6614,-0.006042
11.173,63.4730,0.048338
11.194,63.2174,0.048338
11.206,63.0829,0.078549
11.221,62.8886,0.105135
11.237,62.7036,0.125679
11.253,62.5057,0.125679
11.270,62.3114,0.166766
11.286,62.1205,0.174016
11.301,61.9380,0.183684
11.318,61.7365,0.172808
11.333,61.5494,0.118428
11.349,61.3621,0.058005
11.365,61.1677,0.003625
11.383,60.9481,0.006042
11.398,60.7705,-0.003625
11.413,60.5917,-0.001208
11.429,60.4021,0.000000
11.446,60.2041,0.000000
11.461,60.0180,-0.001208
11.476,59.8261,0.001208
11.493,59.6341,-0.001208
11.509,59.4410,-0.007251
11.525,59.2441,0.000000
11.541,59.0593,-0.001208
11.557,58.8625,0.000000
11.573,58.6741,0.002417
11.589,58.4785,0.002417
11.605,58.2901,-0.004834
11.623,58.0804,-0.008459
11.638,58.0499,-0.095467
11.654,58.0499,0.000000
11.669,58.0499,-0.003625
11.685,58.0499,-0.007251
11.701,58.0499,0.007251
11.718,58.0499,0.003625
11.733,58.0499,0.003625
11.750,58.0499,-0.001208
11.765,58.0499,-0.003625
11.781,58.0499,0.000000
11.797,58.0499,0.002417
11.814,58.0499,0.002417
11.829,58.0499,-0.003625
11.845,58.0499,-0.006042
11.868,58.0499,-0.002417
11.884,58.1273,-0.042296
11.900,58.3169,-0.010876
11.916,58.5030,-0.001208
11.932,58.6973,0.007251
11.948,58.8941,0.012084
11.964,59.0789,-0.010876
11.981,59.2866,0.003625
11.997,59.4725,-0.012084
12.013,59.6741,0.003625
12.028,59.8458,-0.001208
12.044,60.0450,-0.001208
12.060,60.2381,0.000000
12.076,60.4217,0.000000
12.092,60.6245,-0.008459
12.108,60.8057,0.003625
12.124,61.0001,-0.004834
12.140,61.1909,0.000000
12.156,61.3925,-0.003625
12.173,61.5905,-0.004834
12.189,61.7766,-0.006042
12.204,61.9565,-0.012084
12.221,62.1689,-0.006042
12.236,62.3549,-0.004834
12.252,62.5373,-0.008459
12.267,62.7257,-0.013293
12.286,62.9393,-0.016918
12.301,63.1230,-0.024169
12.316,63.3078,-0.027794
12.332,63.4926,-0.027794
12.349,63.7049,-0.030211
12.365,63.8922,-0.031420
12.383,64.0491,0.001208
12.406,64.0499,-0.035045
12.422,64.0499,-0.045921
12.438,64.0499,-0.029003
12.454,64.0499,-0.030211
12.471,64.0499,-0.039879
12.487,64.0499,-0.038670
12.502,64.0499,-0.042296
12.517,64.0499,-0.031420
12.536,64.0499,-0.031420
12.550,64.0499,-0.031420
12.567,64.0499,-0.033837
12.582,64.0499,-0.026586
12.598,64.0499,-0.027794
12.615,64.0499,-0.024169
12.629,64.0499,-0.024169
12.646,64.0499,-0.025377
12.662,64.0499,-0.035045
12.678,64.0499,-0.031420
12.693,64.0499,-0.025377
12.709,64.0499,-0.022961
12.726,64.0499,-0.022961
12.742,64.0499,-0.024169
12.757,64.0499,-0.030211
12.776,64.0499,-0.027794
12.794,64.0499,-0.019335
12.806,64.0499,-0.019335
12.822,64.0499,-0.021752
12.839,64.0499,-0.021752
12.854,64.0499,-0.016918
12.871,64.0499,-0.020544
12.885,64.0499,-0.026586
12.902,64.0499,-0.025377
12.919,64.0499,-0.020544
12.934,64.0499,-0.016918
12.949,64.0499,-0.027794
12.977,64.0499,-0.030211
12.993,64.0499,-0.022961
13.008,64.0499,-0.016918
13.024,64.0499,-0.025377
13.040,64.0499,-0.019335
13.057,64.0499,-0.020544
13.073,64.0499,-0.016918
13.088,64.0499,-0.024169
13.104,64.0499,-0.015710
13.121,64.0499,-0.018127
13.136,64.0499,-0.020544
13.154,64.0499,-0.020544
13.170,64.0499,-0.022961
13.187,64.0499,-0.016918
13.200,64.0499,-0.020544
13.216,64.0499,-0.019335
13.233,64.0499,-0.022961
13.248,64.0499,-0.020544
13.264,64.0499,-0.020544
13.281,64.0499,-0.018127
13.297,64.0499,-0.018127
13.314,64.0499,-0.018127
13.328,64.0499,-0.025377
13.345,64.0499,-0.014501
13.360,64.0499,-0.021752
13.376,64.0499,-0.021752
13.394,64.0499,-0.018127
13.409,64.0499,-0.018127
13.424,64.0499,-0.018127
13.440,64.0499,-0.020544
13.458,64.0499,-0.021752
13.473,64.0499,-0.016918
13.489,64.0499,-0.018127
13.504,64.0499,-0.014501
13.520,64.0499,-0.018127
13.536,64.0499,-0.020544
13.553,64.0499,-0.021752
13.568,64.0499,-0.013293
13.586,64.0499,-0.013293
13.601,64.0499,-0.015710
13.616,64.0499,-0.018127
13.632,64.0499,-0.016918
13.649,64.0499,-0.022961
13.665,64.0499,-0.018127
13.680,64.0499,-0.013293
13.696,64.0499,-0.013293
13.712,64.0499,-0.021752
13.728,64.0499,-0.014501
13.744,64.0499,-0.014501
13.760,64.0499,-0.018127
13.778,64.0499,-0.019335
13.795,64.0499,-0.019335
13.809,64.0499,-0.016918
13.824,64.0499,-0.025377
13.840,64.0499,-0.021752
13.856,64.0499,-0.015710
13.877,64.0499,-0.012084
13.890,64.0499,-0.019335
13.906,64.0499,-0.019335
13.920,64.0499,-0.021752
13.937,64.0499,-0.020544
13.953,64.0499,-0.018127
13.969,64.0499,-0.009668
13.984,64.0499,-0.009668
14.006,64.0499,-0.016918
14.016,64.0499,-0.019335
14.032,64.0499,-0.025377
14.048,64.0499,-0.013293
14.071,64.0499,-0.013293
14.087,64.0499,-0.014501
14.103,64.0499,-0.015710
14.119,64.0499,-0.018127
14.136,64.0499,-0.016918
14.152,64.0499,-0.013293
14.167,64.0499,-0.012084
14.183,64.0499,-0.014501
14.201,64.0499,-0.012084
14.215,64.0499,-0.013293
14.231,64.0499,-0.016918
14.247,64.0499,-0.018127
14.263,64.0499,-0.018127
14.279,64.0499,-0.012084
14.295,64.0499,-0.010876
14.310,64.0499,-0.016918
14.327,64.0499,-0.008459
14.343,64.0499,-0.008459
14.359,64.0499,-0.010876
14.375,64.0499,-0.013293
14.391,64.0499,-0.018127
14.407,64.0499,-0.019335
14.422,64.0499,-0.019335
14.440,64.0499,-0.009668
14.455,64.0499,-0.015710
14.471,64.0499,-0.010876
14.487,64.0499,-0.014501
14.504,64.0499,-0.013293
14.519,64.0499,-0.020544
14.535,64.0499,-0.020544
14.551,64.0499,-0.013293
14.568,64.0499,-0.016918
14.584,64.0499,-0.013293
14.600,64.0499,-0.014501
14.615,64.0499,-0.010876
14.631,64.0499,-0.010876
14.647,64.0499,-0.010876
14.663,64.0499,-0.018127
14.678,64.0499,-0.013293
14.696,64.0499,-0.013293
14.710,64.0499,-0.013293
14.730,64.0499,-0.013293
14.742,64.0499,-0.014501
14.759,64.0499,-0.018127
14.774,64.0499,-0.018127
14.791,64.0499,-0.014501
14.806,64.0499,-0.012084
14.822,64.0499,-0.013293
14.838,64.0499,-0.008459
14.854,64.0499,-0.008459
14.871,64.0499,-0.015710
14.886,64.0499,-0.012084
14.903,64.0499,-0.013293
14.918,64.0499,-0.018127
14.934,64.0499,-0.015710
14.951,64.0499,-0.014501
14.967,64.0499,-0.016918
14.983,64.0499,-0.013293
15.003,64.0499,-0.014501
15.015,64.0499,-0.014501
15.030,64.0499,-0.013293
15.047,64.0499,-0.010876
15.063,64.0499,-0.014501
15.078,64.0499,-0.015710
15.095,64.0499,-0.015710
15.110,64.0499,-0.016918
15.127,64.0499,-0.009668
15.143,64.0499,-0.009668
15.159,64.0499,-0.012084
15.186,64.0499,-0.014501
15.202,64.0499,-0.013293
15.218,64.0499,-0.012084
15.234,64.0499,-0.009668
15.252,64.0499,-0.008459
15.268,64.0499,-0.015710
15.285,64.0499,-0.015710
15.298,64.0499,-0.016918
15.314,64.0499,-0.016918
15.330,64.0499,-0.020544
15.346,64.0499,-0.020544
15.362,64.0499,-0.014501
15.379,64.0499,-0.014501
15.394,64.0499,-0.015710
15.410,64.0499,-0.018127
15.426,64.0499,-0.015710
15.443,64.0499,-0.009668
15.459,64.0499,-0.015710
15.474,64.0499,-0.014501
15.493,64.0499,-0.019335
15.507,64.0499,-0.019335
15.522,64.0499,-0.021752
15.538,64.0499,-0.016918
15.555,64.0499,-0.015710
15.572,64.0499,-0.019335
15.587,64.0499,-0.009668
15.602,64.0499,-0.015710
15.620,64.0499,-0.012084
15.635,64.0499,-0.018127
15.651,64.0499,-0.019335
15.666,64.0499,-0.015710
15.683,64.0499,-0.020544
15.698,64.0499,-0.012084
15.715,64.0499,-0.016918
15.743,64.0499,-0.010876
15.757,64.0499,-0.008459
15.773,64.0499,-0.016918
15.789,64.0499,-0.012084
15.808,64.0499,-0.010876
15.821,64.0499,-0.015710
15.837,64.0499,-0.013293
15.853,64.0499,-0.013293
15.870,64.0499,-0.018127
15.886,64.0499,-0.014501
15.904,64.0499,-0.014501
15.917,64.0499,-0.013293
15.933,64.0499,-0.013293
15.949,64.0499,-0.015710
15.965,64.0499,-0.015710
15.981,64.0499,-0.009668
15.997,64.0499,-0.016918
16.013,64.0499,-0.016918
16.029,64.0499,-0.007251
16.045,64.0499,-0.007251
16.061,64.0499,-0.009668
16.077,64.0499,-0.012084
16.093,64.0499,-0.012084
16.109,64.0499,-0.012084
16.125,64.0499,-0.018127
16.141,64.0499,-0.010876
16.157,64.0499,-0.013293
16.173,64.0499,-0.013293
16.191,64.0499,-0.013293
16.205,64.0499,-0.015710
16.222,64.0499,-0.021752
16.238,64.0499,-0.008459
16.255,64.0499,-0.010876
16.279,64.0499,-0.014501
16.295,64.0499,-0.018127
16.311,64.0499,-0.015710
16.327,64.0499,-0.013293
16.344,64.0499,-0.013293
16.359,64.0499,-0.019335
16.376,64.0499,-0.019335
16.391,64.0499,-0.009668
16.407,64.0499,-0.014501
16.423,64.0499,-0.014501
16.439,64.0499,-0.015710
16.456,64.0499,-0.015710
16.471,64.0499,-0.008459
16.487,64.0499,-0.007251
16.503,64.0499,-0.014501
16.519,64.0499,-0.018127
16.535,64.0499,-0.026586
16.551,64.0499,-0.015710
16.567,64.0499,-0.013293
16.583,64.0499,-0.013293
16.599,64.0499,-0.008459
16.616,64.0499,-0.014501
16.632,64.0499,-0.014501
16.647,64.0499,-0.020544
16.663,64.0499,-0.021752
16.680,64.0499,-0.020544
16.695,64.0499,-0.018127
16.711,64.0499,-0.012084
16.728,64.0499,-0.012084
16.743,64.0499,-0.012084
16.759,64.0499,-0.010876
16.775,64.0499,-0.012084
16.790,64.0499,-0.015710
16.807,64.0499,-0.018127
16.822,64.0499,-0.016918
16.839,64.0499,-0.014501
16.856,64.0499,-0.014501
16.871,64.0499,-0.019335
16.886,64.0499,-0.018127
16.903,64.0499,-0.018127
16.919,64.0499,-0.014501
16.936,64.0499,-0.014501
16.950,64.0499,-0.013293
16.967,64.0499,-0.013293
16.984,64.0499,-0.014501
16.999,64.0499,-0.014501
17.015,64.0499,-0.014501
17.030,64.0499,-0.019335
17.046,64.0499,-0.012084
17.062,64.0499,-0.010876
17.078,64.0499,-0.014501
17.102,64.0499,-0.014501
17.113,64.0499,-0.015710
17.127,64.0499,-0.013293
17.143,64.0499,-0.013293
17.159,64.0499,-0.013293
17.175,64.0499,-0.010876
17.190,64.0499,-0.009668
17.206,64.0499,-0.014501
17.223,64.0499,-0.015710
17.239,64.0499,-0.015710
17.254,64.0499,-0.015710
17.270,64.0499,-0.008459
17.288,64.0499,-0.006042
17.303,64.0499,-0.007251
17.320,64.0499,-0.009668
17.344,64.0499,-0.012084
17.360,64.0499,-0.015710
17.376,64.0499,-0.013293
17.391,64.0499,-0.015710
17.409,64.0499,-0.012084
17.425,64.0499,-0.012084
17.442,64.0499,-0.012084
17.456,64.0499,-0.013293
17.474,64.0499,-0.013293
17.490,64.0499,-0.015710
17.504,64.0499,-0.012084
17.520,64.0499,-0.013293
17.537,64.0499,-0.014501
17.553,64.0499,-0.014501
17.569,64.0499,-0.021752
17.584,64.0499,-0.018127
17.600,64.0499,-0.013293
17.617,64.0499,-0.010876
17.632,64.0499,-0.012084
17.651,64.0499,-0.015710
17.664,64.0499,-0.010876
17.680,64.0499,-0.018127
17.696,64.0499,-0.019335
17.714,64.0499,-0.016918
17.728,64.0499,-0.016918
17.744,64.0499,-0.010876
17.760,64.0499,-0.010876
17.778,64.0499,-0.016918
17.793,64.0499,-0.012084
17.811,64.0499,-0.013293
17.824,64.0499,-0.010876
17.841,64.0499,-0.015710
17.856,64.0499,-0.016918
17.873,64.0499,-0.007251
17.897,64.0499,-0.008459
17.913,64.0499,-0.010876
17.930,64.0499,-0.009668
17.945,64.0499,-0.013293
17.963,64.0499,-0.013293
17.979,64.0499,-0.009668
17.993,64.0499,-0.009668
18.009,64.0499,-0.014501
18.027,64.0499,-0.014501
18.041,64.0499,-0.012084
18.057,64.0499,-0.014501
18.073,64.0499,-0.014501
18.089,64.0499,-0.016918
18.105,64.0499,-0.010876
18.121,64.0499,-0.012084
18.136,64.0499,-0.013293
18.153,64.0499,-0.009668
18.169,64.0499,-0.008459
18.185,64.0499,-0.012084
18.202,64.0499,-0.012084
18.218,64.0499,-0.015710
18.233,64.0499,-0.015710
18.249,64.0499,-0.016918
18.265,64.0499,-0.016918
18.281,64.0499,-0.014501
18.297,64.0499,-0.010876
18.313,64.0499,-0.010876
18.330,64.0499,-0.014501
18.344,64.0499,-0.014501
18.361,64.0499,-0.010876
18.377,64.0499,-0.013293
18.393,64.0499,-0.012084
18.412,64.0499,-0.021752
18.436,64.0499,-0.013293
18.452,64.0499,-0.015710
18.468,64.0499,-0.015710
18.484,64.0499,-0.015710
18.501,64.0499,-0.009668
18.516,64.0499,-0.016918
18.532,64.0499,-0.012084
18.548,64.0499,-0.007251
18.565,64.0499,-0.007251
18.580,64.0499,-0.014501
18.596,64.0499,-0.014501
18.612,64.0499,-0.012084
18.628,64.0499,-0.009668
18.645,64.0499,-0.015710
18.663,64.0499,-0.015710
18.676,64.0499,-0.013293
18.692,64.0499,-0.012084
18.708,64.0499,-0.015710
18.724,64.0499,-0.015710
18.740,64.0499,-0.015710
18.755,64.0499,-0.014501
18.772,64.0499,-0.015710
18.787,64.0499,-0.004834
18.803,64.0499,-0.006042
18.819,64.0499,-0.015710
18.835,64.0499,-0.013293
18.852,64.0499,-0.015710
18.868,64.0499,-0.012084
18.884,64.0499,-0.009668
18.899,64.0499,-0.014501
18.915,64.0499,-0.016918
18.931,64.0499,-0.014501
18.947,64.0499,-0.013293
18.963,64.0499,-0.014501
18.993,64.0499,-0.015710
19.009,64.0499,-0.008459
19.025,64.0499,-0.009668
19.041,64.0499,-0.015710
19.058,64.0499,-0.010876
19.073,64.0499,-0.015710
19.091,64.0499,-0.015710
19.105,64.0499,-0.018127
19.123,64.0499,-0.018127
19.137,64.0499,-0.013293
19.154,64.0499,-0.013293
19.169,64.0499,-0.012084
19.186,64.0499,-0.013293
19.202,64.0499,-0.013293
19.217,64.0499,-0.015710
19.234,64.0499,-0.015710
19.253,64.0499,-0.019335
19.266,64.0499,-0.015710
19.281,64.0499,-0.014501
19.298,64.0499,-0.012084
19.313,64.0499,-0.012084
19.329,64.0499,-0.014501
19.345,64.0499,-0.007251
19.362,64.0499,-0.007251
19.377,64.0499,-0.010876
19.394,64.0499,-0.013293
19.409,64.0499,-0.013293
19.428,64.0499,-0.010876
19.442,64.0499,-0.008459
19.457,64.0499,-0.012084
19.473,64.0499,-0.012084
19.492,64.0499,-0.009668
19.507,64.0499,-0.019335
19.521,64.0499,-0.013293
19.537,64.0499,-0.012084
19.560,64.0499,-0.013293
19.575,64.0499,-0.013293
19.591,64.0499,-0.006042
19.607,64.0499,-0.018127
19.625,64.0499,-0.018127
19.641,64.0499,-0.016918
19.656,64.0499,-0.008459
19.671,64.0499,-0.004834
19.689,64.0499,-0.012084
19.703,64.0499,-0.015710
19.720,64.0499,-0.018127
19.735,64.0499,-0.012084
19.754,64.0499,-0.010876
19.767,64.0499,-0.009668
19.783,64.0499,-0.012084
19.801,64.0499,-0.010876
19.815,64.0499,-0.010876
19.835,64.0499,-0.010876
19.847,64.0499,-0.009668
19.864,64.0499,-0.009668
19.879,64.0499,-0.012084
19.895,64.0499,-0.012084
19.911,64.0499,-0.014501
19.927,64.0499,-0.013293
19.943,64.0499,-0.018127
19.959,64.0499,-0.012084
19.976,64.0499,-0.013293
19.992,64.0499,-0.013293
20.009,64.0499,-0.006042
20.023,64.0499,-0.012084
20.040,64.0499,-0.014501
20.055,64.0499,-0.014501
20.071,64.0499,-0.014501
20.103,64.0499,-0.016918
20.118,64.0499,-0.018127
20.134,64.0499,-0.004834
20.150,64.0499,-0.002417
20.168,64.0499,-0.013293
20.182,64.0499,-0.009668
20.198,64.0499,-0.016918
20.214,64.0499,-0.010876
20.233,64.0499,-0.007251
20.246,64.0499,-0.009668
20.263,64.0499,-0.009668
20.277,64.0499,-0.013293
20.295,64.0499,-0.010876
20.310,64.0499,-0.013293
20.327,64.0499,-0.016918
20.342,64.0499,-0.012084
20.359,64.0499,-0.010876
20.374,64.0499,-0.006042
20.390,64.0499,-0.015710
20.407,64.0499,-0.013293
20.422,64.0499,-0.015710
20.438,64.0499,-0.008459
20.454,64.0499,-0.008459
20.474,64.0499,-0.009668
20.487,64.0499,-0.015710
20.502,64.0499,-0.013293
20.521,64.0499,-0.013293
20.534,64.0499,-0.013293
20.551,64.0499,-0.013293
20.566,64.0499,-0.007251
20.582,64.0499,-0.014501
20.599,64.0499,-0.016918
20.615,64.0499,-0.013293
20.629,64.0499,-0.009668
20.661,64.0499,-0.014501
20.677,64.0499,-0.008459
20.693,64.0499,-0.010876
20.709,64.0499,-0.004834
20.726,64.0499,-0.004834
20.742,64.0499,-0.013293
20.758,64.0499,-0.014501
20.773,64.0499,-0.015710
20.791,64.0499,-0.008459
20.805,64.0499,-0.012084
20.822,64.0499,-0.018127
20.837,64.0499,-0.015710
20.853,64.0499,-0.014501
20.869,64.0499,-0.012084
20.884,64.0499,-0.010876
20.902,64.0499,-0.012084
20.917,64.0499,-0.008459
20.936,64.0499,-0.012084
20.948,64.0499,-0.010876
20.965,64.0499,-0.010876
20.981,64.0499,-0.014501
20.997,64.0499,-0.018127
21.012,64.0499,-0.012084
21.028,64.0499,-0.013293
21.044,64.0499,-0.013293
21.061,64.0499,-0.010876
21.077,64.0499,-0.013293
21.092,64.0499,-0.013293
21.108,64.0499,-0.015710
21.124,64.0499,-0.008459
21.142,64.0499,-0.015710
21.157,64.0499,-0.012084
21.172,64.0499,-0.012084
21.188,64.0499,-0.013293
21.204,64.0499,-0.013293
21.220,64.0499,-0.006042
21.236,64.0499,-0.007251
21.252,64.0499,-0.007251
21.269,64.0499,-0.007251
21.285,64.0499,-0.010876
21.301,64.0499,-0.014501
21.317,64.0499,-0.009668
21.336,64.0499,-0.012084
21.348,64.0499,-0.009668
21.364,64.0499,-0.013293
21.379,64.0499,-0.012084
21.397,64.0499,-0.010876
21.413,64.0499,-0.008459
21.431,64.0499,-0.007251
21.444,64.0499,-0.016918
21.461,64.0499,-0.014501
21.477,64.0499,-0.014501
21.495,64.0499,-0.010876
21.508,64.0499,-0.012084
21.524,64.0499,-0.016918
21.540,64.0499,-0.014501
21.556,64.0499,-0.014501
21.572,64.0499,-0.010876
21.589,64.0499,-0.012084
21.606,64.0499,-0.009668
21.623,64.0499,-0.009668
21.637,64.0499,-0.018127
21.652,64.0499,-0.018127
21.670,64.0499,-0.012084
21.684,64.0499,-0.010876
21.700,64.0499,-0.001208
21.716,64.0499,-0.007251
21.732,64.0499,-0.010876
21.757,64.0499,-0.013293
21.771,64.0499,-0.013293
21.788,64.0499,-0.013293
21.802,64.0499,-0.014501
21.820,64.0499,-0.007251
21.835,64.0499,-0.018127
21.853,64.0499,-0.018127
21.867,64.0499,-0.015710
21.883,64.0499,-0.006042
21.900,64.0499,-0.015710
21.915,64.0499,-0.015710
21.935,64.0499,-0.015710
21.947,64.0499,-0.009668
21.963,64.0499,-0.010876
21.979,64.0499,-0.010876
21.997,64.0499,-0.012084
22.012,64.0499,-0.012084
22.028,64.0499,-0.013293
22.043,64.0499,-0.015710
22.060,64.0499,-0.010876
22.076,64.0499,-0.010876
22.094,64.0499,-0.010876
22.107,64.0499,-0.013293
22.125,64.0499,-0.013293
22.140,64.0499,-0.015710
22.155,64.0499,-0.013293
22.171,64.0499,-0.015710
22.187,64.0499,-0.003625
22.203,64.0499,-0.003625
22.219,64.0499,-0.010876
22.236,64.0499,-0.010876
22.251,64.0499,-0.009668
22.267,64.0499,-0.015710
22.299,64.0499,-0.012084
22.314,64.0499,-0.012084
22.330,64.0499,-0.020544
22.346,64.0499,-0.020544
22.368,64.0499,-0.014501
22.379,64.0499,-0.012084
22.394,64.0499,-0.012084
22.410,64.0499,-0.008459
22.427,64.0499,-0.010876
22.442,64.0499,-0.016918
22.459,64.0499,-0.012084
22.474,64.0499,-0.008459
22.494,64.0499,-0.012084
22.506,64.0499,-0.012084
22.522,64.0499,-0.008459
22.538,64.0499,-0.015710
22.555,64.0499,-0.015710
22.570,64.0499,-0.008459
22.587,64.0499,-0.008459
22.602,64.0499,-0.008459
22.618,64.0499,-0.007251
22.634,64.0499,-0.007251
22.650,64.0499,-0.008459
22.666,64.0499,-0.015710
22.682,64.0499,-0.020544
22.698,64.0499,-0.012084
22.714,64.0499,-0.012084
22.730,64.0499,-0.014501
22.746,64.0499,-0.014501
22.762,64.0499,-0.010876
22.778,64.0499,-0.012084
22.794,64.0499,-0.012084
22.811,64.0499,-0.014501
22.827,64.0499,-0.009668
22.842,64.0499,-0.013293
22.858,64.0499,-0.010876
22.874,64.0499,-0.014501
22.890,64.0499,-0.014501
22.906,64.0499,-0.012084
22.924,64.0499,-0.012084
22.938,64.0499,-0.014501
22.957,64.0499,-0.014501
22.970,64.0499,-0.007251
22.988,64.0499,-0.007251
23.003,64.0499,-0.018127
23.019,64.0499,-0.012084
23.034,64.0499,-0.012084
23.051,64.0499,-0.014501
23.066,64.0499,-0.009668
23.081,64.0499,-0.012084
23.098,64.0499,-0.010876
23.114,64.0499,-0.010876
23.130,64.0499,-0.007251
23.146,64.0499,-0.007251
23.162,64.0499,-0.010876
23.177,64.0499,-0.014501
23.193,64.0499,-0.015710
23.213,64.0499,-0.010876
23.225,64.0499,-0.012084
23.242,64.0499,-0.012084
23.257,64.0499,-0.013293
23.282,64.0499,-0.008459
23.302,64.0499,-0.007251
23.321,64.0499,-0.009668
23.339,64.0499,-0.014501
23.354,64.0499,-0.008459
23.370,64.0499,-0.014501
23.400,64.0499,-0.013293
23.416,64.0499,-0.009668
23.432,64.0499,-0.009668
23.447,64.0499,-0.013293
23.464,64.0499,-0.015710
23.480,64.0499,-0.008459
23.495,64.0499,-0.016918
23.511,64.0499,-0.007251
23.528,64.0499,-0.014501
23.544,64.0499,-0.012084
23.561,64.0499,-0.012084
23.575,64.0499,-0.012084
23.592,64.0499,-0.018127
23.608,64.0499,-0.016918
23.623,64.0499,-0.004834
23.639,64.0499,-0.008459
23.656,64.0499,-0.008459
23.672,64.0499,-0.010876
23.687,64.0499,-0.008459
23.704,64.0499,-0.004834
23.720,64.0499,-0.006042
23.735,64.0499,-0.010876
23.752,64.0499,-0.010876
23.769,64.0499,-0.007251
23.785,64.0499,-0.004834
23.801,64.0499,-0.008459
23.816,64.0499,-0.015710
23.832,64.0499,-0.008459
23.848,64.0499,-0.009668
23.864,64.0409,-0.008459
23.880,63.8793,0.051963
23.896,63.6869,-0.002417
23.911,63.5078,0.021752
23.928,63.2997,0.051963
23.944,63.1109,0.080966
23.959,62.9222,0.100301
23.975,62.7322,0.100301
23.991,62.5362,0.136555
24.008,62.3365,0.164349
24.023,62.1429,0.166766
24.039,61.9590,0.183684
24.055,61.7582,0.183684
24.072,61.5646,0.152264
24.087,61.3710,0.083383
24.103,61.1846,0.009668
24.122,60.9571,0.001208
24.135,60.7926,0.003625
24.151,60.5954,0.001208
24.167,60.4102,0.002417
24.184,60.1973,0.009668
24.200,60.0061,-0.003625
24.215,59.8258,-0.002417
24.231,59.6370,0.006042
24.248,59.4314,-0.004834
24.264,59.2366,-0.004834
24.279,59.0502,-0.004834
24.295,58.8566,-0.006042
24.312,58.6509,0.000000
24.327,58.4706,-0.002417
24.343,58.2734,-0.002417
24.359,58.0870,-0.006042
24.376,57.9999,-0.006042
24.392,57.9999,0.000000
24.407,57.9999,0.000000
24.423,57.9999,-0.009668
24.448,57.9999,-0.016918
24.463,57.9999,-0.001208
24.479,57.9999,-0.003625
24.495,57.9999,-0.001208
24.512,57.9999,0.001208
24.527,57.9999,0.004834
24.543,57.9999,-0.004834
24.559,57.9999,0.003625
24.576,57.9999,-0.003625
24.594,57.9999,-0.001208
24.607,58.0299,-0.071298
24.623,58.2165,-0.071298
24.640,58.4090,-0.006042
24.655,58.6013,-0.006042
24.671,58.7865,-0.014501
24.687,58.9849,-0.012084
24.703,59.1821,0.001208
24.719,59.3673,-0.007251
24.735,59.5717,0.008459
24.751,59.7568,-0.003625
24.767,59.9481,-0.006042
24.783,60.1417,-0.006042
24.800,60.3522,-0.001208
24.815,60.5288,-0.001208
24.831,60.7224,-0.008459
24.847,60.9149,-0.008459
24.863,61.1096,-0.007251
24.879,61.3092,-0.010876
24.895,61.4944,-0.012084
24.911,61.6880,0.003625
24.928,61.8997,-0.007251
24.944,62.0910,0.001208
24.963,62.3184,-0.004834
24.987,62.6173,-0.015710
25.003,62.8036,-0.009668
25.019,63.0033,-0.020544
25.035,63.1885,-0.020544
25.052,63.3941,-0.016918
25.068,63.5913,-0.015710
25.086,63.8092,-0.035045
25.099,63.9584,-0.026586
25.115,63.9999,-0.026586
25.131,63.9999,-0.056797
25.147,63.9999,-0.038670
25.170,63.9999,-0.038670
25.181,63.9999,-0.033837
25.196,63.9999,-0.042296
25.211,63.9999,-0.027794
25.227,63.9999,-0.038670
25.243,63.9999,-0.029003
25.258,63.9999,-0.033837
25.275,63.9999,-0.033837
25.292,63.9999,-0.041087
25.307,63.9999,-0.027794
25.322,63.9999,-0.041087
25.338,63.9999,-0.027794
25.355,63.9999,-0.027794
25.371,63.9999,-0.024169
25.386,63.9999,-0.019335
25.403,63.9999,-0.024169
25.419,63.9999,-0.026586
25.434,63.9999,-0.026586
25.451,63.9999,-0.025377
25.467,63.9999,-0.026586
25.483,63.9999,-0.026586
25.499,63.9999,-0.022961
25.515,63.9999,-0.014501
25.530,63.9999,-0.020544
25.547,63.9999,-0.020544
25.562,63.9999,-0.026586
25.578,63.9999,-0.020544
25.595,63.9999,-0.020544
25.610,63.9999,-0.019335
25.626,63.9999,-0.026586
25.646,63.9999,-0.026586
25.659,63.9999,-0.021752
25.675,63.9999,-0.020544
25.690,63.9999,-0.024169
25.707,63.9999,-0.019335
25.723,63.9999,-0.018127
25.739,63.9999,-0.021752
25.754,63.9999,-0.021752
25.772,63.9999,-0.024169
25.788,63.9999,-0.024169
25.805,63.9999,-0.020544
25.818,63.9999,-0.022961
25.835,63.9999,-0.018127
25.850,63.9999,-0.009668
25.866,63.9999,-0.020544
25.883,63.9999,-0.019335
25.898,63.9999,-0.022961
25.915,63.9999,-0.018127
25.930,63.9999,-0.022961
25.948,63.9999,-0.024169
25.962,63.9999,-0.018127
25.979,63.9999,-0.019335
25.994,63.9999,-0.019335
26.012,63.9999,-0.019335
26.027,63.9999,-0.021752
26.043,63.9999,-0.021752
26.074,63.9999,-0.014501
26.089,63.9999,-0.014501
26.106,63.9999,-0.018127
26.121,63.9999,-0.020544
26.138,63.9999,-0.022961
26.154,63.9999,-0.018127
26.171,63.9999,-0.018127
26.185,63.9999,-0.016918
26.202,63.9999,-0.016918
26.218,63.9999,-0.016918
26.233,63.9999,-0.016918
26.249,63.9999,-0.022961
26.267,63.9999,-0.020544
26.282,63.9999,-0.021752
26.297,63.9999,-0.020544
26.314,63.9999,-0.020544
26.329,63.9999,-0.019335
26.345,63.9999,-0.016918
26.361,63.9999,-0.016918
26.382,63.9999,-0.012084
26.393,63.9999,-0.015710
26.410,63.9999,-0.016918
26.425,63.9999,-0.016918
26.441,63.9999,-0.020544
26.457,63.9999,-0.018127
26.474,63.9999,-0.015710
26.489,63.9999,-0.019335
26.506,63.9999,-0.016918
26.521,63.9999,-0.013293
26.537,63.9999,-0.009668
26.554,63.9999,-0.009668
26.570,63.9999,-0.016918
26.587,63.9999,-0.020544
26.611,63.9999,-0.015710
26.627,63.9999,-0.014501
26.643,63.9999,-0.015710
26.659,63.9999,-0.013293
26.675,63.9999,-0.016918
26.692,63.9999,-0.014501
26.707,63.9999,-0.013293
26.723,63.9999,-0.024169
26.741,63.9999,-0.020544
26.756,63.9999,-0.020544
26.774,63.9999,-0.020544
26.788,63.9999,-0.010876
26.803,63.9999,-0.010876
26.819,63.9999,-0.012084
26.835,63.9999,-0.012084
26.851,63.9999,-0.016918
26.867,63.9999,-0.015710
26.883,63.9999,-0.015710
26.899,63.9999,-0.012084
26.915,63.9999,-0.013293
26.931,63.9999,-0.015710
26.947,63.9999,-0.012084
26.963,63.9999,-0.015710
26.980,63.9999,-0.014501
26.997,63.9999,-0.012084
27.011,63.9999,-0.016918
27.027,63.9999,-0.021752
27.043,63.9999,-0.015710
27.059,63.9999,-0.013293
27.075,63.9999,-0.018127
27.091,63.9999,-0.014501
27.109,63.9999,-0.010876
27.133,63.9999,-0.016918
27.149,63.9999,-0.014501
27.165,63.9999,-0.014501
27.181,63.9999,-0.019335
27.197,63.9999,-0.013293
27.213,63.9999,-0.013293
27.229,63.9999,-0.015710
27.245,63.9999,-0.019335
27.263,63.9999,-0.016918
27.278,63.9999,-0.015710
27.295,63.9999,-0.015710
27.309,63.9999,-0.015710
27.325,63.9999,-0.012084
27.341,63.9999,-0.015710
27.357,63.9999,-0.018127
27.373,63.9999,-0.020544
27.389,63.9999,-0.013293
27.406,63.9999,-0.015710
27.422,63.9999,-0.012084
27.438,63.9999,-0.019335
27.453,63.9999,-0.016918
27.469,63.9999,-0.014501
27.486,63.9999,-0.013293
27.501,63.9999,-0.015710
27.517,63.9999,-0.014501
27.533,63.9999,-0.016918
27.553,63.9999,-0.015710
27.564,63.9999,-0.016918
27.580,63.9999,-0.015710
27.596,63.9999,-0.018127
27.615,63.9999,-0.018127
27.629,63.9999,-0.014501
27.644,63.9999,-0.014501
27.660,63.9999,-0.013293
27.676,63.9999,-0.019335
27.692,63.9999,-0.019335
27.708,63.9999,-0.019335
27.725,63.9999,-0.019335
27.741,63.9999,-0.016918
27.757,63.9999,-0.012084
27.773,63.9999,-0.012084
27.789,63.9999,-0.008459
27.805,63.9999,-0.008459
27.820,63.9999,-0.015710
27.836,63.9999,-0.010876
27.852,63.9999,-0.008459
27.869,63.9999,-0.013293
27.884,63.9999,-0.014501
27.901,63.9999,-0.018127
27.917,63.9999,-0.015710
27.933,63.9999,-0.019335
27.948,63.9999,-0.016918
27.965,63.9999,-0.015710
27.980,63.9999,-0.018127
27.997,63.9999,-0.019335
28.013,63.9999,-0.016918
28.029,63.9999,-0.019335
28.044,63.9999,-0.015710
28.061,63.9999,-0.013293
28.076,63.9999,-0.018127
28.092,63.9999,-0.015710
28.109,63.9999,-0.019335
28.125,63.9999,-0.015710
28.143,63.9999,-0.015710
28.156,63.9999,-0.014501
28.173,63.9999,-0.014501
28.188,63.9999,-0.018127
28.205,63.9999,-0.019335
28.228,63.9999,-0.015710
28.245,63.9999,-0.012084
28.261,63.9999,-0.010876
28.276,63.9999,-0.010876
28.293,63.9999,-0.014501
28.308,63.9999,-0.015710
28.326,63.9999,-0.015710
28.340,63.9999,-0.013293
28.357,63.9999,-0.013293
28.373,63.9999,-0.015710
28.390,63.9999,-0.020544
28.404,63.9999,-0.019335
28.420,63.9999,-0.021752
28.437,63.9999,-0.009668
28.454,63.9999,-0.013293
28.469,63.9999,-0.013293
28.485,63.9999,-0.010876
28.499,63.9999,-0.012084
28.517,63.9999,-0.012084
28.533,63.9999,-0.010876
28.549,63.9999,-0.019335
28.564,63.9999,-0.014501
28.582,63.9999,-0.016918
28.597,63.9999,-0.016918
28.612,63.9999,-0.015710
28.628,63.9999,-0.016918
28.644,63.9999,-0.016918
28.660,63.9999,-0.016918
28.677,63.9999,-0.014501
28.692,63.9999,-0.014501
28.709,63.9999,-0.009668
28.724,63.9999,-0.009668
28.742,63.9999,-0.010876
28.770,63.9999,-0.015710
28.786,63.9999,-0.015710
28.802,63.9999,-0.013293
28.818,63.9999,-0.015710
28.835,63.9999,-0.015710
28.851,63.9999,-0.018127
28.868,63.9999,-0.018127
28.883,63.9999,-0.021752
28.898,63.9999,-0.012084
28.914,63.9999,-0.015710
28.930,63.9999,-0.008459
28.947,63.9999,-0.009668
28.963,63.9999,-0.013293
28.979,63.9999,-0.016918
28.994,63.9999,-0.015710
29.011,63.9999,-0.018127
29.027,63.9999,-0.015710
29.042,63.9999,-0.013293
29.058,63.9999,-0.012084
29.074,63.9999,-0.013293
29.090,63.9999,-0.015710
29.109,63.9999,-0.018127
29.122,63.9999,-0.019335
29.139,63.9999,-0.014501
29.154,63.9999,-0.012084
29.171,63.9999,-0.007251
29.186,63.9999,-0.007251
29.202,63.9999,-0.014501
29.218,63.9999,-0.014501
29.234,63.9999,-0.014501
29.250,63.9999,-0.009668
29.266,63.9999,-0.009668
29.282,63.9999,-0.013293
29.298,63.9999,-0.013293
29.321,63.9999,-0.015710
29.337,63.9999,-0.014501
29.353,63.9999,-0.013293
29.369,63.9999,-0.013293
29.386,63.9999,-0.013293
29.400,63.9999,-0.015710
29.418,63.9999,-0.013293
29.432,63.9999,-0.019335
29.449,63.9999,-0.014501
29.465,63.9999,-0.010876
29.481,63.9999,-0.016918
29.497,63.9999,-0.019335
29.513,63.9999,-0.013293
29.529,63.9999,-0.015710
29.545,63.9999,-0.014501
29.561,63.9999,-0.015710
29.578,63.9999,-0.014501
29.593,63.9999,-0.016918
29.609,63.9999,-0.018127
29.626,63.9999,-0.018127
29.641,63.9999,-0.007251
29.658,63.9999,-0.013293
29.673,63.9999,-0.013293
29.689,63.9999,-0.008459
29.705,63.9999,-0.008459
29.720,63.9999,-0.012084
29.738,63.9999,-0.015710
29.754,63.9999,-0.015710
29.773,63.9999,-0.019335
29.786,63.9999,-0.015710
29.800,63.9999,-0.021752
29.816,63.9999,-0.015710
29.832,63.9999,-0.015710
29.857,63.9999,-0.016918
29.873,63.9999,-0.018127
29.888,63.9999,-0.009668
29.904,63.9999,-0.015710
29.922,63.9999,-0.015710
29.936,63.9999,-0.018127
29.953,63.9999,-0.010876
29.968,63.9999,-0.013293
29.986,63.9999,-0.013293
30.002,63.9999,-0.019335
30.020,63.9999,-0.013293
30.032,63.9999,-0.013293
30.048,63.9999,-0.013293
30.064,63.9999,-0.013293
30.080,63.9999,-0.019335
30.097,63.9999,-0.020544
30.113,63.9999,-0.013293
30.128,63.9999,-0.015710
30.144,63.9999,-0.006042
30.163,63.9999,-0.006042
30.177,63.9999,-0.014501
30.193,63.9999,-0.018127
30.208,63.9999,-0.015710
30.232,63.9999,-0.014501
30.251,63.9999,-0.012084
30.267,63.9999,-0.019335
30.281,63.9999,-0.012084
30.297,63.9999,-0.016918
30.313,63.9999,-0.012084
30.323,63.9999,-0.012084
30.336,63.9999,-0.014501
30.353,63.9999,-0.014501
30.369,63.9999,-0.008459
30.385,63.9999,-0.012084
30.408,63.9999,-0.012084
30.424,63.9999,-0.012084
30.441,63.9999,-0.012084
30.456,63.9999,-0.009668
30.475,63.9999,-0.006042
30.489,63.9999,-0.019335
30.505,63.9999,-0.018127
30.521,63.9999,-0.012084
30.537,63.9999,-0.014501
30.552,63.9999,-0.014501
30.571,63.9999,-0.014501
30.584,63.9999,-0.009668
30.601,63.9999,-0.013293
30.616,63.9999,-0.008459
30.632,63.9999,-0.013293
30.648,63.9999,-0.009668
30.664,63.9999,-0.006042
30.680,63.9999,-0.014501
30.696,63.9999,-0.020544
30.712,63.9999,-0.018127
30.728,63.9999,-0.010876
30.744,63.9999,-0.010876
30.761,63.9999,-0.012084
30.777,63.9999,-0.012084
30.792,63.9999,-0.012084
30.808,63.9999,-0.012084
30.826,63.9999,-0.012084
30.840,63.9999,-0.010876
30.856,63.9999,-0.009668
30.872,63.9999,-0.014501
30.889,63.9999,-0.015710
30.904,63.9999,-0.019335
30.920,63.9999,-0.019335
30.951,63.9999,-0.015710
30.967,63.9999,-0.009668
30.983,63.9999,-0.009668
30.999,63.9999,-0.009668
31.016,63.9999,-0.009668
31.032,63.9999,-0.015710
31.050,63.9999,-0.016918
31.063,63.9999,-0.016918
31.079,63.9999,-0.013293
31.095,63.9999,-0.013293
31.111,63.9999,-0.009668
31.127,63.9999,-0.012084
31.147,63.9999,-0.012084
31.159,63.9999,-0.018127
31.175,63.9999,-0.018127
31.192,63.9999,-0.010876
31.207,63.9999,-0.009668
31.223,63.9999,-0.013293
31.239,63.9999,-0.016918
31.263,63.9999,-0.015710
31.275,63.9999,-0.015710
31.287,63.9999,-0.010876
31.303,63.9999,-0.014501
31.319,63.9999,-0.012084
31.335,63.9999,-0.015710
31.351,63.9999,-0.018127
31.367,63.9999,-0.018127
31.383,63.9999,-0.013293
31.399,63.9999,-0.016918
31.415,63.9999,-0.013293
31.431,63.9999,-0.009668
31.448,63.9999,-0.006042
31.463,63.9999,-0.012084
31.479,63.9999,-0.019335
31.507,63.9999,-0.007251
31.523,63.9999,-0.012084
31.540,63.9999,-0.010876
31.555,63.9999,-0.013293
31.572,63.9999,-0.012084
31.587,63.9999,-0.009668
31.603,63.9999,-0.007251
31.619,63.9999,-0.008459
31.636,63.9999,-0.008459
31.651,63.9999,-0.012084
31.668,63.9999,-0.012084
31.683,63.9999,-0.012084
31.699,63.9999,-0.009668
31.715,63.9999,-0.009668
31.731,63.9999,-0.010876
31.747,63.9999,-0.015710
31.763,63.9999,-0.013293
31.780,63.9999,-0.007251
31.795,63.9999,-0.012084
31.815,63.9999,-0.012084
31.827,63.9999,-0.010876
31.843,63.9999,-0.015710
31.859,63.9999,-0.018127
31.878,63.9999,-0.014501
31.891,63.9999,-0.008459
31.907,63.9999,-0.009668
31.923,63.9999,-0.009668
31.941,63.9999,-0.015710
31.955,63.9999,-0.015710
31.972,63.9999,-0.012084
31.987,63.9999,-0.012084
32.003,63.9999,-0.008459
32.020,63.9999,-0.012084
32.037,63.9999,-0.010876
32.061,63.9999,-0.012084
32.076,63.9999,-0.008459
32.094,63.9999,-0.009668
32.109,63.9999,-0.009668
32.129,63.9999,-0.009668
32.143,63.9999,-0.007251
32.157,63.9999,-0.014501
32.173,63.9999,-0.014501
32.189,63.9999,-0.009668
32.205,63.9999,-0.009668
32.223,63.9999,-0.009668
32.236,63.9999,-0.012084
32.253,63.9999,-0.012084
32.269,63.9999,-0.014501
32.286,63.9999,-0.016918
32.300,63.9999,-0.012084
32.316,63.9999,-0.012084
32.332,63.9999,-0.016918
32.349,63.9999,-0.012084
32.364,63.9999,-0.013293
32.381,63.9999,-0.012084
32.396,63.9999,-0.019335
32.412,63.9999,-0.018127
32.429,63.9999,-0.009668
32.445,63.9999,-0.010876
32.460,63.9999,-0.015710
32.476,63.9999,-0.010876
32.497,63.9999,-0.010876
32.508,63.9999,-0.016918
32.525,63.9999,-0.012084
32.540,63.9999,-0.010876
32.558,63.9999,-0.012084
32.574,63.9999,-0.012084
32.589,63.9999,-0.010876
32.620,63.9999,-0.016918
32.634,63.9999,-0.013293
32.650,63.9999,-0.013293
32.666,63.9999,-0.010876
32.684,63.9999,-0.010876
32.699,63.9999,-0.008459
32.717,63.9999,-0.008459
32.730,63.9999,-0.010876
32.747,63.9999,-0.006042
32.763,63.9999,-0.006042
32.778,63.9999,-0.018127
32.795,63.9999,-0.007251
32.811,63.9999,-0.014501
32.827,63.9999,-0.016918
32.842,63.9999,-0.016918
32.861,63.9999,-0.009668
32.876,63.9999,-0.013293
32.891,63.9999,-0.006042
32.906,63.9999,-0.004834
32.923,63.9999,-0.010876
32.939,63.9999,-0.008459
32.955,63.9999,-0.009668
32.970,63.9999,-0.010876
32.987,63.9999,-0.009668
33.003,63.9999,-0.009668
33.018,63.9999,-0.010876
33.034,63.9999,-0.010876
33.053,63.9999,-0.009668
33.066,63.9999,-0.013293
33.083,63.9999,-0.018127
33.098,63.9999,-0.015710
33.115,63.9999,-0.015710
33.130,63.9999,-0.016918
33.147,63.9999,-0.007251
33.162,63.9999,-0.014501
33.179,63.9999,-0.010876
33.194,63.9999,-0.014501
33.210,63.9999,-0.018127
33.226,63.9999,-0.012084
33.242,63.9999,-0.010876
33.258,63.9999,-0.012084
33.274,63.9999,-0.014501
33.290,63.9999,-0.012084
33.306,63.9999,-0.012084
33.322,63.9999,-0.013293
33.338,63.9999,-0.010876
33.357,63.9999,-0.013293
33.370,63.9999,-0.012084
33.386,63.9999,-0.014501
33.402,63.9999,-0.018127
33.419,63.9999,-0.019335
33.434,63.9999,-0.014501
33.451,63.9999,-0.013293
33.466,63.9999,-0.010876
33.483,63.9999,-0.007251
33.498,63.9999,-0.015710
33.515,63.9999,-0.012084
33.530,63.9999,-0.012084
33.546,63.9999,-0.015710
33.562,63.9999,-0.012084
33.578,63.9999,-0.008459
33.596,63.9999,-0.008459
33.610,63.9999,-0.007251
33.628,63.9999,-0.013293
33.643,63.9999,-0.013293
33.659,63.9999,-0.006042
33.674,63.9999,-0.006042
33.690,63.9999,-0.009668
33.707,63.9999,-0.009668
33.723,63.9999,-0.012084
33.738,63.9999,-0.019335
33.754,63.9999,-0.010876
33.771,63.9999,-0.012084
33.786,63.9999,-0.012084
33.802,63.9999,-0.012084
33.818,63.9999,-0.012084
33.837,63.9999,-0.006042
33.850,63.9999,-0.010876
33.866,63.9999,-0.014501
33.882,63.9999,-0.016918
33.898,63.9999,-0.014501
33.915,63.9999,-0.008459
33.929,63.9999,-0.009668
33.946,63.9999,-0.008459
33.962,63.9999,-0.010876
33.978,63.9999,-0.014501
33.994,63.9999,-0.015710
34.009,63.9999,-0.008459
34.026,63.9999,-0.007251
34.042,63.9999,-0.013293
34.058,63.9999,-0.013293
34.073,63.9999,-0.012084
34.090,63.9999,-0.009668
34.106,63.9999,-0.009668
34.122,63.9999,-0.010876
34.139,63.9999,-0.009668
34.154,63.9999,-0.013293
34.170,63.9999,-0.014501
34.186,63.9999,-0.015710
34.202,63.9999,-0.010876
34.218,63.9999,-0.010876
34.234,63.9999,-0.008459
34.255,63.9999,-0.012084
34.270,63.9999,-0.012084
34.287,63.9999,-0.012084
34.302,63.9999,-0.010876
34.319,63.9999,-0.012084
34.335,63.9999,-0.014501
34.351,63.9999,-0.012084
34.366,63.9999,-0.010876
34.383,63.9999,-0.009668
34.399,63.9999,-0.008459
34.416,63.9999,-0.010876
34.431,63.9999,-0.015710
34.447,63.9999,-0.014501
34.466,63.9999,-0.016918
34.479,63.9999,-0.013293
34.496,63.9999,-0.009668
34.510,63.9999,-0.009668
34.526,63.9999,-0.012084
34.542,63.9999,-0.009668
34.558,63.9999,-0.012084
34.574,63.9999,-0.013293
34.591,63.9999,-0.015710
34.608,63.9999,-0.008459
34.623,63.9999,-0.008459
34.639,63.9999,-0.014501
34.655,63.9999,-0.013293
34.670,63.9999,-0.012084
34.686,63.9999,-0.010876
34.704,63.9999,-0.010876
34.718,63.9999,-0.003625
34.734,63.9999,-0.002417
34.750,63.9999,-0.013293
34.778,63.9999,-0.014501
34.795,63.9999,-0.015710
34.810,63.9999,-0.008459
34.826,63.9999,-0.008459
34.842,63.9999,-0.007251
34.858,63.9999,-0.008459
34.874,63.9999,-0.007251
34.891,63.9999,-0.009668
34.907,63.9999,-0.014501
34.924,63.9999,-0.014501
34.938,63.9999,-0.008459
34.954,63.9999,-0.008459
34.970,63.9999,-0.012084
34.986,63.9999,-0.012084
35.003,63.9999,-0.016918
35.018,63.9999,-0.012084
35.035,63.9999,-0.012084
35.050,63.9999,-0.008459
35.067,63.9999,-0.010876
35.083,63.9999,-0.013293
35.099,63.9999,-0.012084
35.114,63.9999,-0.013293
35.131,63.9999,-0.010876
35.146,63.9999,-0.013293
35.162,63.9999,-0.014501
35.178,63.9999,-0.012084
35.195,63.9999,-0.012084
35.210,63.9999,-0.003625
35.226,63.9999,-0.015710
35.242,63.9999,-0.012084
35.259,63.9999,-0.013293
35.275,63.9999,-0.013293
35.292,63.9999,-0.013293
35.316,63.9999,-0.012084
35.332,63.9999,-0.008459
35.348,63.9999,-0.012084
35.364,63.9999,-0.010876
35.382,63.9999,-0.002417
35.396,63.9999,-0.008459
35.416,63.9999,-0.007251
35.429,63.9999,-0.007251
35.444,63.9999,-0.010876
35.460,63.9999,-0.015710
35.476,63.9999,-0.015710
35.492,63.9999,-0.014501
35.508,63.9999,-0.010876
35.524,63.9999,-0.007251
35.540,63.9999,-0.009668
35.556,63.9999,-0.010876
35.572,63.9999,-0.006042
35.588,63.9999,-0.010876
35.603,63.9999,-0.010876
35.620,63.9999,-0.010876
35.636,63.9999,-0.010876
35.652,63.9999,-0.009668
35.669,63.9999,-0.013293
35.685,63.9999,-0.012084
35.700,63.9999,-0.014501
35.716,63.9999,-0.009668
35.732,63.9999,-0.007251
35.749,63.9999,-0.008459
35.764,63.9999,-0.008459
35.780,63.9999,-0.014501
35.796,63.9999,-0.014501
35.812,63.9999,-0.008459
35.828,63.9999,-0.008459
35.857,63.9999,-0.010876
35.873,63.9999,-0.009668
35.889,63.9999,-0.015710
35.905,63.9999,-0.014501
35.924,63.9999,-0.012084
35.937,63.9999,-0.010876
35.953,63.9999,-0.014501
35.969,63.9999,-0.007251
35.988,63.9999,-0.007251
36.001,63.9999,-0.015710
36.017,63.9999,-0.014501
36.033,63.9999,-0.014501
36.049,63.9999,-0.013293
36.065,63.9999,-0.013293
36.080,63.9999,-0.015710
36.097,63.9999,-0.012084
36.112,63.9999,-0.009668
36.129,63.9999,-0.010876
36.145,63.9999,-0.013293
36.161,63.9999,-0.008459
36.178,63.9999,-0.012084
36.194,63.9999,-0.014501
36.209,63.9999,-0.007251
36.226,63.9999,-0.014501
36.241,63.9999,-0.008459
36.258,63.9999,-0.016918
36.272,63.9999,-0.010876
36.289,63.9999,-0.010876
36.305,63.9999,-0.009668
36.321,63.9999,-0.016918
36.337,63.9999,-0.014501
36.354,63.9999,-0.007251
36.369,63.9999,-0.013293
36.385,63.9999,-0.014501
36.414,63.9999,-0.012084
36.430,63.9999,-0.013293
36.447,63.9999,-0.006042
36.462,63.9999,-0.006042
36.480,63.9999,-0.013293
36.495,63.9999,-0.013293
36.512,63.9999,-0.010876
36.527,63.9699,0.050755
36.543,63.7918,0.050755
36.559,63.6006,0.003625
36.574,63.4118,0.029003
36.590,63.2159,0.041087
36.607,63.0174,0.084591
36.622,62.8323,0.101510
36.639,62.6229,0.113594
36.655,62.4390,0.138971
36.670,62.2515,0.158307
36.686,62.0579,0.183684
36.703,61.8571,0.183684
36.719,61.6586,0.171600
36.735,61.4711,0.141388
36.751,61.2775,0.025377
36.767,61.0705,-0.001208
36.783,60.8914,-0.001208
36.800,60.6821,0.004834
36.814,60.5091,0.000000
36.833,60.2864,0.000000
36.847,60.1073,-0.003625
36.864,59.9028,-0.003625
36.878,59.7384,0.002417
36.894,59.5375,0.006042
36.911,59.3390,-0.004834
36.926,59.1551,-0.001208
36.949,58.8696,-0.003625
36.965,58.6832,0.006042
36.981,58.4896,-0.002417
36.997,58.2972,-0.006042
37.014,58.0891,-0.006042
37.030,57.9503,-0.003625
37.047,57.9500,-0.076132
37.061,57.9500,-0.004834
37.078,57.9500,-0.014501
37.094,57.9500,-0.014501
37.110,57.9500,0.001208
37.127,57.9500,0.001208
37.141,57.9500,0.000000
37.157,57.9500,-0.008459
37.173,57.9500,-0.008459
37.189,57.9500,-0.010876
37.205,57.9500,-0.010876
37.221,57.9500,-0.001208
37.240,57.9500,0.004834
37.255,57.9500,-0.003625
37.270,57.9500,0.003625
37.285,57.9500,-0.004834
37.302,57.9563,-0.001208
37.317,58.1109,-0.096676
37.334,58.3057,0.016918
37.349,58.4908,-0.015710
37.367,58.7038,-0.009668
37.382,58.8938,-0.021752
37.397,59.0849,0.007251
37.413,59.2652,-0.006042
37.430,59.4769,-0.007251
37.446,59.6657,-0.001208
37.464,59.8883,-0.004834
37.489,60.1897,0.006042
37.504,60.3688,-0.002417
37.520,60.5660,-0.003625
37.536,60.7523,-0.009668
37.552,60.9604,0.002417
37.568,61.1432,0.001208
37.585,61.3537,0.001208
37.600,61.5267,-0.003625
37.616,61.7227,-0.006042
37.632,61.9187,-0.003625
37.648,62.1063,-0.008459
37.666,62.3241,-0.007251
37.680,62.5081,-0.008459
37.696,62.6920,-0.008459
37.712,62.8879,-0.015710
37.728,63.0767,-0.022961
37.744,63.2787,-0.026586
37.760,63.4616,-0.020544
37.776,63.6636,-0.030211
37.793,63.8669,-0.041087
37.808,63.9500,-0.018127
37.824,63.9500,-0.007251
37.841,63.9500,-0.049546
37.856,63.9500,-0.035045
37.873,63.9500,-0.047129
37.888,63.9500,-0.036253
37.905,63.9500,-0.033837
37.920,63.9500,-0.024169
37.936,63.9500,-0.022961
37.952,63.9500,-0.026586
37.968,63.9500,-0.030211
37.985,63.9500,-0.025377
38.000,63.9500,-0.030211
38.030,63.9500,-0.024169
38.046,63.9500,-0.027794
38.062,63.9500,-0.029003
38.078,63.9500,-0.029003
38.095,63.9500,-0.029003
38.110,63.9500,-0.025377
