Elapsed Time (s),Position (mm),Force (N)
-0.017,66.6000,-0.030211
0.001,66.6000,-0.035045
0.014,66.6000,-0.031420
0.029,66.6000,-0.025377
0.045,66.6000,-0.030211
0.061,66.6000,-0.030211
0.077,66.6000,-0.032628
0.094,66.6000,-0.029003
0.121,66.6000,-0.022961
0.137,66.6000,-0.029003
0.153,66.6000,-0.022961
0.169,66.6000,-0.031420
0.185,66.6000,-0.032628
0.201,66.6000,-0.032628
0.217,66.6000,-0.027794
0.233,66.6000,-0.027794
0.253,66.6000,-0.022961
0.266,66.6000,-0.020544
0.282,66.6000,-0.025377
0.298,66.6000,-0.024169
0.314,66.6000,-0.022961
0.330,66.6000,-0.024169
0.345,66.6000,-0.024169
0.361,66.6000,-0.020544
0.377,66.6000,-0.019335
0.393,66.6000,-0.029003
0.409,66.6000,-0.027794
0.425,66.6000,-0.031420
0.441,66.6000,-0.019335
0.460,66.6000,-0.021752
0.475,66.6000,-0.020544
0.490,66.6000,-0.018127
0.506,66.6000,-0.021752
0.521,66.6000,-0.021752
0.538,66.6000,-0.025377
0.552,66.6000,-0.025377
0.569,66.6000,-0.025377
0.585,66.6000,-0.019335
0.602,66.6000,-0.022961
0.617,66.6000,-0.025377
0.634,66.6000,-0.018127
0.662,66.6000,-0.021752
0.678,66.6000,-0.020544
0.694,66.6000,-0.024169
0.710,66.6000,-0.015710
0.726,66.6000,-0.014501
0.742,66.6000,-0.019335
0.758,66.6000,-0.024169
0.774,66.6000,-0.019335
0.790,66.6000,-0.019335
0.806,66.6000,-0.019335
0.824,66.6000,-0.019335
0.838,66.6000,-0.015710
0.854,66.6000,-0.019335
0.870,66.6000,-0.019335
0.886,66.6000,-0.022961
0.902,66.6000,-0.024169
0.918,66.6000,-0.020544
0.934,66.6000,-0.020544
0.950,66.6000,-0.020544
0.966,66.6000,-0.019335
0.982,66.6000,-0.021752
0.998,66.6000,-0.020544
1.014,66.6000,-0.019335
1.030,66.6000,-0.018127
1.046,66.6000,-0.016918
1.062,66.6000,-0.025377
1.077,66.6000,-0.022961
1.096,66.6000,-0.020544
1.109,66.6000,-0.020544
1.126,66.6000,-0.021752
1.141,66.6000,-0.020544
1.159,66.6000,-0.016918
1.175,66.6000,-0.021752
1.190,66.6000,-0.016918
1.216,66.6000,-0.020544
1.232,66.6000,-0.020544
1.249,66.6000,-0.018127
1.264,66.6000,-0.020544
1.281,66.6000,-0.020544
1.297,66.6000,-0.013293
1.312,66.6000,-0.022961
1.328,66.6000,-0.018127
1.346,66.6000,-0.024169
1.361,66.6000,-0.016918
1.377,66.6000,-0.018127
1.392,66.6000,-0.020544
1.410,66.6000,-0.015710
1.425,66.6000,-0.016918
1.443,66.6000,-0.016918
1.456,66.6000,-0.022961
1.472,66.6000,-0.024169
1.488,66.6000,-0.019335
1.504,66.6000,-0.019335
1.520,66.6000,-0.019335
1.536,66.6000,-0.018127
1.552,66.6000,-0.018127
1.568,66.6000,-0.022961
1.585,66.6000,-0.020544
1.600,66.6000,-0.015710
1.616,66.6000,-0.015710
1.632,66.6000,-0.012084
1.648,66.6000,-0.016918
1.666,66.6000,-0.021752
1.680,66.6000,-0.021752
1.696,66.6000,-0.024169
1.713,66.6000,-0.020544
1.729,66.6000,-0.022961
1.744,66.6000,-0.014501
1.775,66.6000,-0.014501
1.791,66.6000,-0.014501
1.807,66.6000,-0.020544
1.823,66.6000,-0.012084
1.839,66.6000,-0.012084
1.855,66.6000,-0.014501
1.871,66.6000,-0.018127
1.887,66.6000,-0.022961
1.904,66.6000,-0.018127
1.919,66.6000,-0.020544
1.937,66.6000,-0.018127
1.951,66.6000,-0.016918
1.967,66.6000,-0.018127
1.982,66.6000,-0.016918
1.999,66.6000,-0.016918
2.015,66.6000,-0.016918
2.032,66.6000,-0.016918
2.048,66.6000,-0.020544
2.063,66.6000,-0.020544
2.080,66.6000,-0.026586
2.097,66.6000,-0.019335
2.111,66.6000,-0.014501
2.127,66.6000,-0.020544
2.143,66.6000,-0.020544
2.160,66.6000,-0.018127
2.176,66.6000,-0.021752
2.191,66.6000,-0.018127
2.208,66.6000,-0.016918
2.224,66.6000,-0.009668
2.239,66.6000,-0.014501
2.255,66.6000,-0.016918
2.272,66.6000,-0.019335
2.288,66.6000,-0.016918
2.307,66.6000,-0.016918
2.330,66.6000,-0.018127
2.346,66.6000,-0.019335
2.362,66.6000,-0.024169
2.378,66.6000,-0.021752
2.394,66.6000,-0.016918
2.411,66.6000,-0.018127
2.428,66.6000,-0.010876
2.441,66.6000,-0.016918
2.460,66.6000,-0.021752
2.474,66.6000,-0.019335
2.493,66.6000,-0.021752
2.506,66.6000,-0.022961
2.522,66.6000,-0.022961
2.538,66.6000,-0.014501
2.553,66.6000,-0.015710
2.570,66.6000,-0.018127
2.585,66.6000,-0.016918
2.602,66.6000,-0.019335
2.618,66.6000,-0.018127
2.635,66.6000,-0.013293
2.650,66.6000,-0.018127
2.666,66.6000,-0.018127
2.682,66.6000,-0.018127
2.698,66.6000,-0.012084
2.714,66.6000,-0.022961
2.730,66.6000,-0.021752
2.745,66.6000,-0.018127
2.762,66.6000,-0.018127
2.778,66.6000,-0.015710
2.794,66.6000,-0.013293
2.809,66.6000,-0.016918
2.826,66.6000,-0.018127
2.842,66.6000,-0.024169
2.858,66.6000,-0.015710
2.887,66.6000,-0.014501
2.903,66.6000,-0.019335
2.919,66.6000,-0.015710
2.935,66.6000,-0.014501
2.952,66.6000,-0.014501
2.967,66.6000,-0.021752
2.984,66.6000,-0.021752
2.999,66.6000,-0.018127
3.016,66.6000,-0.019335
3.031,66.6000,-0.016918
3.049,66.6000,-0.015710
3.062,66.6000,-0.024169
3.079,66.6000,-0.018127
3.095,66.6000,-0.021752
3.111,66.6000,-0.021752
3.126,66.6000,-0.015710
3.143,66.6000,-0.021752
3.159,66.6000,-0.015710
3.175,66.6000,-0.016918
3.191,66.6000,-0.013293
3.207,66.6000,-0.018127
3.223,66.6000,-0.015710
3.238,66.6000,-0.016918
3.256,66.6000,-0.014501
3.271,66.6000,-0.016918
3.289,66.6000,-0.013293
3.303,66.6000,-0.019335
3.318,66.6000,-0.015710
3.335,66.6000,-0.014501
3.351,66.6000,-0.018127
3.366,66.6000,-0.019335
3.383,66.6000,-0.018127
3.400,66.6000,-0.013293
3.415,66.6000,-0.016918
3.430,66.6000,-0.018127
3.447,66.6000,-0.018127
3.463,66.6000,-0.013293
3.478,66.6000,-0.025377
3.495,66.6000,-0.018127
3.510,66.6000,-0.018127
3.526,66.6000,-0.016918
3.542,66.6000,-0.018127
3.558,66.6000,-0.015710
3.575,66.6000,-0.012084
3.591,66.6000,-0.013293
3.606,66.6000,-0.015710
3.623,66.6000,-0.020544
3.638,66.6000,-0.016918
3.654,66.6000,-0.022961
3.670,66.6000,-0.022961
3.688,66.6000,-0.016918
3.702,66.6000,-0.015710
3.718,66.6000,-0.014501
3.734,66.6000,-0.013293
3.750,66.6000,-0.020544
3.766,66.6000,-0.020544
3.782,66.6000,-0.021752
3.798,66.6000,-0.018127
3.814,66.6000,-0.015710
3.831,66.6000,-0.014501
3.846,66.6000,-0.014501
3.862,66.6000,-0.018127
3.879,66.6000,-0.019335
3.894,66.6000,-0.014501
3.910,66.6000,-0.019335
3.926,66.6000,-0.014501
3.943,66.6000,-0.016918
3.958,66.6000,-0.012084
3.976,66.6000,-0.016918
4.000,66.6000,-0.018127
4.016,66.6000,-0.009668
4.033,66.6000,-0.009668
4.048,66.6000,-0.014501
4.065,66.6000,-0.016918
4.080,66.6000,-0.012084
4.096,66.6000,-0.012084
4.112,66.6000,-0.018127
4.128,66.6000,-0.024169
4.145,66.6000,-0.009668
4.162,66.6000,-0.009668
4.176,66.6000,-0.018127
4.193,66.6000,-0.016918
4.207,66.6000,-0.014501
4.224,66.6000,-0.013293
4.240,66.6000,-0.018127
4.256,66.6000,-0.022961
4.272,66.6000,-0.013293
4.287,66.6000,-0.015710
4.306,66.6000,-0.013293
4.321,66.6000,-0.014501
4.336,66.6000,-0.016918
4.352,66.6000,-0.013293
4.369,66.6000,-0.013293
4.384,66.6000,-0.016918
4.400,66.6000,-0.015710
4.416,66.6000,-0.015710
4.433,66.6000,-0.015710
4.448,66.6000,-0.018127
4.464,66.6000,-0.018127
4.480,66.6000,-0.020544
4.498,66.6000,-0.007251
4.513,66.6000,-0.007251
4.528,66.6000,-0.010876
4.555,66.6000,-0.009668
4.571,66.6000,-0.016918
4.587,66.6000,-0.015710
4.602,66.6000,-0.013293
4.620,66.6000,-0.013293
4.636,66.6000,-0.016918
4.654,66.6000,-0.016918
4.667,66.6000,-0.018127
4.683,66.6000,-0.019335
4.699,66.6000,-0.019335
4.715,66.6000,-0.018127
4.731,66.6000,-0.015710
4.747,66.6000,-0.014501
4.763,66.6000,-0.018127
4.779,66.6000,-0.018127
4.795,66.6000,-0.019335
4.811,66.6000,-0.012084
4.827,66.6000,-0.014501
4.843,66.6000,-0.015710
4.859,66.6000,-0.013293
4.875,66.6000,-0.018127
4.891,66.6000,-0.016918
4.907,66.6000,-0.022961
4.924,66.6000,-0.024169
4.939,66.6000,-0.013293
4.955,66.6000,-0.012084
4.971,66.6000,-0.012084
4.988,66.6000,-0.013293
5.003,66.6000,-0.014501
5.019,66.6000,-0.013293
5.034,66.6000,-0.010876
5.052,66.6000,-0.014501
5.068,66.6000,-0.018127
5.083,66.6000,-0.012084
5.107,66.6000,-0.013293
5.123,66.6000,-0.012084
5.138,66.6000,-0.014501
5.155,66.6000,-0.019335
5.171,66.6000,-0.016918
5.187,66.6000,-0.018127
5.203,66.6000,-0.013293
5.218,66.6000,-0.010876
5.235,66.6000,-0.016918
5.251,66.6000,-0.012084
5.267,66.6000,-0.010876
5.282,66.6000,-0.013293
5.300,66.6000,-0.013293
5.316,66.6000,-0.015710
5.334,66.6000,-0.015710
5.347,66.6000,-0.014501
5.362,66.6000,-0.018127
5.379,66.6000,-0.019335
5.394,66.6000,-0.012084
5.411,66.6000,-0.012084
5.428,66.6000,-0.009668
5.443,66.6000,-0.008459
5.458,66.6000,-0.020544
5.474,66.6000,-0.020544
5.490,66.6000,-0.018127
5.506,66.6000,-0.014501
5.525,66.6000,-0.015710
5.539,66.6000,-0.015710
5.555,66.6000,-0.019335
5.570,66.6000,-0.015710
5.588,66.6000,-0.015710
5.602,66.6000,-0.015710
5.619,66.6000,-0.015710
5.646,66.6000,-0.018127
5.663,66.6000,-0.012084
5.678,66.6000,-0.016918
5.694,66.6000,-0.019335
5.711,66.6000,-0.016918
5.727,66.6000,-0.019335
5.742,66.6000,-0.014501
5.758,66.6000,-0.016918
5.775,66.6000,-0.012084
5.791,66.6000,-0.015710
5.807,66.6000,-0.015710
5.822,66.6000,-0.016918
5.839,66.6000,-0.016918
5.856,66.6000,-0.013293
5.870,66.6000,-0.013293
5.886,66.6000,-0.010876
5.903,66.6000,-0.018127
5.919,66.6000,-0.014501
5.934,66.6000,-0.015710
5.950,66.6000,-0.014501
5.967,66.6000,-0.016918
5.983,66.6000,-0.021752
5.999,66.6000,-0.012084
6.014,66.6000,-0.012084
6.031,66.6000,-0.012084
6.046,66.6000,-0.016918
6.062,66.6000,-0.019335
6.078,66.6000,-0.015710
6.094,66.6000,-0.013293
6.110,66.6000,-0.012084
6.127,66.6000,-0.010876
6.142,66.6000,-0.016918
6.169,66.6000,-0.024169
6.185,66.6000,-0.019335
6.200,66.6000,-0.015710
6.216,66.6000,-0.015710
6.232,66.6000,-0.015710
6.247,66.6000,-0.018127
6.264,66.6000,-0.016918
6.281,66.6000,-0.016918
6.297,66.6000,-0.013293
6.316,66.6000,-0.015710
6.328,66.6000,-0.014501
6.344,66.6000,-0.019335
6.360,66.6000,-0.019335
6.376,66.6000,-0.016918
6.392,66.6000,-0.016918
6.408,66.6000,-0.013293
6.424,66.6000,-0.009668
6.440,66.6000,-0.015710
6.456,66.6000,-0.014501
6.473,66.6000,-0.010876
6.488,66.6000,-0.018127
6.504,66.6000,-0.019335
6.521,66.6000,-0.016918
6.536,66.6000,-0.018127
6.553,66.6000,-0.015710
6.568,66.6000,-0.016918
6.585,66.6000,-0.018127
6.600,66.6000,-0.010876
6.615,66.6000,-0.013293
6.632,66.6000,-0.018127
6.649,66.6000,-0.019335
6.664,66.6000,-0.010876
6.680,66.6000,-0.013293
6.710,66.6000,-0.010876
6.726,66.6000,-0.018127
6.742,66.6000,-0.019335
6.757,66.6000,-0.020544
6.775,66.6000,-0.009668
6.790,66.6000,-0.012084
6.806,66.6000,-0.015710
6.821,66.6000,-0.015710
6.838,66.6000,-0.018127
6.855,66.6000,-0.024169
6.873,66.6000,-0.024169
6.886,66.6000,-0.010876
6.903,66.6000,-0.010876
6.918,66.6000,-0.010876
6.934,66.6000,-0.016918
6.950,66.6000,-0.016918
6.966,66.6000,-0.019335
6.982,66.6000,-0.018127
6.998,66.6000,-0.012084
7.014,66.6000,-0.012084
7.031,66.6000,-0.014501
7.047,66.6000,-0.015710
7.062,66.6000,-0.016918
7.079,66.6000,-0.015710
7.095,66.6000,-0.009668
7.110,66.6000,-0.013293
7.126,66.6000,-0.016918
7.142,66.6000,-0.015710
7.158,66.6000,-0.014501
7.174,66.6000,-0.014501
7.190,66.6000,-0.015710
7.207,66.6000,-0.018127
7.222,66.6000,-0.019335
7.238,66.6000,-0.012084
7.270,66.6000,-0.009668
7.285,66.6000,-0.014501
7.301,66.6000,-0.020544
7.317,66.6000,-0.019335
7.334,66.6000,-0.019335
7.349,66.6000,-0.021752
7.368,66.6000,-0.009668
7.381,66.6000,-0.015710
7.398,66.6000,-0.018127
7.413,66.6000,-0.022961
7.429,66.6000,-0.016918
7.445,66.6000,-0.015710
7.461,66.6000,-0.009668
7.477,66.6000,-0.019335
7.493,66.6000,-0.019335
7.512,66.6000,-0.019335
7.525,66.6000,-0.012084
7.541,66.6000,-0.009668
7.557,66.6000,-0.019335
7.579,66.6000,-0.016918
7.591,66.6000,-0.014501
7.606,66.6000,-0.015710
7.622,66.6000,-0.016918
7.638,66.6000,-0.024169
7.654,66.6000,-0.024169
7.670,66.6000,-0.018127
7.684,66.6000,-0.018127
7.702,66.6000,-0.018127
7.717,66.6000,-0.010876
7.734,66.6000,-0.010876
7.749,66.6000,-0.018127
7.765,66.6000,-0.019335
7.782,66.6000,-0.014501
7.799,66.6000,-0.012084
7.823,66.6000,-0.016918
7.840,66.6000,-0.014501
7.856,66.6000,-0.010876
7.871,66.6000,-0.010876
7.887,66.6000,-0.013293
7.904,66.6000,-0.016918
7.919,66.6000,-0.020544
7.935,66.6000,-0.013293
7.953,66.6000,-0.013293
7.968,66.6000,-0.013293
7.985,66.6000,-0.019335
7.999,66.6000,-0.021752
8.015,66.6000,-0.015710
8.031,66.6000,-0.015710
8.048,66.6000,-0.019335
8.063,66.6000,-0.014501
8.080,66.6000,-0.012084
8.095,66.6000,-0.018127
8.111,66.6000,-0.014501
8.130,66.6000,-0.013293
8.143,66.6000,-0.010876
8.159,66.6000,-0.013293
8.175,66.6000,-0.013293
8.191,66.6000,-0.020544
8.208,66.6000,-0.020544
8.223,66.6000,-0.013293
8.239,66.6000,-0.018127
8.256,66.6000,-0.018127
8.272,66.6000,-0.014501
8.288,66.6000,-0.019335
8.303,66.6000,-0.014501
8.320,66.6000,-0.018127
8.337,66.6000,-0.019335
8.354,66.6000,-0.014501
8.378,66.6000,-0.016918
8.394,66.6000,-0.018127
8.411,66.6000,-0.016918
8.426,66.6000,-0.014501
8.444,66.6000,-0.014501
8.459,66.6000,-0.016918
8.475,66.6000,-0.010876
8.490,66.6000,-0.012084
8.507,66.6000,-0.012084
8.523,66.6000,-0.014501
8.539,66.6000,-0.014501
8.554,66.6000,-0.021752
8.571,66.6000,-0.021752
8.587,66.6000,-0.013293
8.603,66.6000,-0.013293
8.618,66.6000,-0.015710
8.635,66.6000,-0.013293
8.651,66.6000,-0.014501
8.666,66.6000,-0.014501
8.684,66.6000,-0.013293
8.699,66.6000,-0.015710
8.714,66.6000,-0.015710
8.730,66.6000,-0.015710
8.748,66.6000,-0.012084
8.762,66.6000,-0.009668
8.778,66.6000,-0.016918
8.794,66.6000,-0.015710
8.810,66.6000,-0.015710
8.826,66.6000,-0.014501
8.843,66.6000,-0.014501
8.862,66.6000,-0.015710
8.874,66.6000,-0.008459
8.890,66.6000,-0.020544
8.906,66.6000,-0.010876
8.928,66.6000,-0.012084
8.943,66.6000,-0.015710
8.959,66.6000,-0.016918
8.976,66.6000,-0.012084
8.991,66.6000,-0.012084
9.008,66.6000,-0.014501
9.023,66.6000,-0.020544
9.039,66.6000,-0.009668
9.056,66.6000,-0.013293
9.071,66.6000,-0.009668
9.088,66.6000,-0.015710
9.103,66.6000,-0.009668
9.119,66.6000,-0.015710
9.135,66.6000,-0.012084
9.151,66.6000,-0.012084
9.167,66.6000,-0.019335
9.184,66.6000,-0.018127
9.199,66.6000,-0.018127
9.217,66.6000,-0.014501
9.231,66.6000,-0.014501
9.248,66.6000,-0.018127
9.263,66.6000,-0.018127
9.279,66.6000,-0.014501
9.295,66.6000,-0.007251
9.311,66.6000,-0.007251
9.327,66.6000,-0.012084
9.342,66.6000,-0.018127
9.362,66.6000,-0.022961
9.375,66.6000,-0.016918
9.391,66.6000,-0.016918
9.407,66.6000,-0.010876
9.423,66.6000,-0.014501
9.440,66.6000,-0.014501
9.456,66.6000,-0.013293
9.485,66.6000,-0.013293
9.501,66.6000,-0.012084
9.517,66.6000,-0.012084
9.533,66.6000,-0.016918
9.550,66.6000,-0.016918
9.565,66.6000,-0.015710
9.581,66.6000,-0.013293
9.597,66.6000,-0.010876
9.613,66.6000,-0.010876
9.630,66.6000,-0.012084
9.645,66.6000,-0.013293
9.662,66.6000,-0.009668
9.678,66.6000,-0.010876
9.693,66.6000,-0.013293
9.709,66.6000,-0.013293
9.726,66.6000,-0.013293
9.741,66.6000,-0.013293
9.757,66.6000,-0.014501
9.773,66.6000,-0.014501
9.789,66.6000,-0.014501
9.805,66.6000,-0.016918
9.821,66.6000,-0.015710
9.838,66.6000,-0.010876
9.853,66.6000,-0.012084
9.871,66.6000,-0.012084
9.885,66.6000,-0.019335
9.901,66.6000,-0.018127
9.917,66.6000,-0.007251
9.934,66.6000,-0.007251
9.949,66.6000,-0.016918
9.966,66.6000,-0.013293
9.981,66.6000,-0.013293
9.997,66.6000,-0.016918
10.027,66.6000,-0.009668
10.042,66.6000,-0.019335
10.059,66.6000,-0.019335
10.075,66.6000,-0.012084
10.092,66.6000,-0.012084
10.107,66.6000,-0.020544
10.124,66.6000,-0.020544
10.138,66.6000,-0.014501
10.155,66.6000,-0.015710
10.171,66.6000,-0.015710
10.187,66.6000,-0.018127
10.203,66.6000,-0.018127
10.219,66.6000,-0.013293
10.234,66.6000,-0.009668
10.250,66.6000,-0.009668
10.267,66.6000,-0.012084
10.283,66.6000,-0.019335
10.298,66.6000,-0.013293
10.316,66.6000,-0.013293
10.330,66.6000,-0.015710
10.347,66.6000,-0.013293
10.362,66.6000,-0.012084
10.378,66.6000,-0.021752
10.395,66.6000,-0.021752
10.410,66.6000,-0.010876
10.426,66.6000,-0.009668
10.443,66.6000,-0.009668
10.459,66.6000,-0.009668
10.474,66.6000,-0.010876
10.491,66.6000,-0.015710
10.506,66.6000,-0.012084
10.526,66.6000,-0.018127
10.539,66.6000,-0.015710
10.555,66.6000,-0.010876
10.571,66.6000,-0.012084
10.594,66.6000,-0.012084
10.608,66.6000,-0.018127
10.624,66.6000,-0.016918
10.640,66.6000,-0.016918
10.656,66.6000,-0.016918
10.672,66.6000,-0.014501
10.688,66.6000,-0.014501
10.704,66.6000,-0.010876
10.721,66.6000,-0.013293
10.737,66.6000,-0.016918
10.753,66.6000,-0.015710
10.768,66.6000,-0.012084
10.790,66.6000,-0.009668
10.810,66.6000,-0.006042
10.825,66.6000,-0.010876
10.842,66.6000,-0.020544
10.856,66.6000,-0.024169
10.871,66.6000,-0.019335
10.883,66.6000,-0.018127
10.896,66.6000,-0.007251
10.913,66.6000,-0.006042
10.929,66.6000,-0.012084
10.947,66.6000,-0.016918
10.960,66.6000,-0.018127
10.976,66.6000,-0.014501
10.992,66.6000,-0.014501
11.008,66.6000,-0.010876
11.024,66.6000,-0.013293
11.042,66.6000,-0.020544
11.056,66.6000,-0.016918
11.073,66.6000,-0.018127
11.088,66.6000,-0.014501
11.104,66.6000,-0.010876
11.121,66.6000,-0.016918
11.136,66.6000,-0.010876
11.160,66.6000,-0.010876
11.175,66.6000,-0.009668
11.191,66.6000,-0.010876
11.207,66.6000,-0.016918
11.225,66.5162,-0.002417
11.239,66.3716,0.118428
11.255,66.1990,0.027794
11.274,66.0109,0.027794
11.287,65.8724,0.037462
11.303,65.7019,0.065256
11.319,65.5418,0.084591
11.335,65.3701,0.102718
11.351,65.2079,0.122053
11.367,65.0374,0.137763
11.383,64.8783,0.160724
11.399,64.7066,0.165557
11.415,64.5413,0.172808
11.431,64.3801,0.158307
11.447,64.2033,0.149848
11.467,63.9994,0.109969
11.479,63.8788,0.016918
11.495,63.7134,-0.001208
11.511,63.5439,-0.002417
11.527,63.3776,0.001208
11.543,63.2069,-0.004834
11.559,63.0468,0.004834
11.576,62.8669,0.000000
11.591,62.7160,-0.001208
11.607,62.5414,-0.009668
11.623,62.3823,0.001208
11.640,62.1961,0.001208
11.655,62.0515,0.000000
11.671,61.8758,-0.004834
11.700,61.5784,-0.003625
11.715,61.4255,0.000000
11.731,61.2528,0.000000
11.747,61.0947,0.004834
11.764,60.9118,0.001208
11.779,60.7505,-0.001208
11.795,60.5930,-0.009668
11.811,60.5500,-0.009668
11.828,60.5500,-0.061631
11.843,60.5500,0.009668
11.859,60.5500,0.001208
11.875,60.5500,-0.003625
11.891,60.5500,-0.003625
11.907,60.5500,-0.004834
11.924,60.5500,-0.004834
11.939,60.5500,0.000000
11.955,60.5500,0.000000
11.972,60.5500,-0.010876
11.987,60.5500,-0.014501
12.003,60.5500,-0.009668
12.019,60.5500,-0.006042
12.037,60.5500,-0.001208
12.052,60.5500,0.000000
12.067,60.5500,-0.001208
12.084,60.5500,-0.001208
12.099,60.6140,0.002417
12.114,60.7720,-0.120845
12.131,60.9384,-0.006042
12.148,61.1204,-0.007251
12.163,61.2764,-0.013293
12.179,61.4438,-0.013293
12.194,61.6041,0.001208
12.212,61.7819,-0.004834
12.227,61.9430,-0.004834
12.256,62.2394,-0.008459
12.271,62.4049,-0.008459
12.288,62.5795,-0.004834
12.303,62.7365,-0.001208
12.320,62.9113,-0.013293
12.335,63.0694,-0.003625
12.351,63.2368,-0.003625
12.368,63.4033,-0.003625
12.384,63.5759,-0.008459
12.400,63.7360,0.003625
12.415,63.9003,0.001208
12.431,64.0699,-0.008459
12.447,64.2383,-0.013293
12.464,64.4088,-0.006042
12.479,64.5680,-0.003625
12.498,64.7657,-0.013293
12.511,64.9008,-0.004834
12.528,65.0693,-0.012084
12.544,65.2336,-0.006042
12.560,65.4093,-0.024169
12.576,65.5727,-0.013293
12.592,65.7307,-0.013293
12.607,65.8961,-0.021752
12.624,66.0812,-0.022961
12.640,66.2351,-0.026586
12.656,66.4141,-0.033837
12.671,66.5420,-0.043504
12.688,66.5500,0.027794
12.703,66.5500,-0.059214
12.719,66.5500,-0.037462
12.737,66.5500,-0.049546
12.751,66.5500,-0.049546
12.769,66.5500,-0.027794
12.796,66.5500,-0.038670
12.812,66.5500,-0.038670
12.828,66.5500,-0.031420
12.844,66.5500,-0.035045
12.860,66.5500,-0.035045
12.876,66.5500,-0.037462
12.892,66.5500,-0.032628
12.908,66.5500,-0.033837
12.927,66.5500,-0.030211
12.941,66.5500,-0.031420
12.957,66.5500,-0.033837
12.972,66.5500,-0.030211
12.989,66.5500,-0.029003
13.004,66.5500,-0.030211
13.020,66.5500,-0.030211
13.038,66.5500,-0.027794
13.053,66.5500,-0.029003
13.069,66.5500,-0.030211
13.084,66.5500,-0.026586
13.101,66.5500,-0.022961
13.116,66.5500,-0.025377
13.132,66.5500,-0.024169
13.149,66.5500,-0.026586
13.166,66.5500,-0.020544
13.183,66.5500,-0.022961
13.196,66.5500,-0.024169
13.212,66.5500,-0.024169
13.230,66.5500,-0.027794
13.244,66.5500,-0.021752
13.260,66.5500,-0.021752
13.276,66.5500,-0.026586
13.292,66.5500,-0.026586
13.308,66.5500,-0.021752
13.332,66.5500,-0.024169
13.347,66.5500,-0.027794
13.363,66.5500,-0.027794
13.379,66.5500,-0.027794
13.400,66.5500,-0.021752
13.412,66.5500,-0.020544
13.427,66.5500,-0.016918
13.444,66.5500,-0.021752
13.459,66.5500,-0.021752
13.476,66.5500,-0.027794
13.491,66.5500,-0.022961
13.507,66.5500,-0.015710
13.524,66.5500,-0.024169
13.539,66.5500,-0.024169
13.556,66.5500,-0.020544
13.579,66.5500,-0.029003
13.602,66.5500,-0.022961
13.619,66.5500,-0.019335
13.635,66.5500,-0.025377
13.651,66.5500,-0.025377
13.667,66.5500,-0.018127
13.685,66.5500,-0.018127
13.699,66.5500,-0.014501
13.715,66.5500,-0.025377
13.731,66.5500,-0.024169
13.748,66.5500,-0.021752
13.763,66.5500,-0.021752
13.779,66.5500,-0.015710
13.795,66.5500,-0.021752
13.814,66.5500,-0.021752
13.828,66.5500,-0.025377
13.844,66.5500,-0.025377
13.859,66.5500,-0.022961
13.876,66.5500,-0.021752
13.891,66.5500,-0.020544
13.907,66.5500,-0.021752
13.923,66.5500,-0.009668
13.940,66.5500,-0.020544
13.955,66.5500,-0.018127
13.971,66.5500,-0.014501
13.987,66.5500,-0.020544
14.006,66.5500,-0.024169
14.019,66.5500,-0.022961
14.035,66.5500,-0.019335
14.051,66.5500,-0.015710
14.072,66.5500,-0.019335
14.084,66.5500,-0.016918
14.099,66.5500,-0.019335
14.115,66.5500,-0.020544
14.133,66.5500,-0.024169
14.147,66.5500,-0.018127
14.163,66.5500,-0.016918
14.179,66.5500,-0.016918
14.195,66.5500,-0.020544
14.211,66.5500,-0.020544
14.227,66.5500,-0.020544
14.244,66.5500,-0.020544
14.260,66.5500,-0.021752
14.276,66.5500,-0.022961
14.291,66.5500,-0.022961
14.307,66.5500,-0.020544
14.323,66.5500,-0.020544
14.339,66.5500,-0.022961
14.364,66.5500,-0.019335
14.387,66.5500,-0.019335
14.403,66.5500,-0.019335
14.419,66.5500,-0.020544
14.435,66.5500,-0.018127
14.451,66.5500,-0.012084
14.467,66.5500,-0.018127
14.483,66.5500,-0.018127
14.499,66.5500,-0.013293
14.515,66.5500,-0.020544
14.531,66.5500,-0.020544
14.547,66.5500,-0.019335
14.563,66.5500,-0.016918
14.580,66.5500,-0.016918
14.597,66.5500,-0.019335
14.610,66.5500,-0.021752
14.628,66.5500,-0.019335
14.643,66.5500,-0.021752
14.659,66.5500,-0.024169
14.675,66.5500,-0.019335
14.690,66.5500,-0.020544
14.706,66.5500,-0.014501
14.722,66.5500,-0.018127
14.739,66.5500,-0.018127
14.754,66.5500,-0.016918
14.771,66.5500,-0.019335
14.786,66.5500,-0.021752
14.803,66.5500,-0.021752
14.818,66.5500,-0.018127
14.835,66.5500,-0.016918
14.850,66.5500,-0.021752
14.871,66.5500,-0.021752
14.884,66.5500,-0.026586
14.899,66.5500,-0.024169
14.916,66.5500,-0.018127
14.931,66.5500,-0.019335
14.946,66.5500,-0.021752
14.963,66.5500,-0.020544
14.990,66.5500,-0.024169
15.006,66.5500,-0.024169
15.023,66.5500,-0.019335
15.038,66.5500,-0.020544
15.056,66.5500,-0.015710
15.071,66.5500,-0.010876
15.087,66.5500,-0.020544
15.103,66.5500,-0.019335
15.118,66.5500,-0.021752
15.134,66.5500,-0.015710
15.150,66.5500,-0.018127
15.166,66.5500,-0.021752
15.182,66.5500,-0.019335
15.199,66.5500,-0.014501
15.214,66.5500,-0.016918
15.230,66.5500,-0.021752
15.248,66.5500,-0.022961
15.263,66.5500,-0.022961
15.279,66.5500,-0.013293
15.296,66.5500,-0.013293
15.310,66.5500,-0.014501
15.328,66.5500,-0.016918
15.342,66.5500,-0.016918
15.360,66.5500,-0.018127
15.375,66.5500,-0.022961
15.390,66.5500,-0.016918
15.406,66.5500,-0.012084
15.426,66.5500,-0.016918
15.439,66.5500,-0.015710
15.454,66.5500,-0.013293
15.470,66.5500,-0.013293
15.490,66.5500,-0.021752
15.503,66.5500,-0.010876
15.520,66.5500,-0.009668
15.534,66.5500,-0.018127
15.551,66.5500,-0.016918
15.567,66.5500,-0.018127
15.583,66.5500,-0.019335
15.598,66.5500,-0.019335
15.619,66.5500,-0.014501
15.630,66.5500,-0.013293
15.646,66.5500,-0.016918
15.662,66.5500,-0.020544
15.678,66.5500,-0.020544
15.694,66.5500,-0.020544
15.710,66.5500,-0.015710
15.726,66.5500,-0.018127
15.743,66.5500,-0.013293
15.759,66.5500,-0.010876
15.774,66.5500,-0.020544
15.791,66.5500,-0.020544
15.806,66.5500,-0.020544
15.822,66.5500,-0.021752
15.838,66.5500,-0.020544
15.856,66.5500,-0.018127
15.871,66.5500,-0.016918
15.887,66.5500,-0.015710
15.902,66.5500,-0.019335
15.919,66.5500,-0.019335
15.935,66.5500,-0.022961
15.951,66.5500,-0.022961
15.966,66.5500,-0.014501
15.982,66.5500,-0.014501
15.998,66.5500,-0.016918
16.014,66.5500,-0.022961
16.030,66.5500,-0.022961
16.047,66.5500,-0.016918
16.062,66.5500,-0.015710
16.078,66.5500,-0.012084
16.095,66.5500,-0.016918
16.110,66.5500,-0.019335
16.126,66.5500,-0.016918
16.142,66.5500,-0.016918
16.159,66.5500,-0.015710
16.174,66.5500,-0.010876
16.191,66.5500,-0.015710
16.206,66.5500,-0.009668
16.226,66.5500,-0.016918
16.238,66.5500,-0.018127
16.254,66.5500,-0.019335
16.270,66.5500,-0.020544
16.286,66.5500,-0.018127
16.302,66.5500,-0.012084
16.318,66.5500,-0.014501
16.334,66.5500,-0.014501
16.351,66.5500,-0.013293
16.367,66.5500,-0.019335
16.382,66.5500,-0.022961
16.401,66.5500,-0.024169
16.414,66.5500,-0.021752
16.431,66.5500,-0.018127
16.446,66.5500,-0.020544
16.462,66.5500,-0.020544
16.478,66.5500,-0.020544
16.494,66.5500,-0.019335
16.510,66.5500,-0.019335
16.527,66.5500,-0.015710
16.542,66.5500,-0.015710
16.558,66.5500,-0.013293
16.577,66.5500,-0.021752
16.590,66.5500,-0.027794
16.606,66.5500,-0.027794
16.621,66.5500,-0.016918
16.644,66.5500,-0.020544
16.661,66.5500,-0.015710
16.677,66.5500,-0.022961
16.693,66.5500,-0.022961
16.709,66.5500,-0.013293
16.726,66.5500,-0.015710
16.741,66.5500,-0.015710
16.757,66.5500,-0.014501
16.775,66.5500,-0.014501
16.790,66.5500,-0.015710
16.805,66.5500,-0.020544
16.821,66.5500,-0.019335
16.837,66.5500,-0.020544
16.852,66.5500,-0.019335
16.868,66.5500,-0.024169
16.887,66.5500,-0.020544
16.900,66.5500,-0.012084
16.916,66.5500,-0.013293
16.933,66.5500,-0.016918
16.950,66.5500,-0.016918
16.965,66.5500,-0.019335
16.980,66.5500,-0.016918
16.996,66.5500,-0.019335
17.013,66.5500,-0.016918
17.030,66.5500,-0.010876
17.046,66.5500,-0.016918
17.060,66.5500,-0.015710
17.077,66.5500,-0.016918
17.093,66.5500,-0.019335
17.109,66.5500,-0.016918
17.125,66.5500,-0.016918
17.140,66.5500,-0.014501
17.157,66.5500,-0.013293
17.186,66.5500,-0.019335
17.200,66.5500,-0.019335
17.217,66.5500,-0.019335
17.232,66.5500,-0.019335
17.248,66.5500,-0.015710
17.265,66.5500,-0.022961
17.280,66.5500,-0.015710
17.296,66.5500,-0.012084
17.314,66.5500,-0.012084
17.328,66.5500,-0.020544
17.344,66.5500,-0.014501
17.360,66.5500,-0.016918
17.376,66.5500,-0.015710
17.393,66.5500,-0.016918
17.408,66.5500,-0.018127
17.427,66.5500,-0.021752
17.440,66.5500,-0.016918
17.456,66.5500,-0.016918
17.472,66.5500,-0.016918
17.490,66.5500,-0.014501
17.505,66.5500,-0.013293
17.520,66.5500,-0.015710
17.536,66.5500,-0.018127
17.554,66.5500,-0.014501
17.569,66.5500,-0.008459
17.585,66.5500,-0.009668
17.600,66.5500,-0.013293
17.617,66.5500,-0.014501
17.633,66.5500,-0.016918
17.649,66.5500,-0.019335
17.664,66.5500,-0.013293
17.680,66.5500,-0.013293
17.696,66.5500,-0.018127
17.712,66.5500,-0.012084
17.735,66.5500,-0.013293
17.751,66.5500,-0.020544
17.767,66.5500,-0.018127
17.783,66.5500,-0.021752
17.801,66.5500,-0.021752
17.815,66.5500,-0.019335
17.831,66.5500,-0.019335
17.847,66.5500,-0.015710
17.863,66.5500,-0.016918
17.879,66.5500,-0.014501
17.898,66.5500,-0.018127
17.911,66.5500,-0.014501
17.928,66.5500,-0.015710
17.943,66.5500,-0.010876
17.959,66.5500,-0.010876
17.975,66.5500,-0.016918
17.991,66.5500,-0.018127
18.007,66.5500,-0.020544
18.023,66.5500,-0.015710
18.039,66.5500,-0.015710
18.055,66.5500,-0.016918
18.072,66.5500,-0.016918
18.087,66.5500,-0.016918
18.104,66.5500,-0.016918
18.119,66.5500,-0.019335
18.135,66.5500,-0.016918
18.151,66.5500,-0.021752
18.167,66.5500,-0.020544
18.183,66.5500,-0.021752
18.201,66.5500,-0.021752
18.215,66.5500,-0.010876
18.231,66.5500,-0.015710
18.247,66.5500,-0.014501
18.263,66.5500,-0.013293
18.286,66.5500,-0.019335
18.302,66.5500,-0.019335
18.318,66.5500,-0.020544
18.334,66.5500,-0.018127
18.350,66.5500,-0.016918
18.366,66.5500,-0.019335
18.382,66.5500,-0.015710
18.398,66.5500,-0.009668
18.415,66.5500,-0.012084
18.430,66.5500,-0.019335
18.446,66.5500,-0.015710
18.462,66.5500,-0.019335
18.479,66.5500,-0.021752
18.494,66.5500,-0.014501
18.509,66.5500,-0.014501
18.527,66.5500,-0.016918
18.542,66.5500,-0.012084
18.559,66.5500,-0.015710
18.574,66.5500,-0.015710
18.591,66.5500,-0.015710
18.607,66.5500,-0.014501
18.622,66.5500,-0.009668
18.638,66.5500,-0.012084
18.654,66.5500,-0.014501
18.670,66.5500,-0.015710
18.686,66.5500,-0.019335
18.703,66.5500,-0.016918
18.718,66.5500,-0.007251
18.734,66.5500,-0.012084
18.750,66.5500,-0.015710
18.768,66.5500,-0.016918
18.782,66.5500,-0.015710
18.801,66.5500,-0.015710
18.825,66.5500,-0.013293
18.840,66.5500,-0.013293
18.857,66.5500,-0.012084
18.873,66.5500,-0.015710
18.892,66.5500,-0.020544
18.905,66.5500,-0.016918
18.921,66.5500,-0.014501
18.937,66.5500,-0.015710
18.954,66.5500,-0.018127
18.969,66.5500,-0.012084
18.986,66.5500,-0.012084
19.001,66.5500,-0.018127
19.019,66.5500,-0.013293
19.032,66.5500,-0.018127
19.048,66.5500,-0.013293
19.065,66.5500,-0.013293
19.083,66.5500,-0.013293
19.097,66.5500,-0.014501
19.113,66.5500,-0.014501
19.129,66.5500,-0.018127
19.145,66.5500,-0.012084
19.161,66.5500,-0.013293
19.176,66.5500,-0.010876
19.192,66.5500,-0.013293
19.208,66.5500,-0.015710
19.225,66.5500,-0.012084
19.240,66.5500,-0.014501
19.264,66.5500,-0.013293
19.274,66.5500,-0.018127
19.289,66.5500,-0.014501
19.307,66.5500,-0.016918
19.321,66.5500,-0.016918
19.337,66.5500,-0.015710
19.353,66.5500,-0.016918
19.383,66.5500,-0.018127
19.400,66.5500,-0.012084
19.415,66.5500,-0.012084
19.431,66.5500,-0.012084
19.448,66.5500,-0.009668
19.464,66.5500,-0.012084
19.482,66.5500,-0.014501
19.495,66.5500,-0.012084
19.512,66.5500,-0.012084
19.528,66.5500,-0.014501
19.543,66.5500,-0.010876
19.559,66.5500,-0.010876
19.575,66.5500,-0.015710
19.592,66.5500,-0.018127
19.607,66.5500,-0.016918
19.623,66.5500,-0.016918
19.644,66.5500,-0.016918
19.655,66.5500,-0.021752
19.672,66.5500,-0.018127
19.687,66.5500,-0.018127
19.705,66.5500,-0.018127
19.720,66.5500,-0.018127
19.735,66.5500,-0.016918
19.752,66.5500,-0.012084
19.767,66.5500,-0.019335
19.783,66.5500,-0.021752
19.799,66.5500,-0.014501
19.818,66.5500,-0.016918
19.832,66.5500,-0.013293
19.848,66.5500,-0.012084
19.864,66.5500,-0.016918
19.880,66.5500,-0.014501
19.897,66.5500,-0.007251
19.914,66.5500,-0.014501
19.938,66.5500,-0.016918
19.954,66.5500,-0.018127
19.969,66.5500,-0.014501
19.985,66.5500,-0.010876
20.003,66.5500,-0.014501
20.017,66.5500,-0.009668
20.033,66.5500,-0.018127
20.049,66.5500,-0.015710
20.067,66.5500,-0.015710
20.081,66.5500,-0.019335
20.098,66.5500,-0.016918
20.113,66.5500,-0.013293
20.130,66.5500,-0.019335
20.146,66.5500,-0.019335
20.161,66.5500,-0.013293
20.177,66.5500,-0.010876
20.193,66.5500,-0.007251
20.209,66.5500,-0.013293
20.225,66.5500,-0.015710
20.241,66.5500,-0.015710
20.257,66.5500,-0.015710
20.273,66.5500,-0.014501
20.289,66.5500,-0.012084
20.307,66.5500,-0.015710
20.322,66.5500,-0.016918
20.338,66.5500,-0.010876
20.353,66.5500,-0.013293
20.369,66.5500,-0.013293
20.385,66.5500,-0.016918
20.401,66.5500,-0.016918
20.417,66.5500,-0.016918
20.438,66.5500,-0.014501
20.463,66.5500,-0.014501
20.478,66.5500,-0.015710
20.494,66.5500,-0.019335
20.511,66.5500,-0.020544
20.526,66.5500,-0.018127
20.542,66.5500,-0.015710
20.558,66.5500,-0.009668
20.575,66.5500,-0.016918
20.591,66.5500,-0.016918
20.606,66.5500,-0.014501
20.622,66.5500,-0.014501
20.638,66.5500,-0.014501
20.654,66.5500,-0.015710
20.670,66.5500,-0.012084
20.686,66.5500,-0.014501
20.702,66.5500,-0.014501
20.718,66.5500,-0.015710
20.734,66.5500,-0.019335
20.751,66.5500,-0.019335
20.766,66.5500,-0.012084
20.782,66.5500,-0.012084
20.798,66.5500,-0.008459
20.814,66.5500,-0.018127
20.830,66.5500,-0.018127
20.846,66.5500,-0.014501
20.862,66.5500,-0.013293
20.878,66.5500,-0.014501
20.894,66.5500,-0.014501
20.910,66.5500,-0.014501
20.926,66.5500,-0.008459
20.942,66.5500,-0.016918
20.958,66.5500,-0.019335
20.974,66.5500,-0.020544
20.990,66.5500,-0.014501
21.006,66.5500,-0.012084
21.022,66.5500,-0.014501
21.038,66.5500,-0.009668
21.054,66.5500,-0.009668
21.070,66.5500,-0.009668
21.086,66.5500,-0.020544
21.103,66.5500,-0.020544
21.117,66.5500,-0.018127
21.134,66.5500,-0.014501
21.150,66.5500,-0.014501
21.167,66.5500,-0.010876
21.182,66.5500,-0.015710
21.198,66.5500,-0.018127
21.214,66.5500,-0.018127
21.230,66.5500,-0.018127
21.246,66.5500,-0.014501
21.262,66.5500,-0.014501
21.278,66.5500,-0.010876
21.294,66.5500,-0.018127
21.312,66.5500,-0.019335
21.326,66.5500,-0.016918
21.342,66.5500,-0.015710
21.358,66.5500,-0.009668
21.376,66.5500,-0.012084
21.389,66.5500,-0.012084
21.406,66.5500,-0.019335
21.421,66.5500,-0.020544
21.441,66.5500,-0.012084
21.453,66.5500,-0.016918
21.469,66.5500,-0.008459
21.485,66.5500,-0.013293
21.505,66.5500,-0.018127
21.517,66.5500,-0.015710
21.533,66.5500,-0.014501
21.549,66.5500,-0.010876
21.571,66.5500,-0.010876
21.587,66.5500,-0.010876
21.603,66.5500,-0.009668
21.619,66.5500,-0.013293
21.638,66.5500,-0.015710
21.651,66.5500,-0.015710
21.667,66.5500,-0.016918
21.682,66.5500,-0.019335
21.701,66.5500,-0.019335
21.714,66.5500,-0.010876
21.730,66.5500,-0.015710
21.746,66.5500,-0.015710
21.764,66.5500,-0.018127
21.779,66.5500,-0.013293
21.797,66.5500,-0.009668
21.813,66.5500,-0.007251
21.826,66.5500,-0.008459
21.842,66.5500,-0.012084
21.858,66.5500,-0.010876
21.875,66.5500,-0.013293
21.891,66.5500,-0.013293
21.906,66.5500,-0.013293
21.924,66.5500,-0.014501
21.938,66.5500,-0.014501
21.954,66.5500,-0.020544
21.970,66.5500,-0.014501
21.986,66.5500,-0.020544
22.002,66.5500,-0.015710
22.018,66.5500,-0.009668
22.037,66.5500,-0.007251
22.051,66.5500,-0.018127
22.067,66.5500,-0.015710
22.082,66.5500,-0.018127
22.098,66.5500,-0.010876
22.114,66.5500,-0.012084
22.130,66.5500,-0.013293
22.146,66.5500,-0.013293
22.164,66.5500,-0.015710
22.179,66.5500,-0.015710
22.197,66.5500,-0.010876
22.210,66.5500,-0.010876
22.228,66.5500,-0.018127
22.243,66.5500,-0.021752
22.258,66.5500,-0.014501
22.275,66.5500,-0.018127
22.291,66.5500,-0.018127
22.306,66.5500,-0.014501
22.322,66.5500,-0.014501
22.339,66.5500,-0.008459
22.354,66.5500,-0.016918
22.370,66.5500,-0.012084
22.386,66.5500,-0.010876
22.404,66.5500,-0.010876
22.419,66.5500,-0.010876
22.434,66.5500,-0.015710
22.450,66.5500,-0.010876
22.472,66.5500,-0.010876
22.483,66.5500,-0.013293
22.498,66.5500,-0.009668
22.514,66.5500,-0.012084
22.532,66.5500,-0.012084
22.546,66.5500,-0.021752
22.562,66.5500,-0.021752
22.578,66.5500,-0.012084
22.598,66.5500,-0.009668
22.610,66.5500,-0.009668
22.626,66.5500,-0.012084
22.642,66.5500,-0.016918
22.665,66.5500,-0.021752
22.680,66.5500,-0.012084
22.696,66.5500,-0.012084
22.712,66.5500,-0.008459
22.729,66.5500,-0.012084
22.744,66.5500,-0.014501
22.761,66.5500,-0.012084
22.776,66.5500,-0.012084
22.795,66.5500,-0.012084
22.808,66.5500,-0.018127
22.824,66.5500,-0.019335
22.840,66.5500,-0.019335
22.857,66.5500,-0.015710
22.872,66.5500,-0.018127
22.888,66.5500,-0.014501
22.904,66.5500,-0.016918
22.920,66.5500,-0.014501
22.936,66.5500,-0.012084
22.954,66.5500,-0.012084
22.968,66.5500,-0.016918
22.984,66.5500,-0.018127
23.000,66.5500,-0.016918
23.016,66.5500,-0.013293
23.032,66.5500,-0.013293
23.048,66.5500,-0.016918
23.064,66.5500,-0.008459
23.080,66.5500,-0.010876
23.096,66.5500,-0.013293
23.112,66.5500,-0.016918
23.128,66.5500,-0.013293
23.144,66.5500,-0.020544
23.160,66.5500,-0.016918
23.176,66.5500,-0.013293
23.200,66.5500,-0.013293
23.214,66.5500,-0.013293
23.232,66.5500,-0.012084
23.247,66.5500,-0.015710
23.263,66.5500,-0.015710
23.280,66.5500,-0.015710
23.295,66.5500,-0.015710
23.311,66.5500,-0.015710
23.327,66.5500,-0.013293
23.343,66.5500,-0.007251
23.359,66.5500,-0.015710
23.375,66.5500,-0.016918
23.392,66.5500,-0.013293
23.408,66.5500,-0.006042
23.423,66.5500,-0.010876
23.439,66.5500,-0.015710
23.456,66.5500,-0.014501
23.471,66.5500,-0.008459
23.487,66.5500,-0.014501
23.503,66.5500,-0.015710
23.523,66.5500,-0.010876
23.535,66.5500,-0.012084
23.550,66.5500,-0.020544
23.567,66.5500,-0.015710
23.588,66.5500,-0.010876
23.599,66.5500,-0.010876
23.615,66.5500,-0.010876
23.630,66.5500,-0.010876
23.647,66.5500,-0.009668
23.663,66.5500,-0.013293
23.678,66.5500,-0.018127
23.695,66.5500,-0.010876
23.726,66.5500,-0.016918
23.741,66.5500,-0.014501
23.757,66.5500,-0.012084
23.772,66.5500,-0.008459
23.789,66.5500,-0.012084
23.804,66.5500,-0.013293
23.821,66.5500,-0.013293
23.838,66.5500,-0.018127
23.853,66.5500,-0.016918
23.868,66.5500,-0.015710
23.885,66.5500,-0.018127
23.900,66.5500,-0.018127
23.917,66.5500,-0.016918
23.932,66.5500,-0.016918
23.948,66.5500,-0.016918
23.964,66.5500,-0.013293
23.981,66.5500,-0.009668
23.996,66.5500,-0.008459
24.018,66.5500,-0.008459
24.029,66.5500,-0.014501
24.045,66.5500,-0.013293
24.061,66.5500,-0.006042
24.077,66.5500,-0.009668
24.093,66.5500,-0.009668
24.108,66.5500,-0.015710
24.124,66.5500,-0.006042
24.140,66.5500,-0.010876
24.156,66.5500,-0.018127
24.172,66.5500,-0.019335
24.192,66.4371,-0.018127
24.204,66.3114,-0.007251
24.220,66.1438,0.022961
24.236,65.9785,0.045921
24.259,65.7414,0.073715
24.274,65.5822,0.079758
24.290,65.4117,0.096676
24.306,65.2505,0.112386
24.326,65.0384,0.131721
24.339,64.9094,0.148639
24.355,64.7399,0.159515
24.371,64.5703,0.158307
24.387,64.4081,0.159515
24.402,64.2511,0.161932
24.418,64.0815,0.117219
24.435,63.9099,0.117219
24.451,63.7477,-0.003625
24.467,63.5750,0.000000
24.482,63.4190,0.004834
24.498,63.2527,0.007251
24.515,63.0841,-0.006042
24.530,62.9219,-0.001208
24.546,62.7556,0.001208
24.564,62.5662,-0.001208
24.579,62.4082,-0.001208
24.594,62.2563,-0.006042
24.611,62.0786,-0.006042
24.626,61.9214,-0.001208
24.642,61.7582,0.001208
24.658,61.5866,0.006042
24.675,61.4181,0.000000
24.690,61.2476,0.000000
24.706,61.0916,-0.001208
24.723,60.9137,-0.008459
24.739,60.7515,0.002417
24.754,60.5944,-0.065256
24.784,60.4999,-0.108760
24.800,60.4999,-0.006042
24.816,60.4999,0.001208
24.832,60.4999,0.007251
24.849,60.4999,-0.002417
24.865,60.4999,0.000000
24.880,60.4999,0.002417
24.896,60.4999,-0.001208
24.912,60.5659,-0.021752
24.928,60.7271,-0.124470
24.944,60.8904,0.000000
24.962,61.0807,0.000000
24.976,61.2294,0.001208
24.995,61.4229,-0.006042
25.008,61.5623,0.000000
25.025,61.7421,0.009668
25.041,61.9137,0.009668
25.056,62.0615,0.003625
25.073,62.2351,0.003625
25.088,62.3921,-0.004834
25.104,62.5575,-0.006042
25.120,62.7208,-0.006042
25.136,62.8893,-0.004834
25.152,63.0567,-0.004834
25.168,63.2200,-0.007251
25.191,63.4727,0.003625
25.201,63.5726,-0.002417
25.216,63.7172,-0.003625
25.232,63.8846,-0.010876
25.249,64.0624,-0.003625
25.264,64.2288,0.000000
25.280,64.3838,-0.009668
25.310,64.7009,-0.010876
25.325,64.8559,-0.010876
25.341,65.0182,-0.008459
25.357,65.1845,-0.008459
25.376,65.3874,-0.018127
25.389,65.5278,-0.015710
25.406,65.6983,-0.013293
25.421,65.8574,-0.026586
25.438,66.0311,-0.024169
25.453,66.1892,-0.027794
25.469,66.3504,-0.042296
25.487,66.4994,0.004834
25.501,66.4999,-0.050755
25.519,66.4999,-0.050755
25.533,66.4999,-0.049546
25.549,66.4999,-0.056797
25.566,66.4999,-0.042296
25.581,66.4999,-0.042296
25.597,66.4999,-0.033837
25.613,66.4999,-0.035045
25.629,66.4999,-0.033837
25.645,66.4999,-0.030211
25.665,66.4999,-0.030211
25.677,66.4999,-0.029003
25.693,66.4999,-0.029003
25.708,66.4999,-0.021752
25.725,66.4999,-0.030211
25.741,66.4999,-0.027794
25.757,66.4999,-0.037462
25.772,66.4999,-0.037462
25.789,66.4999,-0.026586
25.805,66.4999,-0.030211
25.823,66.4999,-0.020544
25.847,66.4999,-0.024169
25.863,66.4999,-0.027794
25.878,66.4999,-0.029003
25.895,66.4999,-0.032628
25.911,66.4999,-0.027794
25.926,66.4999,-0.027794
25.943,66.4999,-0.024169
25.958,66.4999,-0.026586
25.976,66.4999,-0.024169
25.992,66.4999,-0.024169
26.006,66.4999,-0.025377
26.023,66.4999,-0.031420
26.039,66.4999,-0.029003
26.056,66.4999,-0.018127
26.073,66.4999,-0.018127
26.086,66.4999,-0.022961
26.103,66.4999,-0.025377
26.120,66.4999,-0.025377
26.135,66.4999,-0.022961
26.151,66.4999,-0.022961
26.171,66.4999,-0.022961
26.182,66.4999,-0.020544
26.199,66.4999,-0.018127
26.214,66.4999,-0.024169
26.232,66.4999,-0.024169
26.247,66.4999,-0.020544
26.262,66.4999,-0.022961
26.280,66.4999,-0.020544
26.295,66.4999,-0.016918
26.312,66.4999,-0.018127
26.326,66.4999,-0.021752
26.345,66.4999,-0.020544
26.358,66.4999,-0.026586
26.375,66.4999,-0.024169
26.390,66.4999,-0.026586
26.413,66.4999,-0.026586
26.428,66.4999,-0.019335
26.445,66.4999,-0.020544
26.460,66.4999,-0.018127
26.476,66.4999,-0.020544
26.492,66.4999,-0.026586
26.509,66.4999,-0.015710
26.524,66.4999,-0.015710
26.549,66.4999,-0.015710
26.570,66.4999,-0.018127
26.589,66.4999,-0.030211
26.605,66.4999,-0.022961
26.621,66.4999,-0.022961
26.636,66.4999,-0.015710
26.652,66.4999,-0.019335
26.671,66.4999,-0.016918
26.684,66.4999,-0.020544
26.700,66.4999,-0.024169
26.716,66.4999,-0.018127
26.732,66.4999,-0.018127
26.748,66.4999,-0.020544
26.767,66.4999,-0.016918
26.780,66.4999,-0.013293
26.797,66.4999,-0.019335
26.813,66.4999,-0.014501
26.830,66.4999,-0.014501
26.844,66.4999,-0.025377
26.860,66.4999,-0.018127
26.876,66.4999,-0.022961
26.892,66.4999,-0.022961
26.908,66.4999,-0.018127
26.924,66.4999,-0.015710
26.940,66.4999,-0.015710
26.956,66.4999,-0.019335
26.979,66.4999,-0.021752
26.994,66.4999,-0.014501
27.010,66.4999,-0.013293
27.026,66.4999,-0.021752
27.043,66.4999,-0.021752
27.058,66.4999,-0.027794
27.075,66.4999,-0.013293
27.091,66.4999,-0.013293
27.106,66.4999,-0.010876
27.122,66.4999,-0.015710
27.138,66.4999,-0.022961
27.154,66.4999,-0.021752
27.170,66.4999,-0.018127
27.186,66.4999,-0.016918
27.204,66.4999,-0.019335
27.218,66.4999,-0.012084
27.234,66.4999,-0.012084
27.250,66.4999,-0.014501
27.266,66.4999,-0.015710
27.282,66.4999,-0.024169
27.298,66.4999,-0.025377
27.314,66.4999,-0.022961
27.330,66.4999,-0.019335
27.346,66.4999,-0.018127
27.362,66.4999,-0.018127
27.378,66.4999,-0.012084
27.394,66.4999,-0.018127
27.410,66.4999,-0.018127
27.426,66.4999,-0.019335
27.443,66.4999,-0.018127
27.458,66.4999,-0.013293
27.475,66.4999,-0.021752
27.500,66.4999,-0.018127
27.516,66.4999,-0.019335
27.532,66.4999,-0.020544
27.548,66.4999,-0.020544
27.565,66.4999,-0.018127
27.581,66.4999,-0.018127
27.597,66.4999,-0.016918
27.612,66.4999,-0.016918
27.628,66.4999,-0.018127
27.644,66.4999,-0.016918
27.660,66.4999,-0.016918
27.675,66.4999,-0.014501
27.692,66.4999,-0.014501
27.708,66.4999,-0.019335
27.724,66.4999,-0.019335
27.740,66.4999,-0.015710
27.756,66.4999,-0.021752
27.772,66.4999,-0.022961
27.788,66.4999,-0.019335
27.809,66.4999,-0.019335
27.820,66.4999,-0.016918
27.836,66.4999,-0.020544
27.852,66.4999,-0.020544
27.869,66.4999,-0.015710
27.884,66.4999,-0.019335
27.899,66.4999,-0.018127
27.916,66.4999,-0.018127
27.935,66.4999,-0.018127
27.947,66.4999,-0.021752
27.964,66.4999,-0.021752
27.980,66.4999,-0.021752
27.998,66.4999,-0.018127
28.013,66.4999,-0.014501
28.030,66.4999,-0.015710
28.053,66.4999,-0.012084
28.069,66.4999,-0.012084
28.085,66.4999,-0.018127
28.101,66.4999,-0.013293
28.117,66.4999,-0.013293
28.134,66.4999,-0.018127
28.152,66.4999,-0.018127
28.166,66.4999,-0.021752
28.182,66.4999,-0.018127
28.198,66.4999,-0.020544
28.213,66.4999,-0.013293
28.230,66.4999,-0.013293
28.245,66.4999,-0.018127
28.263,66.4999,-0.018127
28.277,66.4999,-0.016918
28.294,66.4999,-0.020544
28.310,66.4999,-0.021752
28.325,66.4999,-0.018127
28.342,66.4999,-0.019335
28.360,66.4999,-0.019335
28.373,66.4999,-0.020544
28.390,66.4999,-0.025377
28.407,66.4999,-0.016918
28.422,66.4999,-0.016918
28.438,66.4999,-0.010876
28.453,66.4999,-0.020544
28.472,66.4999,-0.018127
28.486,66.4999,-0.018127
28.501,66.4999,-0.016918
28.517,66.4999,-0.019335
28.534,66.4999,-0.022961
28.550,66.4999,-0.019335
28.566,66.4999,-0.018127
28.581,66.4999,-0.014501
28.597,66.4999,-0.016918
28.614,66.4999,-0.019335
28.630,66.4999,-0.015710
28.645,66.4999,-0.020544
28.661,66.4999,-0.020544
28.677,66.4999,-0.014501
28.693,66.4999,-0.019335
28.714,66.4999,-0.019335
28.726,66.4999,-0.016918
28.741,66.4999,-0.016918
28.757,66.4999,-0.015710
28.773,66.4999,-0.014501
28.791,66.4999,-0.015710
28.805,66.4999,-0.024169
28.822,66.4999,-0.015710
28.837,66.4999,-0.015710
28.853,66.4999,-0.015710
28.869,66.4999,-0.022961
28.886,66.4999,-0.021752
28.902,66.4999,-0.021752
28.917,66.4999,-0.014501
28.934,66.4999,-0.019335
28.949,66.4999,-0.016918
28.965,66.4999,-0.010876
28.981,66.4999,-0.018127
29.000,66.4999,-0.018127
29.013,66.4999,-0.022961
29.029,66.4999,-0.014501
29.045,66.4999,-0.010876
29.063,66.4999,-0.010876
29.078,66.4999,-0.013293
29.094,66.4999,-0.020544
29.119,66.4999,-0.022961
29.134,66.4999,-0.021752
29.150,66.4999,-0.013293
29.166,66.4999,-0.014501
29.183,66.4999,-0.013293
29.198,66.4999,-0.019335
29.217,66.4999,-0.021752
29.230,66.4999,-0.021752
29.248,66.4999,-0.015710
29.263,66.4999,-0.015710
29.278,66.4999,-0.009668
29.295,66.4999,-0.013293
29.311,66.4999,-0.013293
29.326,66.4999,-0.020544
29.342,66.4999,-0.020544
29.360,66.4999,-0.014501
29.375,66.4999,-0.014501
29.390,66.4999,-0.014501
29.407,66.4999,-0.016918
29.422,66.4999,-0.016918
29.438,66.4999,-0.015710
29.454,66.4999,-0.018127
29.473,66.4999,-0.018127
29.486,66.4999,-0.015710
29.502,66.4999,-0.016918
29.518,66.4999,-0.016918
29.535,66.4999,-0.014501
29.550,66.4999,-0.015710
29.566,66.4999,-0.018127
29.582,66.4999,-0.015710
29.598,66.4999,-0.020544
29.614,66.4999,-0.015710
29.631,66.4999,-0.014501
29.659,66.4999,-0.014501
29.675,66.4999,-0.015710
29.691,66.4999,-0.020544
29.707,66.4999,-0.020544
29.724,66.4999,-0.012084
29.739,66.4999,-0.007251
29.755,66.4999,-0.008459
29.771,66.4999,-0.014501
29.788,66.4999,-0.021752
29.804,66.4999,-0.016918
29.820,66.4999,-0.021752
29.834,66.4999,-0.018127
29.851,66.4999,-0.012084
29.867,66.4999,-0.015710
29.883,66.4999,-0.014501
29.899,66.4999,-0.016918
29.914,66.4999,-0.018127
29.931,66.4999,-0.018127
29.946,66.4999,-0.019335
29.970,66.4999,-0.009668
29.980,66.4999,-0.013293
29.995,66.4999,-0.012084
30.013,66.4999,-0.021752
30.027,66.4999,-0.014501
30.043,66.4999,-0.013293
30.059,66.4999,-0.010876
30.075,66.4999,-0.018127
30.091,66.4999,-0.018127
30.107,66.4999,-0.016918
30.122,66.4999,-0.014501
30.139,66.4999,-0.021752
30.155,66.4999,-0.015710
30.171,66.4999,-0.013293
30.186,66.4999,-0.015710
30.214,66.4999,-0.008459
30.230,66.4999,-0.012084
30.247,66.4999,-0.013293
30.262,66.4999,-0.019335
30.279,66.4999,-0.018127
30.295,66.4999,-0.009668
30.310,66.4999,-0.009668
30.326,66.4999,-0.012084
30.343,66.4999,-0.016918
30.359,66.4999,-0.014501
30.375,66.4999,-0.015710
30.390,66.4999,-0.016918
30.407,66.4999,-0.009668
30.423,66.4999,-0.013293
30.438,66.4999,-0.016918
30.454,66.4999,-0.021752
30.470,66.4999,-0.015710
30.487,66.4999,-0.019335
30.502,66.4999,-0.019335
30.519,66.4999,-0.016918
30.541,66.4999,-0.014501
30.565,66.4999,-0.015710
30.582,66.4999,-0.018127
30.598,66.4999,-0.014501
30.615,66.4999,-0.014501
30.630,66.4999,-0.010876
30.647,66.4999,-0.016918
30.662,66.4999,-0.013293
30.678,66.4999,-0.016918
30.694,66.4999,-0.015710
30.712,66.4999,-0.015710
30.726,66.4999,-0.021752
30.742,66.4999,-0.014501
30.758,66.4999,-0.016918
30.780,66.4999,-0.016918
30.795,66.4999,-0.015710
30.811,66.4999,-0.015710
30.827,66.4999,-0.015710
30.844,66.4999,-0.015710
30.860,66.4999,-0.013293
30.875,66.4999,-0.015710
30.891,66.4999,-0.013293
30.907,66.4999,-0.020544
30.924,66.4999,-0.020544
30.939,66.4999,-0.015710
30.961,66.4999,-0.018127
30.972,66.4999,-0.016918
30.988,66.4999,-0.016918
31.005,66.4999,-0.018127
31.020,66.4999,-0.010876
31.035,66.4999,-0.012084
31.052,66.4999,-0.013293
31.067,66.4999,-0.010876
31.083,66.4999,-0.012084
31.100,66.4999,-0.019335
31.118,66.4999,-0.010876
31.131,66.4999,-0.010876
31.148,66.4999,-0.014501
31.163,66.4999,-0.014501
31.179,66.4999,-0.016918
31.196,66.4999,-0.019335
31.220,66.4999,-0.019335
31.244,66.4999,-0.012084
31.259,66.4999,-0.015710
31.275,66.4999,-0.018127
31.291,66.4999,-0.021752
31.307,66.4999,-0.013293
31.332,66.4999,-0.015710
31.347,66.4999,-0.014501
31.363,66.4999,-0.018127
31.379,66.4999,-0.021752
31.395,66.4999,-0.018127
31.411,66.4999,-0.018127
31.427,66.4999,-0.016918
31.443,66.4999,-0.016918
31.459,66.4999,-0.013293
31.475,66.4999,-0.013293
31.491,66.4999,-0.018127
31.509,66.4999,-0.015710
31.524,66.4999,-0.018127
31.540,66.4999,-0.018127
31.555,66.4999,-0.018127
31.573,66.4999,-0.018127
31.587,66.4999,-0.015710
31.603,66.4999,-0.018127
31.619,66.4999,-0.018127
31.640,66.4999,-0.018127
31.651,66.4999,-0.020544
31.667,66.4999,-0.015710
31.683,66.4999,-0.012084
31.703,66.4999,-0.012084
31.715,66.4999,-0.010876
31.731,66.4999,-0.010876
31.747,66.4999,-0.019335
31.767,66.4999,-0.016918
31.779,66.4999,-0.010876
31.795,66.4999,-0.020544
31.812,66.4999,-0.021752
31.828,66.4999,-0.018127
31.843,66.4999,-0.021752
31.859,66.4999,-0.021752
31.876,66.4999,-0.013293
31.891,66.4999,-0.013293
31.907,66.4999,-0.014501
31.923,66.4999,-0.013293
31.947,66.4999,-0.013293
31.958,66.4999,-0.010876
31.971,66.4999,-0.010876
31.988,66.4999,-0.014501
32.004,66.4999,-0.013293
32.020,66.4999,-0.020544
32.034,66.4999,-0.019335
32.051,66.4999,-0.019335
32.071,66.4999,-0.019335
32.083,66.4999,-0.014501
32.098,66.4999,-0.016918
32.114,66.4999,-0.013293
32.131,66.4999,-0.012084
32.147,66.4999,-0.010876
32.163,66.4999,-0.018127
32.179,66.4999,-0.018127
32.196,66.4999,-0.014501
32.211,66.4999,-0.016918
32.227,66.4999,-0.014501
32.243,66.4999,-0.014501
32.259,66.4999,-0.012084
32.275,66.4999,-0.014501
32.292,66.4999,-0.014501
32.306,66.4999,-0.020544
32.323,66.4999,-0.020544
32.339,66.4999,-0.010876
32.354,66.4999,-0.010876
32.370,66.4999,-0.010876
32.386,66.4999,-0.012084
32.403,66.4999,-0.018127
32.418,66.4999,-0.015710
32.441,66.4999,-0.015710
32.456,66.4999,-0.020544
32.473,66.4999,-0.012084
32.488,66.4999,-0.013293
32.508,66.4999,-0.019335
32.520,66.4999,-0.012084
32.538,66.4999,-0.018127
32.552,66.4999,-0.015710
32.572,66.4999,-0.015710
32.585,66.4999,-0.012084
32.600,66.4999,-0.012084
32.616,66.4999,-0.015710
32.633,66.4999,-0.018127
32.649,66.4999,-0.015710
32.665,66.4999,-0.019335
32.680,66.4999,-0.019335
32.696,66.4999,-0.016918
32.712,66.4999,-0.015710
32.728,66.4999,-0.012084
32.749,66.4999,-0.012084
32.760,66.4999,-0.018127
32.776,66.4999,-0.018127
32.792,66.4999,-0.015710
32.809,66.4999,-0.015710
32.824,66.4999,-0.010876
32.840,66.4999,-0.006042
32.856,66.4999,-0.009668
32.873,66.4999,-0.010876
32.889,66.4999,-0.013293
32.904,66.4999,-0.018127
32.920,66.4999,-0.014501
32.940,66.4999,-0.021752
32.952,66.4999,-0.021752
32.968,66.4999,-0.013293
32.984,66.4999,-0.013293
33.006,66.4999,-0.016918
33.022,66.4999,-0.016918
33.038,66.4999,-0.012084
33.054,66.4999,-0.012084
33.074,66.4999,-0.019335
33.086,66.4999,-0.018127
33.103,66.4999,-0.019335
33.118,66.4999,-0.019335
33.137,66.4999,-0.014501
33.150,66.4999,-0.016918
33.166,66.4999,-0.014501
33.182,66.4999,-0.009668
33.200,66.4999,-0.014501
33.214,66.4999,-0.016918
33.230,66.4999,-0.015710
33.246,66.4999,-0.015710
33.264,66.4999,-0.018127
33.280,66.4999,-0.014501
33.296,66.4999,-0.012084
33.311,66.4999,-0.016918
33.326,66.4999,-0.020544
33.343,66.4999,-0.015710
33.358,66.4999,-0.012084
33.375,66.4999,-0.016918
33.390,66.4999,-0.016918
33.406,66.4999,-0.012084
33.422,66.4999,-0.015710
33.438,66.4999,-0.015710
33.454,66.4999,-0.016918
33.470,66.4999,-0.015710
33.490,66.4999,-0.018127
33.504,66.4999,-0.019335
33.520,66.4999,-0.012084
33.534,66.4999,-0.013293
33.550,66.4999,-0.019335
33.566,66.4999,-0.014501
33.582,66.4999,-0.016918
33.598,66.4999,-0.016918
33.614,66.4999,-0.015710
33.631,66.4999,-0.015710
33.646,66.4999,-0.015710
33.662,66.4999,-0.010876
33.678,66.4999,-0.018127
33.696,66.4999,-0.021752
33.711,66.4999,-0.024169
33.726,66.4999,-0.016918
33.742,66.4999,-0.015710
33.761,66.4999,-0.015710
33.775,66.4999,-0.012084
33.790,66.4999,-0.012084
33.806,66.4999,-0.012084
33.823,66.4999,-0.016918
33.839,66.4999,-0.016918
33.854,66.4999,-0.012084
33.871,66.4999,-0.012084
33.886,66.4999,-0.015710
33.902,66.4999,-0.015710
33.918,66.4999,-0.015710
33.934,66.4999,-0.013293
33.950,66.4999,-0.010876
33.966,66.4999,-0.014501
33.983,66.4999,-0.012084
33.998,66.4999,-0.014501
34.014,66.4999,-0.013293
34.030,66.4999,-0.010876
34.049,66.4999,-0.020544
34.062,66.4999,-0.019335
34.078,66.4999,-0.019335
34.094,66.4999,-0.014501
34.118,66.4999,-0.006042
34.133,66.4999,-0.016918
34.149,66.4999,-0.014501
34.165,66.4999,-0.010876
34.181,66.4999,-0.010876
34.197,66.4999,-0.010876
34.213,66.4999,-0.013293
34.229,66.4999,-0.015710
34.249,66.4999,-0.018127
34.261,66.4999,-0.018127
34.277,66.4999,-0.013293
34.294,66.4999,-0.010876
34.309,66.4999,-0.010876
34.324,66.4999,-0.010876
34.340,66.4999,-0.010876
34.357,66.4999,-0.025377
34.373,66.4999,-0.014501
34.389,66.4999,-0.014501
34.405,66.4999,-0.015710
34.420,66.4999,-0.009668
34.439,66.4999,-0.014501
34.453,66.4999,-0.021752
34.469,66.4999,-0.021752
34.485,66.4999,-0.016918
34.500,66.4999,-0.016918
34.516,66.4999,-0.010876
34.532,66.4999,-0.018127
34.551,66.4999,-0.018127
34.564,66.4999,-0.014501
34.580,66.4999,-0.015710
34.596,66.4999,-0.014501
34.614,66.4999,-0.015710
34.628,66.4999,-0.018127
34.644,66.4999,-0.012084
34.667,66.4999,-0.012084
34.683,66.4999,-0.012084
34.700,66.4999,-0.015710
34.716,66.4999,-0.013293
34.732,66.4999,-0.013293
34.748,66.4999,-0.013293
34.765,66.4999,-0.012084
34.779,66.4999,-0.012084
34.799,66.4999,-0.013293
34.812,66.4999,-0.015710
34.828,66.4999,-0.019335
34.843,66.4999,-0.016918
34.860,66.4999,-0.016918
34.876,66.4999,-0.015710
34.891,66.4999,-0.015710
34.908,66.4999,-0.013293
34.924,66.4999,-0.021752
34.939,66.4999,-0.025377
34.955,66.4999,-0.012084
34.976,66.4999,-0.012084
34.988,66.4999,-0.014501
35.004,66.4999,-0.016918
35.019,66.4999,-0.016918
35.038,66.4999,-0.013293
35.052,66.4999,-0.020544
35.068,66.4999,-0.018127
35.083,66.4999,-0.014501
35.100,66.4999,-0.012084
35.116,66.4999,-0.010876
35.132,66.4999,-0.016918
35.147,66.4999,-0.015710
35.165,66.4999,-0.013293
35.179,66.4999,-0.015710
35.195,66.4999,-0.010876
35.211,66.4999,-0.018127
35.232,66.4999,-0.018127
35.248,66.4999,-0.008459
35.264,66.4999,-0.014501
35.280,66.4999,-0.024169
35.297,66.4999,-0.016918
35.312,66.4999,-0.013293
35.332,66.4999,-0.015710
35.346,66.4999,-0.012084
35.361,66.4999,-0.014501
35.377,66.4999,-0.016918
35.392,66.4999,-0.016918
35.409,66.4999,-0.018127
35.424,66.4999,-0.019335
35.441,66.4999,-0.009668
35.457,66.4999,-0.012084
35.472,66.4999,-0.006042
35.489,66.4999,-0.009668
35.504,66.4999,-0.019335
35.520,66.4999,-0.013293
35.536,66.4999,-0.014501
35.552,66.4999,-0.007251
35.569,66.4999,-0.013293
35.585,66.4999,-0.013293
35.602,66.4999,-0.010876
35.616,66.4999,-0.016918
35.633,66.4999,-0.016918
35.648,66.4999,-0.016918
35.665,66.4999,-0.013293
35.681,66.4999,-0.013293
35.697,66.4999,-0.009668
35.713,66.4999,-0.014501
35.728,66.4999,-0.014501
35.753,66.4999,-0.019335
35.769,66.4999,-0.010876
35.785,66.4999,-0.015710
35.801,66.4999,-0.012084
35.822,66.4999,-0.016918
35.834,66.4999,-0.013293
35.850,66.4999,-0.012084
35.865,66.4999,-0.018127
35.881,66.4999,-0.018127
35.897,66.4999,-0.012084
35.913,66.4999,-0.012084
35.929,66.4999,-0.008459
35.946,66.4999,-0.013293
35.961,66.4999,-0.013293
35.978,66.4999,-0.013293
36.000,66.4999,-0.022961
36.024,66.4999,-0.013293
36.043,66.4999,-0.013293
36.057,66.4999,-0.014501
36.073,66.4999,-0.015710
36.089,66.4999,-0.015710
36.107,66.4999,-0.019335
36.121,66.4999,-0.019335
36.137,66.4999,-0.014501
36.153,66.4999,-0.009668
36.170,66.4999,-0.009668
36.185,66.4999,-0.013293
36.201,66.4999,-0.018127
36.217,66.4999,-0.010876
36.234,66.4999,-0.010876
36.249,66.4999,-0.009668
36.265,66.4999,-0.008459
36.293,66.4999,-0.014501
36.308,66.4999,-0.016918
36.324,66.4999,-0.018127
36.339,66.4999,-0.014501
36.357,66.4999,-0.016918
36.372,66.4999,-0.010876
36.389,66.4999,-0.010876
36.404,66.4999,-0.014501
36.422,66.4999,-0.014501
36.436,66.4999,-0.010876
36.455,66.4999,-0.010876
36.468,66.4999,-0.015710
36.490,66.4999,-0.015710
36.504,66.4999,-0.015710
36.516,66.4999,-0.014501
36.531,66.4999,-0.015710
36.548,66.4999,-0.008459
36.564,66.4999,-0.015710
36.579,66.4999,-0.013293
36.596,66.4999,-0.015710
36.614,66.4999,-0.013293
36.628,66.4999,-0.015710
36.643,66.4999,-0.010876
36.659,66.4999,-0.020544
36.676,66.4999,-0.014501
36.691,66.4999,-0.009668
36.707,66.4999,-0.010876
36.725,66.4999,-0.012084
36.740,66.4999,-0.014501
36.755,66.4999,-0.014501
36.772,66.4999,-0.019335
36.790,66.4999,-0.018127
36.804,66.4999,-0.015710
36.819,66.4999,-0.014501
36.849,66.4999,-0.016918
36.865,66.4999,-0.018127
36.881,66.4999,-0.015710
36.898,66.4999,-0.012084
36.914,66.4999,-0.014501
36.930,66.4999,-0.019335
36.946,66.4999,-0.010876
36.963,66.4552,-0.009668
36.978,66.2945,0.088217
36.996,66.1114,0.027794
37.010,65.9710,0.027794
37.026,65.7963,0.048338
37.042,65.6372,0.043504
37.057,65.4759,0.079758
37.074,65.2971,0.079758
37.093,65.0974,0.109969
37.105,64.9758,0.140180
37.121,64.8093,0.154681
37.138,64.6264,0.167974
37.155,64.4609,0.174016
37.170,64.3049,0.164349
37.185,64.1438,0.153473
37.202,63.9638,0.153473
37.217,63.8109,0.047129
37.233,63.6425,0.001208
37.249,63.4792,0.002417
37.267,63.2910,-0.002417
37.282,63.1391,0.001208
37.298,62.9707,-0.006042
37.316,62.7886,0.008459
37.329,62.6451,0.001208
37.345,62.4808,-0.006042
37.361,62.3164,0.000000
37.383,62.0825,0.003625
37.399,61.9182,0.003625
37.415,61.7580,0.006042
37.430,61.5957,0.006042
37.448,61.4159,-0.003625
37.463,61.2609,-0.003625
37.479,61.0809,-0.001208
37.494,60.9322,-0.006042
37.510,60.7638,-0.006042
37.526,60.5974,0.002417
37.542,60.4571,-0.087008
37.560,60.4499,-0.082174
37.575,60.4499,-0.010876
37.591,60.4499,-0.010876
37.607,60.4499,-0.004834
37.622,60.4499,0.003625
37.639,60.4499,0.003625
37.654,60.4499,-0.002417
37.670,60.4499,-0.002417
37.688,60.4499,-0.008459
37.704,60.4499,-0.003625
37.719,60.4499,0.004834
37.735,60.4499,-0.003625
37.751,60.4499,0.000000
37.766,60.4499,-0.004834
37.782,60.4499,-0.004834
37.798,60.4499,-0.002417
37.814,60.4499,0.000000
37.831,60.4499,-0.003625
37.846,60.4499,0.002417
37.863,60.4499,0.002417
37.878,60.4505,-0.002417
37.895,60.5742,-0.060422
37.910,60.7343,0.004834
37.926,60.8966,-0.009668
37.950,61.1483,-0.009668
37.965,61.3095,0.002417
37.981,61.4738,0.002417
37.997,61.6339,-0.009668
38.013,61.8055,-0.010876
38.030,61.9792,-0.007251
38.045,62.1352,-0.007251
38.063,62.3297,-0.007251
38.077,62.4680,-0.002417
38.093,62.6354,0.003625
38.109,62.7988,-0.009668
38.125,62.9755,-0.002417
38.141,63.1336,-0.002417
38.157,63.3011,0.001208
38.173,63.4675,-0.006042
38.191,63.6547,-0.004834
38.206,63.8127,-0.003625
38.221,63.9625,-0.002417
38.240,64.1674,-0.003625
38.253,64.2952,-0.010876
38.269,64.4648,-0.006042
38.285,64.6281,-0.007251
38.304,64.8402,-0.006042
38.317,64.9640,-0.002417
38.333,65.1325,-0.014501
38.349,65.2947,-0.019335
38.366,65.4902,-0.014501
38.382,65.6358,-0.015710
38.400,65.8324,-0.015710
38.413,65.9593,-0.029003
38.430,66.1413,-0.029003
38.446,66.3014,-0.031420
38.461,66.4399,0.042296
38.484,66.4499,-0.051963
38.500,66.4499,-0.037462
38.516,66.4499,-0.043504
38.532,66.4499,-0.047129
38.548,66.4499,-0.039879
38.564,66.4499,-0.029003
38.580,66.4499,-0.029003
38.596,66.4499,-0.038670
38.614,66.4499,-0.036253
38.628,66.4499,-0.022961
38.644,66.4499,-0.032628
38.659,66.4499,-0.031420
38.676,66.4499,-0.032628
38.692,66.4499,-0.027794
38.708,66.4499,-0.031420
38.725,66.4499,-0.031420
38.740,66.4499,-0.022961
