Elapsed Time (s),Position (mm),Force (N)
-0.016,61.6001,-0.044713
0.001,61.6001,-0.044713
0.016,61.6001,-0.044713
0.033,61.6001,-0.039879
0.048,61.6001,-0.044713
0.065,61.6001,-0.043504
0.080,61.6001,-0.047129
0.097,61.6001,-0.039879
0.112,61.6001,-0.037462
0.133,61.6001,-0.041087
0.144,61.6001,-0.039879
0.161,61.6001,-0.042296
0.176,61.6001,-0.045921
0.193,61.6001,-0.038670
0.208,61.6001,-0.037462
0.224,61.6001,-0.044713
0.240,61.6001,-0.042296
0.257,61.6001,-0.037462
0.272,61.6001,-0.037462
0.288,61.6001,-0.036253
0.317,61.6001,-0.039879
0.333,61.6001,-0.037462
0.351,61.6001,-0.041087
0.365,61.6001,-0.038670
0.381,61.6001,-0.037462
0.398,61.6001,-0.033837
0.415,61.6001,-0.038670
0.429,61.6001,-0.038670
0.446,61.6001,-0.036253
0.461,61.6001,-0.042296
0.479,61.6001,-0.032628
0.493,61.6001,-0.032628
0.509,61.6001,-0.035045
0.525,61.6001,-0.035045
0.541,61.6001,-0.037462
0.557,61.6001,-0.043504
0.573,61.6001,-0.041087
0.589,61.6001,-0.033837
0.605,61.6001,-0.031420
0.628,61.6001,-0.038670
0.652,61.6001,-0.035045
0.669,61.6001,-0.038670
0.686,61.6001,-0.038670
0.701,61.6001,-0.036253
0.717,61.6001,-0.036253
0.733,61.6001,-0.036253
0.751,61.6001,-0.036253
0.765,61.6001,-0.035045
0.782,61.6001,-0.032628
0.797,61.6001,-0.038670
0.813,61.6001,-0.036253
0.829,61.6001,-0.033837
0.845,61.6001,-0.031420
0.872,61.6001,-0.030211
0.888,61.6001,-0.027794
0.904,61.6001,-0.036253
0.920,61.6001,-0.037462
0.936,61.6001,-0.038670
0.952,61.6001,-0.036253
0.970,61.6001,-0.031420
0.984,61.6001,-0.032628
1.001,61.6001,-0.032628
1.016,61.6001,-0.032628
1.032,61.6001,-0.038670
1.048,61.6001,-0.036253
1.064,61.6001,-0.038670
1.080,61.6001,-0.032628
1.096,61.6001,-0.032628
1.112,61.6001,-0.033837
1.127,61.6001,-0.035045
1.144,61.6001,-0.035045
1.159,61.6001,-0.030211
1.177,61.6001,-0.030211
1.192,61.6001,-0.029003
1.208,61.6001,-0.030211
1.223,61.6001,-0.032628
1.240,61.6001,-0.032628
1.255,61.6001,-0.033837
1.271,61.6001,-0.032628
1.289,61.6001,-0.033837
1.304,61.6001,-0.037462
1.319,61.6001,-0.032628
1.336,61.6001,-0.033837
1.355,61.6001,-0.031420
1.367,61.6001,-0.035045
1.384,61.6001,-0.039879
1.399,61.6001,-0.031420
1.420,61.6001,-0.032628
1.436,61.6001,-0.026586
1.453,61.6001,-0.027794
1.468,61.6001,-0.032628
1.485,61.6001,-0.036253
1.501,61.6001,-0.030211
1.516,61.6001,-0.032628
1.532,61.6001,-0.035045
1.549,61.6001,-0.033837
1.564,61.6001,-0.033837
1.582,61.6001,-0.027794
1.598,61.6001,-0.024169
1.613,61.6001,-0.033837
1.628,61.6001,-0.035045
1.645,61.6001,-0.031420
1.661,61.6001,-0.037462
1.676,61.6001,-0.027794
1.693,61.6001,-0.027794
1.708,61.6001,-0.036253
1.724,61.6001,-0.036253
1.740,61.6001,-0.031420
1.757,61.6001,-0.033837
1.772,61.6001,-0.033837
1.788,61.6001,-0.032628
1.804,61.6001,-0.032628
1.820,61.6001,-0.027794
1.838,61.6001,-0.026586
1.852,61.6001,-0.031420
1.868,61.6001,-0.035045
1.884,61.6001,-0.035045
1.900,61.6001,-0.032628
1.916,61.6001,-0.027794
1.933,61.6001,-0.030211
1.948,61.6001,-0.026586
1.970,61.6001,-0.036253
1.986,61.6001,-0.036253
2.002,61.6001,-0.030211
2.018,61.6001,-0.033837
2.035,61.6001,-0.033837
2.050,61.6001,-0.029003
2.067,61.6001,-0.030211
2.082,61.6001,-0.033837
2.098,61.6001,-0.030211
2.114,61.6001,-0.030211
2.130,61.6001,-0.030211
2.146,61.6001,-0.031420
2.162,61.6001,-0.032628
2.178,61.6001,-0.029003
2.194,61.6001,-0.027794
2.214,61.6001,-0.031420
2.226,61.6001,-0.030211
2.242,61.6001,-0.032628
2.258,61.6001,-0.031420
2.275,61.6001,-0.036253
2.290,61.6001,-0.032628
2.306,61.6001,-0.026586
2.322,61.6001,-0.026586
2.339,61.6001,-0.030211
2.354,61.6001,-0.030211
2.370,61.6001,-0.033837
2.386,61.6001,-0.027794
2.407,61.6001,-0.027794
2.418,61.6001,-0.022961
2.434,61.6001,-0.022961
2.450,61.6001,-0.032628
2.466,61.6001,-0.032628
2.482,61.6001,-0.035045
2.498,61.6001,-0.032628
2.519,61.6001,-0.029003
2.535,61.6001,-0.030211
2.551,61.6001,-0.031420
2.567,61.6001,-0.026586
2.585,61.6001,-0.029003
2.599,61.6001,-0.030211
2.615,61.6001,-0.030211
2.631,61.6001,-0.024169
2.647,61.6001,-0.030211
2.663,61.6001,-0.030211
2.679,61.6001,-0.026586
2.695,61.6001,-0.032628
2.717,61.6001,-0.029003
2.728,61.6001,-0.032628
2.743,61.6001,-0.029003
2.759,61.6001,-0.029003
2.775,61.6001,-0.026586
2.791,61.6001,-0.024169
2.807,61.6001,-0.024169
2.824,61.6001,-0.025377
2.840,61.6001,-0.035045
2.855,61.6001,-0.035045
2.871,61.6001,-0.029003
2.889,61.6001,-0.026586
2.903,61.6001,-0.025377
2.919,61.6001,-0.030211
2.935,61.6001,-0.030211
2.952,61.6001,-0.030211
2.967,61.6001,-0.030211
2.983,61.6001,-0.029003
2.999,61.6001,-0.024169
3.016,61.6001,-0.029003
3.031,61.6001,-0.022961
3.049,61.6001,-0.026586
3.072,61.6001,-0.031420
3.088,61.6001,-0.029003
3.105,61.6001,-0.031420
3.120,61.6001,-0.030211
3.136,61.6001,-0.030211
3.153,61.6001,-0.030211
3.168,61.6001,-0.029003
3.185,61.6001,-0.029003
3.201,61.6001,-0.026586
3.217,61.6001,-0.026586
3.234,61.6001,-0.026586
3.248,61.6001,-0.030211
3.264,61.6001,-0.030211
3.280,61.6001,-0.026586
3.296,61.6001,-0.026586
3.312,61.6001,-0.035045
3.328,61.6001,-0.029003
3.344,61.6001,-0.025377
3.360,61.6001,-0.021752
3.378,61.6001,-0.022961
3.392,61.6001,-0.022961
3.408,61.6001,-0.026586
3.425,61.6001,-0.024169
3.441,61.6001,-0.030211
3.457,61.6001,-0.025377
3.473,61.6001,-0.025377
3.489,61.6001,-0.025377
3.510,61.6001,-0.029003
3.529,61.6001,-0.026586
3.544,61.6001,-0.027794
3.560,61.6001,-0.025377
3.575,61.6001,-0.029003
3.590,61.6001,-0.030211
3.606,61.6001,-0.026586
3.626,61.6001,-0.029003
3.642,61.6001,-0.032628
3.658,61.6001,-0.031420
3.674,61.6001,-0.026586
3.693,61.6001,-0.027794
3.707,61.6001,-0.030211
3.723,61.6001,-0.029003
3.738,61.6001,-0.026586
3.755,61.6001,-0.026586
3.770,61.6001,-0.024169
3.786,61.6001,-0.031420
3.802,61.6001,-0.026586
3.818,61.6001,-0.027794
3.834,61.6001,-0.025377
3.850,61.6001,-0.025377
3.867,61.6001,-0.025377
3.883,61.6001,-0.031420
3.899,61.6001,-0.032628
3.914,61.6001,-0.025377
3.933,61.6001,-0.031420
3.946,61.6001,-0.029003
3.963,61.6001,-0.029003
3.978,61.6001,-0.022961
3.997,61.6001,-0.022961
4.010,61.6001,-0.025377
4.026,61.6001,-0.030211
4.042,61.6001,-0.031420
4.060,61.6001,-0.027794
4.075,61.6001,-0.027794
4.090,61.6001,-0.032628
4.106,61.6001,-0.032628
4.122,61.6001,-0.032628
4.138,61.6001,-0.026586
4.154,61.6001,-0.030211
4.183,61.6001,-0.030211
4.199,61.6001,-0.027794
4.215,61.6001,-0.027794
4.231,61.6001,-0.025377
4.248,61.6001,-0.027794
4.263,61.6001,-0.027794
4.279,61.6001,-0.026586
4.299,61.6001,-0.026586
4.311,61.6001,-0.030211
4.327,61.6001,-0.024169
4.343,61.6001,-0.024169
4.359,61.6001,-0.030211
4.379,61.6001,-0.035045
4.391,61.6001,-0.031420
4.407,61.6001,-0.027794
4.424,61.6001,-0.027794
4.439,61.6001,-0.026586
4.455,61.6001,-0.022961
4.471,61.6001,-0.022961
4.488,61.6001,-0.025377
4.503,61.6001,-0.022961
4.519,61.6001,-0.026586
4.535,61.6001,-0.026586
4.552,61.6001,-0.021752
4.567,61.6001,-0.025377
4.583,61.6001,-0.025377
4.599,61.6001,-0.026586
4.615,61.6001,-0.030211
4.631,61.6001,-0.030211
4.647,61.6001,-0.027794
4.663,61.6001,-0.027794
4.680,61.6001,-0.026586
4.696,61.6001,-0.022961
4.713,61.6001,-0.031420
4.737,61.6001,-0.031420
4.753,61.6001,-0.025377
4.769,61.6001,-0.025377
4.785,61.6001,-0.022961
4.801,61.6001,-0.027794
4.817,61.6001,-0.022961
4.835,61.6001,-0.022961
4.849,61.6001,-0.024169
4.865,61.6001,-0.027794
4.881,61.6001,-0.026586
4.897,61.6001,-0.022961
4.913,61.6001,-0.022961
4.929,61.6001,-0.026586
4.945,61.6001,-0.027794
4.960,61.6001,-0.025377
4.984,61.6001,-0.026586
5.007,61.6001,-0.024169
5.027,61.6001,-0.027794
5.041,61.6001,-0.026586
5.057,61.6001,-0.030211
5.073,61.6001,-0.024169
5.089,61.6001,-0.026586
5.106,61.6001,-0.030211
5.121,61.6001,-0.032628
5.137,61.6001,-0.029003
5.153,61.6001,-0.027794
5.169,61.6001,-0.024169
5.185,61.6001,-0.021752
5.201,61.6001,-0.029003
5.217,61.6001,-0.029003
5.234,61.6001,-0.029003
5.249,61.6001,-0.024169
5.266,61.6001,-0.026586
5.290,61.6001,-0.022961
5.312,61.6001,-0.026586
5.330,61.6001,-0.027794
5.346,61.6001,-0.029003
5.362,61.6001,-0.025377
5.377,61.6001,-0.026586
5.393,61.6001,-0.025377
5.408,61.6001,-0.029003
5.419,61.6001,-0.026586
5.434,61.6001,-0.019335
5.451,61.6001,-0.026586
5.465,61.6001,-0.025377
5.482,61.6001,-0.025377
5.497,61.6001,-0.027794
5.513,61.6001,-0.027794
5.529,61.6001,-0.027794
5.545,61.6001,-0.020544
5.561,61.6001,-0.025377
5.577,61.6001,-0.026586
5.595,61.6001,-0.024169
5.609,61.6001,-0.026586
5.625,61.6001,-0.025377
5.641,61.6001,-0.018127
5.660,61.6001,-0.016918
5.673,61.6001,-0.022961
5.694,61.6001,-0.025377
5.705,61.6001,-0.024169
5.722,61.6001,-0.029003
5.739,61.6001,-0.029003
5.753,61.6001,-0.024169
5.769,61.6001,-0.022961
5.786,61.6001,-0.025377
5.802,61.6001,-0.024169
5.818,61.6001,-0.029003
5.845,61.6001,-0.026586
5.861,61.6001,-0.021752
5.877,61.6001,-0.022961
5.893,61.6001,-0.022961
5.912,61.6001,-0.025377
5.925,61.6001,-0.025377
5.942,61.6001,-0.027794
5.958,61.6001,-0.022961
5.974,61.6001,-0.020544
5.989,61.6001,-0.026586
6.007,61.6001,-0.026586
6.021,61.6001,-0.022961
6.038,61.6001,-0.029003
6.053,61.6001,-0.029003
6.070,61.6001,-0.019335
6.085,61.6001,-0.024169
6.101,61.6001,-0.021752
6.118,61.6001,-0.027794
6.133,61.6001,-0.021752
6.149,61.6001,-0.027794
6.165,61.6001,-0.027794
6.181,61.6001,-0.024169
6.197,61.6001,-0.024169
6.220,61.6001,-0.024169
6.230,61.6001,-0.025377
6.245,61.6001,-0.026586
6.261,61.6001,-0.025377
6.278,61.6001,-0.029003
6.295,61.6001,-0.026586
6.309,61.6001,-0.026586
6.325,61.6001,-0.019335
6.341,61.6001,-0.019335
6.357,61.6001,-0.022961
6.374,61.6001,-0.033837
6.403,61.6001,-0.033837
6.425,61.6001,-0.029003
6.447,61.6001,-0.021752
6.466,61.6001,-0.020544
6.482,61.6001,-0.027794
6.498,61.6001,-0.022961
6.514,61.6001,-0.027794
6.531,61.6001,-0.027794
6.547,61.6001,-0.026586
6.562,61.6001,-0.019335
6.578,61.6001,-0.026586
6.595,61.6001,-0.026586
6.610,61.6001,-0.026586
6.627,61.6001,-0.029003
6.642,61.6001,-0.027794
6.659,61.6001,-0.025377
6.675,61.6001,-0.025377
6.690,61.6001,-0.026586
6.707,61.6001,-0.025377
6.722,61.6001,-0.027794
6.738,61.6001,-0.025377
6.754,61.6001,-0.027794
6.773,61.6001,-0.029003
6.786,61.6001,-0.025377
6.802,61.6001,-0.024169
6.819,61.6001,-0.018127
6.834,61.6001,-0.018127
6.849,61.6001,-0.027794
6.866,61.6001,-0.025377
6.882,61.6001,-0.026586
6.898,61.6001,-0.022961
6.914,61.6001,-0.021752
6.930,61.6001,-0.021752
6.959,61.6001,-0.022961
6.975,61.6001,-0.027794
6.991,61.6001,-0.031420
7.007,61.6001,-0.027794
7.023,61.6001,-0.029003
7.040,61.6001,-0.024169
7.055,61.6001,-0.020544
7.071,61.6001,-0.018127
7.088,61.6001,-0.025377
7.103,61.6001,-0.025377
7.119,61.6001,-0.026586
7.135,61.6001,-0.024169
7.151,61.6001,-0.020544
7.167,61.6001,-0.012084
7.183,61.6001,-0.020544
7.199,61.6001,-0.025377
7.215,61.6001,-0.021752
7.231,61.6001,-0.022961
7.247,61.6001,-0.024169
7.266,61.6001,-0.024169
7.278,61.6001,-0.029003
7.294,61.6001,-0.021752
7.311,61.6001,-0.025377
7.327,61.6001,-0.021752
7.343,61.6001,-0.022961
7.360,61.6001,-0.029003
7.375,61.6001,-0.025377
7.392,61.6001,-0.026586
7.407,61.6001,-0.022961
7.424,61.6001,-0.024169
7.438,61.6001,-0.025377
7.455,61.6001,-0.025377
7.471,61.6001,-0.030211
7.488,61.6001,-0.025377
7.512,61.6001,-0.022961
7.527,61.6001,-0.024169
7.543,61.6001,-0.025377
7.560,61.6001,-0.027794
7.576,61.6001,-0.027794
7.592,61.6001,-0.025377
7.609,61.6001,-0.026586
7.623,61.6001,-0.024169
7.640,61.6001,-0.019335
7.655,61.6001,-0.019335
7.672,61.6001,-0.024169
7.688,61.6001,-0.026586
7.703,61.6001,-0.026586
7.719,61.6001,-0.029003
7.735,61.6001,-0.029003
7.751,61.6001,-0.021752
7.767,61.6001,-0.021752
7.783,61.6001,-0.020544
7.799,61.6001,-0.026586
7.817,61.6001,-0.026586
7.832,61.6001,-0.024169
7.847,61.6001,-0.026586
7.863,61.6001,-0.022961
7.880,61.6001,-0.019335
7.895,61.6001,-0.016918
7.911,61.6001,-0.019335
7.927,61.6001,-0.021752
7.945,61.6001,-0.025377
7.960,61.6001,-0.030211
7.976,61.6001,-0.026586
7.991,61.6001,-0.027794
8.008,61.6001,-0.022961
8.024,61.6001,-0.024169
8.042,61.6001,-0.024169
8.065,61.6001,-0.025377
8.081,61.6001,-0.020544
8.097,61.6001,-0.020544
8.113,61.6001,-0.021752
8.130,61.6001,-0.019335
8.145,61.6001,-0.022961
8.164,61.6001,-0.027794
8.178,61.6001,-0.026586
8.196,61.6001,-0.026586
8.210,61.6001,-0.019335
8.226,61.6001,-0.021752
8.241,61.6001,-0.030211
8.257,61.6001,-0.026586
8.274,61.6001,-0.027794
8.289,61.6001,-0.027794
8.305,61.6001,-0.022961
8.321,61.6001,-0.032628
8.337,61.6001,-0.020544
8.353,61.6001,-0.021752
8.375,61.6001,-0.020544
8.386,61.6001,-0.027794
8.402,61.6001,-0.032628
8.422,61.6001,-0.029003
8.433,61.6001,-0.026586
8.450,61.6001,-0.026586
8.465,61.6001,-0.022961
8.481,61.6001,-0.021752
8.497,61.6001,-0.025377
8.514,61.6001,-0.022961
8.529,61.6001,-0.025377
8.545,61.6001,-0.025377
8.561,61.6001,-0.022961
8.577,61.6001,-0.022961
8.593,61.6001,-0.019335
8.620,61.6001,-0.019335
8.635,61.6001,-0.025377
8.651,61.6001,-0.024169
8.667,61.6001,-0.022961
8.683,61.6001,-0.022961
8.699,61.6001,-0.014501
8.717,61.6001,-0.026586
8.731,61.6001,-0.026586
8.748,61.6001,-0.027794
8.764,61.6001,-0.027794
8.782,61.6001,-0.026586
8.795,61.6001,-0.030211
8.811,61.6001,-0.018127
8.827,61.6001,-0.020544
8.843,61.6001,-0.020544
8.859,61.6001,-0.024169
8.879,61.6001,-0.022961
8.891,61.6001,-0.027794
8.907,61.6001,-0.030211
8.923,61.6001,-0.026586
8.939,61.6001,-0.022961
8.955,61.6001,-0.019335
8.971,61.6001,-0.027794
8.987,61.6001,-0.019335
9.003,61.6001,-0.026586
9.020,61.6001,-0.022961
9.035,61.6001,-0.025377
9.052,61.6001,-0.019335
9.067,61.6001,-0.016918
9.083,61.6001,-0.020544
9.099,61.6001,-0.020544
9.118,61.6001,-0.022961
9.132,61.6001,-0.022961
9.147,61.6001,-0.022961
9.164,61.6001,-0.024169
9.188,61.6001,-0.020544
9.203,61.6001,-0.016918
9.219,61.6001,-0.021752
9.235,61.6001,-0.026586
9.257,61.6001,-0.021752
9.267,61.6001,-0.025377
9.283,61.6001,-0.022961
9.300,61.6001,-0.025377
9.316,61.6001,-0.025377
9.331,61.6001,-0.025377
9.347,61.6001,-0.031420
9.363,61.6001,-0.030211
9.380,61.6001,-0.022961
9.395,61.6001,-0.025377
9.413,61.6001,-0.025377
9.427,61.6001,-0.027794
9.443,61.6001,-0.027794
9.459,61.6001,-0.026586
9.475,61.6001,-0.026586
9.491,61.6001,-0.026586
9.507,61.6001,-0.020544
9.523,61.6001,-0.021752
9.539,61.6001,-0.021752
9.557,61.6001,-0.019335
9.571,61.6001,-0.029003
9.587,61.6001,-0.024169
9.603,61.6001,-0.024169
9.619,61.6001,-0.025377
9.635,61.6001,-0.025377
9.652,61.6001,-0.020544
9.666,61.6001,-0.029003
9.683,61.6001,-0.029003
9.698,61.6001,-0.027794
9.715,61.6001,-0.022961
9.740,61.6001,-0.027794
9.754,61.6001,-0.020544
9.770,61.6001,-0.021752
9.787,61.6001,-0.019335
9.803,61.6001,-0.024169
9.819,61.6001,-0.022961
9.834,61.6001,-0.024169
9.851,61.6001,-0.019335
9.871,61.6001,-0.016918
9.884,61.6001,-0.022961
9.898,61.6001,-0.029003
9.914,61.6001,-0.025377
9.932,61.6001,-0.027794
9.947,61.6001,-0.018127
9.963,61.6001,-0.021752
9.978,61.6001,-0.020544
9.997,61.6001,-0.020544
10.011,61.6001,-0.018127
10.028,61.6001,-0.025377
10.042,61.6001,-0.022961
10.058,61.6001,-0.025377
10.075,61.6001,-0.029003
10.091,61.6001,-0.022961
10.106,61.6001,-0.024169
10.122,61.6001,-0.024169
10.139,61.6001,-0.021752
10.154,61.6001,-0.027794
10.172,61.6001,-0.026586
10.186,61.6001,-0.024169
10.202,61.6001,-0.020544
10.218,61.6001,-0.019335
10.239,61.6001,-0.019335
10.263,61.6001,-0.019335
10.279,61.6001,-0.027794
10.295,61.6001,-0.020544
10.310,61.6001,-0.024169
10.327,61.6001,-0.016918
10.343,61.6001,-0.016918
10.358,61.6001,-0.018127
10.374,61.6001,-0.019335
10.391,61.6001,-0.025377
10.407,61.6001,-0.020544
10.423,61.6001,-0.019335
10.438,61.6001,-0.022961
10.457,61.6001,-0.022961
10.471,61.6001,-0.018127
10.486,61.6001,-0.021752
10.502,61.6001,-0.025377
10.519,61.6001,-0.022961
10.535,61.6001,-0.020544
10.551,61.6001,-0.014501
10.567,61.6001,-0.018127
10.583,61.6001,-0.026586
10.598,61.6001,-0.025377
10.614,61.6001,-0.025377
10.630,61.6001,-0.024169
10.646,61.6001,-0.020544
10.663,61.6001,-0.021752
10.678,61.6001,-0.016918
10.694,61.6001,-0.019335
10.711,61.6001,-0.024169
10.727,61.6001,-0.024169
10.742,61.6001,-0.030211
10.758,61.6001,-0.026586
10.774,61.6001,-0.026586
10.790,61.6001,-0.022961
10.811,61.6001,-0.016918
10.828,61.6001,-0.022961
10.843,61.6001,-0.018127
10.859,61.6001,-0.022961
10.876,61.6001,-0.022961
10.892,61.6001,-0.029003
10.908,61.6001,-0.016918
10.923,61.6001,-0.020544
10.940,61.6001,-0.026586
10.955,61.6001,-0.026586
10.971,61.6001,-0.021752
10.987,61.6001,-0.024169
11.003,61.6001,-0.022961
11.019,61.6001,-0.022961
11.034,61.6001,-0.020544
11.054,61.6001,-0.025377
11.067,61.6001,-0.029003
11.083,61.6001,-0.025377
11.099,61.6001,-0.016918
11.115,61.5707,-0.014501
11.132,61.5177,0.025377
11.148,61.4614,0.001208
11.163,61.4148,0.010876
11.181,61.3595,0.012084
11.195,61.3133,0.020544
11.211,61.2606,0.027794
11.226,61.2092,0.048338
11.244,61.1526,0.048338
11.260,61.0998,0.054380
11.275,61.0504,0.065256
11.291,61.0009,0.071298
11.307,60.9482,0.082174
11.323,60.8945,0.082174
11.339,60.8428,0.102718
11.361,60.7705,0.114803
11.377,60.7191,0.118428
11.393,60.6671,0.118428
11.409,60.6172,0.129304
11.426,60.5603,0.129304
11.443,60.5020,0.142597
11.459,60.4503,0.161932
11.473,60.4060,0.164349
11.490,60.3536,0.174016
11.506,60.3003,0.180059
11.521,60.2524,0.195769
11.537,60.1991,0.196977
11.553,60.1460,0.205436
11.569,60.0965,0.215104
11.586,60.0383,0.215104
11.601,59.9924,0.213895
11.617,59.9390,0.205436
11.633,59.8886,0.204228
11.650,59.8306,0.201811
11.665,59.7835,0.192143
11.681,59.7318,0.175225
11.697,59.6803,0.151056
11.713,59.6270,0.138971
11.729,59.5727,0.116011
11.745,59.5224,0.100301
11.762,59.4679,0.064048
11.777,59.4180,0.008459
11.793,59.3657,0.008459
11.809,59.3136,0.004834
11.826,59.2593,0.004834
11.841,59.2094,0.007251
11.859,59.1521,0.007251
11.883,59.0715,0.007251
11.898,59.0226,0.002417
11.915,58.9709,-0.001208
11.930,58.9192,-0.003625
11.947,58.8657,0.006042
11.963,58.8128,0.004834
11.979,58.7597,0.007251
11.995,58.7086,0.006042
12.015,58.6416,0.006042
12.027,58.6058,0.001208
12.043,58.5531,-0.003625
12.058,58.5030,0.008459
12.075,58.4483,0.008459
12.091,58.3958,0.001208
12.107,58.3455,-0.003625
12.122,58.2928,-0.003625
12.139,58.2403,0.001208
12.154,58.1906,0.001208
12.170,58.1385,0.002417
12.187,58.0835,0.002417
12.203,58.0301,0.004834
12.221,57.9695,0.001208
12.237,57.9208,0.003625
12.250,57.8784,0.004834
12.266,57.8261,-0.001208
12.282,57.7743,0.003625
12.304,57.7040,0.012084
12.315,57.6653,0.003625
12.331,57.6145,0.003625
12.349,57.5549,0.006042
12.363,57.5100,0.003625
12.379,57.4583,0.004834
12.396,57.4030,0.004834
12.420,57.3236,0.003625
12.435,57.2764,0.003625
12.451,57.2221,0.000000
12.467,57.1723,0.002417
12.484,57.1166,0.002417
12.502,57.0555,0.006042
12.515,57.0161,0.006042
12.531,56.9640,0.003625
12.548,56.9087,0.001208
12.563,56.8595,-0.001208
12.580,56.8048,0.001208
12.597,56.7495,0.002417
12.612,56.7000,0.002417
12.628,56.6487,0.006042
12.643,56.5998,0.002417
12.659,56.5451,0.000000
12.675,56.4960,0.000000
12.691,56.4439,0.001208
12.707,56.3916,0.004834
12.724,56.3385,0.000000
12.740,56.2862,0.002417
12.755,56.2357,0.002417
12.775,56.1706,0.001208
12.787,56.1313,-0.002417
12.803,56.0796,0.000000
12.819,56.0275,-0.001208
12.836,55.9731,0.003625
12.851,55.9220,0.004834
12.868,55.8700,0.002417
12.883,55.8172,0.004834
12.899,55.7664,0.002417
12.915,55.7153,0.003625
12.946,55.6138,0.009668
12.964,55.5538,0.007251
12.977,55.5501,-0.033837
12.993,55.5501,0.003625
13.009,55.5501,0.002417
13.025,55.5501,-0.003625
13.041,55.5501,0.001208
13.057,55.5501,0.008459
13.074,55.5501,0.008459
13.089,55.5501,0.002417
13.105,55.5501,0.007251
13.121,55.5501,0.003625
13.139,55.5501,0.000000
13.153,55.5501,0.003625
13.169,55.5501,0.004834
13.185,55.5501,0.006042
13.201,55.5501,0.000000
13.217,55.5501,-0.001208
13.233,55.5501,-0.001208
13.249,55.5501,0.002417
13.265,55.5501,0.003625
13.281,55.5501,-0.001208
13.297,55.5501,0.003625
13.320,55.5501,0.002417
13.333,55.5501,0.003625
13.345,55.5501,0.003625
13.361,55.5501,0.000000
13.377,55.5501,-0.001208
13.395,55.5501,-0.004834
13.410,55.5501,-0.003625
13.425,55.5501,-0.004834
13.443,55.5501,0.001208
13.457,55.5501,-0.002417
13.473,55.5501,-0.002417
13.489,55.5501,0.001208
13.513,55.5501,0.001208
13.529,55.5501,0.002417
13.545,55.5501,0.001208
13.561,55.5508,-0.001208
13.579,55.6048,-0.025377
13.593,55.6504,-0.025377
13.609,55.7025,-0.004834
13.625,55.7529,0.001208
13.641,55.8050,0.000000
13.657,55.8574,-0.001208
13.673,55.9088,0.000000
13.690,55.9664,0.001208
13.705,56.0136,-0.004834
13.722,56.0693,-0.001208
13.737,56.1190,0.003625
13.754,56.1741,0.003625
13.769,56.2212,-0.002417
13.785,56.2745,-0.004834
13.801,56.3256,0.000000
13.816,56.3783,0.003625
13.833,56.4320,0.006042
13.849,56.4819,0.000000
13.867,56.5436,0.000000
13.881,56.5885,-0.001208
13.897,56.6394,0.004834
13.912,56.6897,0.003625
13.928,56.7418,0.001208
13.945,56.7985,0.006042
13.961,56.8473,-0.001208
13.977,56.8981,0.001208
13.993,56.9540,0.003625
14.008,57.0019,0.004834
14.025,57.0556,-0.001208
14.056,57.1578,-0.002417
14.071,57.2075,-0.004834
14.087,57.2596,0.002417
14.103,57.3111,-0.001208
14.120,57.3657,-0.004834
14.136,57.4168,0.001208
14.153,57.4741,-0.001208
14.167,57.5196,0.001208
14.183,57.5727,0.001208
14.200,57.6251,0.002417
14.215,57.6752,0.002417
14.233,57.7324,0.003625
14.248,57.7823,0.004834
14.264,57.8354,0.002417
14.279,57.8835,-0.004834
14.296,57.9375,0.001208
14.311,57.9877,0.001208
14.327,58.0396,-0.002417
14.343,58.0915,-0.003625
14.359,58.1444,-0.008459
14.375,58.1955,-0.008459
14.391,58.2480,-0.006042
14.407,58.2997,0.007251
14.425,58.3570,0.004834
14.439,58.4039,0.002417
14.455,58.4558,0.001208
14.472,58.5129,0.000000
14.487,58.5600,0.003625
14.503,58.6121,-0.002417
14.520,58.6671,0.001208
14.535,58.7165,0.000000
14.552,58.7722,-0.002417
14.580,58.8620,0.000000
14.595,58.9118,-0.004834
14.611,58.9642,0.000000
14.627,59.0163,0.000000
14.645,59.0726,-0.001208
14.660,59.1214,0.000000
14.675,59.1731,-0.006042
14.691,59.2239,-0.002417
14.708,59.2779,-0.004834
14.724,59.3293,0.001208
14.739,59.3798,-0.001208
14.756,59.4377,-0.001208
14.772,59.4855,-0.003625
14.787,59.5376,-0.009668
14.806,59.5995,-0.003625
14.820,59.6440,-0.001208
14.836,59.6974,0.002417
14.851,59.7442,-0.002417
14.867,59.7967,0.000000
14.883,59.8487,0.000000
14.899,59.9005,-0.004834
14.916,59.9574,-0.010876
14.932,60.0089,-0.008459
14.947,60.0570,-0.004834
14.963,60.1101,-0.003625
14.986,60.1829,-0.004834
15.007,60.2529,-0.009668
15.027,60.3163,-0.009668
15.043,60.3720,-0.009668
15.059,60.4225,-0.003625
15.076,60.4764,-0.009668
15.103,60.5640,-0.010876
15.119,60.6157,-0.010876
15.135,60.6684,-0.020544
15.151,60.7199,-0.014501
15.170,60.7814,-0.013293
15.184,60.8279,-0.016918
15.199,60.8760,-0.022961
15.215,60.9285,-0.022961
15.233,60.9880,-0.022961
15.248,61.0352,-0.029003
15.263,61.0850,-0.029003
15.279,61.1361,-0.035045
15.296,61.1930,-0.036253
15.311,61.2409,-0.044713
15.327,61.2933,-0.044713
15.343,61.3470,-0.050755
15.361,61.4036,-0.050755
15.375,61.4498,-0.062839
15.391,61.5025,-0.064048
15.407,61.5501,-0.070090
15.423,61.5501,-0.039879
15.439,61.5501,-0.066465
15.455,61.5501,-0.070090
15.471,61.5501,-0.071298
15.487,61.5501,-0.065256
15.503,61.5501,-0.062839
15.519,61.5501,-0.066465
15.535,61.5501,-0.064048
15.551,61.5501,-0.060422
15.567,61.5501,-0.062839
15.583,61.5501,-0.054380
15.603,61.5501,-0.055589
15.626,61.5501,-0.061631
15.643,61.5501,-0.055589
15.658,61.5501,-0.051963
15.674,61.5501,-0.059214
15.690,61.5501,-0.055589
15.706,61.5501,-0.049546
15.722,61.5501,-0.045921
15.740,61.5501,-0.045921
15.754,61.5501,-0.053172
15.770,61.5501,-0.053172
15.786,61.5501,-0.049546
15.802,61.5501,-0.047129
15.818,61.5501,-0.050755
15.834,61.5501,-0.047129
15.850,61.5501,-0.043504
15.866,61.5501,-0.042296
15.882,61.5501,-0.042296
15.898,61.5501,-0.044713
15.914,61.5501,-0.048338
15.930,61.5501,-0.044713
15.946,61.5501,-0.037462
15.961,61.5501,-0.047129
15.979,61.5501,-0.050755
15.994,61.5501,-0.050755
16.010,61.5501,-0.045921
16.025,61.5501,-0.042296
16.041,61.5501,-0.038670
16.058,61.5501,-0.039879
16.074,61.5501,-0.044713
16.092,61.5501,-0.041087
16.106,61.5501,-0.041087
16.122,61.5501,-0.044713
16.137,61.5501,-0.043504
16.153,61.5501,-0.045921
16.169,61.5501,-0.044713
16.186,61.5501,-0.044713
16.201,61.5501,-0.045921
16.220,61.5501,-0.043504
16.233,61.5501,-0.041087
16.249,61.5501,-0.042296
16.265,61.5501,-0.041087
16.284,61.5501,-0.039879
16.298,61.5501,-0.043504
16.317,61.5501,-0.045921
16.330,61.5501,-0.044713
16.345,61.5501,-0.037462
16.361,61.5501,-0.038670
16.377,61.5501,-0.035045
16.393,61.5501,-0.035045
16.410,61.5501,-0.041087
16.425,61.5501,-0.037462
16.441,61.5501,-0.038670
16.457,61.5501,-0.038670
16.474,61.5501,-0.044713
16.489,61.5501,-0.044713
16.505,61.5501,-0.042296
16.521,61.5501,-0.042296
16.537,61.5501,-0.038670
16.553,61.5501,-0.042296
16.569,61.5501,-0.032628
16.586,61.5501,-0.039879
16.601,61.5501,-0.041087
16.617,61.5501,-0.036253
16.634,61.5501,-0.036253
16.650,61.5501,-0.036253
16.665,61.5501,-0.039879
16.695,61.5501,-0.029003
16.710,61.5501,-0.037462
16.726,61.5501,-0.043504
16.742,61.5501,-0.041087
16.759,61.5501,-0.036253
16.775,61.5501,-0.036253
16.790,61.5501,-0.033837
16.806,61.5501,-0.027794
16.823,61.5501,-0.027794
16.839,61.5501,-0.041087
16.854,61.5501,-0.041087
16.870,61.5501,-0.031420
16.888,61.5501,-0.033837
16.903,61.5501,-0.030211
16.918,61.5501,-0.035045
16.934,61.5501,-0.038670
16.951,61.5501,-0.035045
16.966,61.5501,-0.037462
16.982,61.5501,-0.037462
16.998,61.5501,-0.033837
17.014,61.5501,-0.033837
17.030,61.5501,-0.030211
17.046,61.5501,-0.033837
17.071,61.5501,-0.036253
17.083,61.5501,-0.036253
17.094,61.5501,-0.033837
17.110,61.5501,-0.033837
17.127,61.5501,-0.033837
17.143,61.5501,-0.030211
17.158,61.5501,-0.036253
17.174,61.5501,-0.031420
17.191,61.5501,-0.029003
17.206,61.5501,-0.035045
17.222,61.5501,-0.036253
17.250,61.5501,-0.031420
17.268,61.5501,-0.029003
17.282,61.5501,-0.031420
17.298,61.5501,-0.031420
17.315,61.5501,-0.031420
17.330,61.5501,-0.027794
17.346,61.5501,-0.032628
17.362,61.5501,-0.029003
17.380,61.5501,-0.029003
17.395,61.5501,-0.029003
17.410,61.5501,-0.031420
17.426,61.5501,-0.027794
17.442,61.5501,-0.032628
17.458,61.5501,-0.035045
17.474,61.5501,-0.035045
17.490,61.5501,-0.032628
17.506,61.5501,-0.032628
17.522,61.5501,-0.031420
17.538,61.5501,-0.035045
17.555,61.5501,-0.036253
17.570,61.5501,-0.031420
17.586,61.5501,-0.033837
17.602,61.5501,-0.033837
17.618,61.5501,-0.033837
17.634,61.5501,-0.033837
17.650,61.5501,-0.030211
17.666,61.5501,-0.033837
17.682,61.5501,-0.033837
17.698,61.5501,-0.033837
17.714,61.5501,-0.033837
17.730,61.5501,-0.026586
17.746,61.5501,-0.026586
17.762,61.5501,-0.035045
17.778,61.5501,-0.029003
17.807,61.5501,-0.032628
17.823,61.5501,-0.030211
17.839,61.5501,-0.030211
17.855,61.5501,-0.030211
17.872,61.5501,-0.029003
17.887,61.5501,-0.029003
17.903,61.5501,-0.029003
17.919,61.5501,-0.032628
17.935,61.5501,-0.032628
17.951,61.5501,-0.038670
17.967,61.5501,-0.030211
17.983,61.5501,-0.030211
17.999,61.5501,-0.030211
18.015,61.5501,-0.031420
18.031,61.5501,-0.037462
18.047,61.5501,-0.041087
18.063,61.5501,-0.035045
18.079,61.5501,-0.032628
18.095,61.5501,-0.030211
18.112,61.5501,-0.031420
18.128,61.5501,-0.029003
18.143,61.5501,-0.025377
18.159,61.5501,-0.029003
18.175,61.5501,-0.032628
18.191,61.5501,-0.027794
18.207,61.5501,-0.022961
18.223,61.5501,-0.031420
18.238,61.5501,-0.026586
18.256,61.5501,-0.031420
18.271,61.5501,-0.033837
18.287,61.5501,-0.032628
18.305,61.5501,-0.030211
18.318,61.5501,-0.036253
18.334,61.5501,-0.032628
18.351,61.5501,-0.022961
18.372,61.5501,-0.022961
18.388,61.5501,-0.032628
18.403,61.5501,-0.032628
18.419,61.5501,-0.030211
18.444,61.5501,-0.027794
18.465,61.5501,-0.031420
18.484,61.5501,-0.027794
18.499,61.5501,-0.031420
18.516,61.5501,-0.031420
18.531,61.5501,-0.033837
18.547,61.5501,-0.029003
18.564,61.5501,-0.029003
18.580,61.5501,-0.027794
18.596,61.5501,-0.027794
18.611,61.5501,-0.029003
18.628,61.5501,-0.026586
18.644,61.5501,-0.029003
18.661,61.5501,-0.031420
18.675,61.5501,-0.031420
18.692,61.5501,-0.029003
18.708,61.5501,-0.026586
18.724,61.5501,-0.026586
18.740,61.5501,-0.029003
18.755,61.5501,-0.035045
18.771,61.5501,-0.039879
18.787,61.5501,-0.030211
18.803,61.5501,-0.030211
18.819,61.5501,-0.021752
18.835,61.5501,-0.022961
18.851,61.5501,-0.029003
18.868,61.5501,-0.029003
18.883,61.5501,-0.027794
18.899,61.5501,-0.031420
18.915,61.5501,-0.030211
18.931,61.5501,-0.030211
18.947,61.5501,-0.029003
18.963,61.5501,-0.030211
18.979,61.5501,-0.029003
18.995,61.5501,-0.029003
19.011,61.5501,-0.022961
19.027,61.5501,-0.032628
19.043,61.5501,-0.027794
19.059,61.5501,-0.029003
19.075,61.5501,-0.029003
19.092,61.5501,-0.030211
19.108,61.5501,-0.021752
19.124,61.5501,-0.021752
19.140,61.5501,-0.022961
19.157,61.5501,-0.033837
19.171,61.5501,-0.026586
19.187,61.5501,-0.025377
19.203,61.5501,-0.025377
19.219,61.5501,-0.029003
19.235,61.5501,-0.029003
19.251,61.5501,-0.033837
19.267,61.5501,-0.027794
19.283,61.5501,-0.024169
19.300,61.5501,-0.025377
19.322,61.5501,-0.024169
19.344,61.5501,-0.031420
19.364,61.5501,-0.024169
19.379,61.5501,-0.027794
19.395,61.5501,-0.024169
19.413,61.5501,-0.026586
19.427,61.5501,-0.022961
19.444,61.5501,-0.029003
19.459,61.5501,-0.027794
19.475,61.5501,-0.031420
19.491,61.5501,-0.027794
19.507,61.5501,-0.027794
19.522,61.5501,-0.029003
19.540,61.5501,-0.026586
19.556,61.5501,-0.025377
19.572,61.5501,-0.022961
19.588,61.5501,-0.029003
19.605,61.5501,-0.029003
19.619,61.5501,-0.032628
19.635,61.5501,-0.031420
19.651,61.5501,-0.022961
19.667,61.5501,-0.027794
19.683,61.5501,-0.027794
19.699,61.5501,-0.029003
19.718,61.5501,-0.029003
19.731,61.5501,-0.022961
19.747,61.5501,-0.025377
19.763,61.5501,-0.031420
19.779,61.5501,-0.027794
19.795,61.5501,-0.027794
19.811,61.5501,-0.029003
19.827,61.5501,-0.024169
19.845,61.5501,-0.024169
19.859,61.5501,-0.031420
19.875,61.5501,-0.031420
19.891,61.5501,-0.032628
19.910,61.5501,-0.027794
19.923,61.5501,-0.026586
19.939,61.5501,-0.019335
19.955,61.5501,-0.025377
19.971,61.5501,-0.026586
19.987,61.5501,-0.026586
20.003,61.5501,-0.026586
20.027,61.5501,-0.025377
20.043,61.5501,-0.021752
20.059,61.5501,-0.022961
20.075,61.5501,-0.022961
20.093,61.5501,-0.026586
20.109,61.5501,-0.029003
20.124,61.5501,-0.029003
20.139,61.5501,-0.022961
20.160,61.5501,-0.022961
20.170,61.5501,-0.027794
20.187,61.5501,-0.029003
20.203,61.5501,-0.029003
20.219,61.5501,-0.025377
20.235,61.5501,-0.024169
20.251,61.5501,-0.029003
20.267,61.5501,-0.029003
20.282,61.5501,-0.021752
20.299,61.5501,-0.021752
20.315,61.5501,-0.024169
20.332,61.5501,-0.030211
20.347,61.5501,-0.022961
20.364,61.5501,-0.019335
20.379,61.5501,-0.029003
20.395,61.5501,-0.025377
20.412,61.5501,-0.032628
20.427,61.5501,-0.029003
20.443,61.5501,-0.027794
20.458,61.5501,-0.030211
20.474,61.5501,-0.031420
20.490,61.5501,-0.024169
20.507,61.5501,-0.025377
20.523,61.5501,-0.021752
20.539,61.5501,-0.026586
20.566,61.5501,-0.024169
20.582,61.5501,-0.030211
20.598,61.5501,-0.027794
20.613,61.5501,-0.026586
20.630,61.5501,-0.026586
20.645,61.5501,-0.029003
20.661,61.5501,-0.033837
20.679,61.5501,-0.031420
20.695,61.5501,-0.031420
20.709,61.5501,-0.026586
20.728,61.5501,-0.027794
20.741,61.5501,-0.022961
20.758,61.5501,-0.026586
20.774,61.5501,-0.021752
20.790,61.5501,-0.026586
20.805,61.5501,-0.026586
20.821,61.5501,-0.024169
20.838,61.5501,-0.027794
20.853,61.5501,-0.026586
20.869,61.5501,-0.022961
20.885,61.5501,-0.021752
20.901,61.5501,-0.029003
20.917,61.5501,-0.024169
20.936,61.5501,-0.026586
20.949,61.5501,-0.032628
20.965,61.5501,-0.026586
20.981,61.5501,-0.024169
20.998,61.5501,-0.026586
21.014,61.5501,-0.026586
21.029,61.5501,-0.026586
21.045,61.5501,-0.027794
21.061,61.5501,-0.025377
21.077,61.5501,-0.024169
21.094,61.5501,-0.019335
21.121,61.5501,-0.022961
21.137,61.5501,-0.021752
21.153,61.5501,-0.022961
21.169,61.5501,-0.025377
21.186,61.5501,-0.025377
21.202,61.5501,-0.019335
21.217,61.5501,-0.026586
21.233,61.5501,-0.029003
21.251,61.5501,-0.024169
21.265,61.5501,-0.019335
21.282,61.5501,-0.022961
21.297,61.5501,-0.026586
21.314,61.5501,-0.029003
21.330,61.5501,-0.022961
21.345,61.5501,-0.022961
21.361,61.5501,-0.027794
21.378,61.5501,-0.029003
21.394,61.5501,-0.030211
21.410,61.5501,-0.026586
21.425,61.5501,-0.025377
21.441,61.5501,-0.026586
21.457,61.5501,-0.024169
21.473,61.5501,-0.030211
21.489,61.5501,-0.027794
21.506,61.5501,-0.021752
21.521,61.5501,-0.030211
21.537,61.5501,-0.029003
21.553,61.5501,-0.024169
21.570,61.5501,-0.022961
21.585,61.5501,-0.025377
21.601,61.5501,-0.022961
21.618,61.5501,-0.027794
21.633,61.5501,-0.024169
21.651,61.5501,-0.025377
21.675,61.5501,-0.020544
21.691,61.5501,-0.020544
21.707,61.5501,-0.024169
21.723,61.5501,-0.024169
21.743,61.5501,-0.024169
21.755,61.5501,-0.025377
21.771,61.5501,-0.020544
21.787,61.5501,-0.020544
21.803,61.5501,-0.024169
21.820,61.5501,-0.026586
21.835,61.5501,-0.027794
21.851,61.5501,-0.031420
21.867,61.5501,-0.031420
21.883,61.5501,-0.025377
21.899,61.5501,-0.025377
21.915,61.5501,-0.025377
21.931,61.5501,-0.030211
21.947,61.5501,-0.021752
21.962,61.5501,-0.021752
21.980,61.5501,-0.026586
22.002,61.5501,-0.026586
22.026,61.5501,-0.021752
22.051,61.5501,-0.021752
22.072,61.5501,-0.029003
22.091,61.5501,-0.030211
22.107,61.5501,-0.024169
22.123,61.5501,-0.024169
22.139,61.5501,-0.029003
22.155,61.5501,-0.029003
22.172,61.5501,-0.020544
22.188,61.5501,-0.029003
22.204,61.5501,-0.021752
22.227,61.5501,-0.022961
22.243,61.5501,-0.027794
22.259,61.5501,-0.030211
22.275,61.5501,-0.026586
22.292,61.5501,-0.027794
22.307,61.5501,-0.026586
22.323,61.5501,-0.026586
22.340,61.5501,-0.025377
22.356,61.5501,-0.025377
22.371,61.5501,-0.021752
22.386,61.5501,-0.018127
22.404,61.5501,-0.018127
22.419,61.5501,-0.025377
22.435,61.5501,-0.026586
22.451,61.5501,-0.027794
22.469,61.5501,-0.030211
22.482,61.5501,-0.030211
22.498,61.5501,-0.022961
22.515,61.5501,-0.027794
22.531,61.5501,-0.024169
22.547,61.5501,-0.026586
22.563,61.5501,-0.026586
22.578,61.5501,-0.021752
22.595,61.5501,-0.021752
22.611,61.5501,-0.021752
22.626,61.5501,-0.029003
22.642,61.5501,-0.019335
22.658,61.5501,-0.021752
22.674,61.5501,-0.021752
22.690,61.5501,-0.024169
22.713,61.5501,-0.024169
22.738,61.5501,-0.020544
22.754,61.5501,-0.021752
22.778,61.5501,-0.025377
22.799,61.5501,-0.029003
22.812,61.5501,-0.026586
22.826,61.5501,-0.024169
22.842,61.5501,-0.022961
22.859,61.5501,-0.027794
22.873,61.5501,-0.027794
22.890,61.5501,-0.024169
22.905,61.5501,-0.025377
22.921,61.5501,-0.027794
22.937,61.5501,-0.027794
22.953,61.5501,-0.026586
22.976,61.5501,-0.022961
22.986,61.5501,-0.024169
23.001,61.5501,-0.019335
23.017,61.5501,-0.024169
23.033,61.5501,-0.024169
23.049,61.5501,-0.029003
23.065,61.5501,-0.025377
23.081,61.5501,-0.022961
23.098,61.5501,-0.025377
23.115,61.5501,-0.025377
23.131,61.5501,-0.025377
23.145,61.5501,-0.022961
23.162,61.5501,-0.024169
23.178,61.5501,-0.032628
23.193,61.5501,-0.032628
23.209,61.5501,-0.027794
23.226,61.5501,-0.029003
23.242,61.5501,-0.026586
23.257,61.5501,-0.024169
23.277,61.5501,-0.024169
23.289,61.5501,-0.025377
23.306,61.5501,-0.020544
23.321,61.5501,-0.020544
23.344,61.5501,-0.020544
23.360,61.5501,-0.021752
23.375,61.5501,-0.020544
23.391,61.5501,-0.021752
23.408,61.5501,-0.021752
23.424,61.5501,-0.025377
23.439,61.5501,-0.022961
23.455,61.5501,-0.021752
23.472,61.5501,-0.021752
23.487,61.5501,-0.022961
23.503,61.5501,-0.026586
23.519,61.5501,-0.024169
23.535,61.5501,-0.025377
23.551,61.5501,-0.024169
23.567,61.5501,-0.019335
23.591,61.5501,-0.018127
23.602,61.5501,-0.018127
23.616,61.5501,-0.029003
23.632,61.5501,-0.027794
23.647,61.5501,-0.025377
23.664,61.5501,-0.020544
23.679,61.5501,-0.029003
23.695,61.5501,-0.026586
23.712,61.5501,-0.025377
23.727,61.5501,-0.026586
23.744,61.5501,-0.026586
23.759,61.5501,-0.024169
23.776,61.5501,-0.030211
23.792,61.5501,-0.027794
23.809,61.5501,-0.020544
23.823,61.5501,-0.020544
23.840,61.5501,-0.020544
23.855,61.5501,-0.024169
23.871,61.5501,-0.025377
23.896,61.5501,-0.026586
23.911,61.5501,-0.022961
23.927,61.5501,-0.025377
23.943,61.5501,-0.025377
23.960,61.5501,-0.027794
23.975,61.5501,-0.025377
23.993,61.5501,-0.026586
24.008,61.5501,-0.021752
24.023,61.5501,-0.021752
24.039,61.5501,-0.024169
24.055,61.5501,-0.024169
24.071,61.5501,-0.020544
24.087,61.5501,-0.021752
24.103,61.5501,-0.021752
24.119,61.5501,-0.032628
24.137,61.5501,-0.032628
24.151,61.5501,-0.022961
24.167,61.5501,-0.024169
24.183,61.5501,-0.021752
24.200,61.5501,-0.021752
24.215,61.5501,-0.024169
24.231,61.5501,-0.027794
24.248,61.5501,-0.027794
24.263,61.5501,-0.014501
24.279,61.5501,-0.025377
24.295,61.5501,-0.018127
24.311,61.5501,-0.018127
24.326,61.5501,-0.022961
24.343,61.5501,-0.022961
24.359,61.5501,-0.025377
24.376,61.5501,-0.025377
24.392,61.5501,-0.021752
24.409,61.5501,-0.026586
24.433,61.5501,-0.026586
24.449,61.5501,-0.027794
24.465,61.5501,-0.022961
24.481,61.5501,-0.022961
24.497,61.5501,-0.025377
24.513,61.5501,-0.020544
24.529,61.5501,-0.019335
24.545,61.5501,-0.021752
24.562,61.5501,-0.024169
24.577,61.5501,-0.027794
24.595,61.5501,-0.021752
24.609,61.5501,-0.022961
24.625,61.5501,-0.022961
24.641,61.5501,-0.027794
24.657,61.5501,-0.021752
24.682,61.5501,-0.018127
24.693,61.5501,-0.021752
24.705,61.5501,-0.021752
24.722,61.5501,-0.026586
24.737,61.5501,-0.024169
24.753,61.5501,-0.022961
24.769,61.5501,-0.024169
24.785,61.5501,-0.024169
24.801,61.5501,-0.027794
24.817,61.5501,-0.027794
24.833,61.5501,-0.026586
24.848,61.5501,-0.025377
24.865,61.5501,-0.027794
24.881,61.5501,-0.021752
24.898,61.5501,-0.022961
24.913,61.5501,-0.022961
24.930,61.5501,-0.020544
24.945,61.5501,-0.021752
24.961,61.5501,-0.024169
24.976,61.5501,-0.022961
24.993,61.5501,-0.022961
25.008,61.5501,-0.022961
25.024,61.5501,-0.021752
25.040,61.5501,-0.024169
25.056,61.5501,-0.022961
25.073,61.5501,-0.022961
25.090,61.5501,-0.032628
25.104,61.5501,-0.024169
25.122,61.5501,-0.024169
25.136,61.5501,-0.026586
25.154,61.5501,-0.022961
25.168,61.5501,-0.025377
25.185,61.5501,-0.025377
25.201,61.5501,-0.020544
25.216,61.5501,-0.020544
25.232,61.5501,-0.022961
25.248,61.5501,-0.027794
25.264,61.5501,-0.027794
25.280,61.5501,-0.025377
25.303,61.5501,-0.020544
25.315,61.5501,-0.015710
25.329,61.5501,-0.022961
25.345,61.5501,-0.020544
25.361,61.5501,-0.022961
25.376,61.5501,-0.025377
25.392,61.5501,-0.024169
25.408,61.5501,-0.022961
25.428,61.5501,-0.019335
25.441,61.5501,-0.021752
25.458,61.5501,-0.021752
25.475,61.5501,-0.018127
25.489,61.5501,-0.015710
25.505,61.5501,-0.015710
25.523,61.5501,-0.029003
25.547,61.5501,-0.026586
25.563,61.5501,-0.021752
25.579,61.5501,-0.019335
25.595,61.5501,-0.022961
25.612,61.5501,-0.022961
25.628,61.5501,-0.021752
25.645,61.5501,-0.024169
25.659,61.5501,-0.022961
25.676,61.5501,-0.022961
25.691,61.5501,-0.020544
25.707,61.5501,-0.018127
25.723,61.5501,-0.019335
25.739,61.5501,-0.021752
25.755,61.5501,-0.021752
25.771,61.5501,-0.022961
25.787,61.5501,-0.025377
25.803,61.5501,-0.024169
25.819,61.5501,-0.019335
25.835,61.5501,-0.020544
25.852,61.5501,-0.021752
25.869,61.5501,-0.021752
25.883,61.5501,-0.024169
25.899,61.5501,-0.022961
25.922,61.5501,-0.022961
25.935,61.5501,-0.022961
25.948,61.5501,-0.027794
25.963,61.5501,-0.026586
25.980,61.5501,-0.026586
25.995,61.5501,-0.021752
26.011,61.5501,-0.025377
26.027,61.5501,-0.021752
26.043,61.5501,-0.021752
26.059,61.5501,-0.026586
26.075,61.5501,-0.025377
26.098,61.5501,-0.021752
26.113,61.5501,-0.020544
26.129,61.5501,-0.021752
26.145,61.5501,-0.022961
26.161,61.5501,-0.022961
26.178,61.5501,-0.022961
26.193,61.5501,-0.024169
26.209,61.5501,-0.025377
26.226,61.5501,-0.031420
26.241,61.5501,-0.026586
26.257,61.5501,-0.027794
26.273,61.5501,-0.020544
26.290,61.5501,-0.021752
26.306,61.5501,-0.024169
26.321,61.5501,-0.024169
26.337,61.5501,-0.024169
26.353,61.5501,-0.024169
26.369,61.5501,-0.024169
26.385,61.5501,-0.016918
26.401,61.5501,-0.018127
26.421,61.5501,-0.020544
26.433,61.5501,-0.022961
26.449,61.5501,-0.021752
26.465,61.5501,-0.021752
26.481,61.5501,-0.026586
26.497,61.5501,-0.019335
26.513,61.5501,-0.019335
26.529,61.5501,-0.021752
26.548,61.5501,-0.025377
26.563,61.5501,-0.025377
26.577,61.5501,-0.024169
26.593,61.5501,-0.024169
26.609,61.5501,-0.016918
26.626,61.5501,-0.018127
26.641,61.5501,-0.024169
26.657,61.5501,-0.024169
26.673,61.5501,-0.020544
26.689,61.5501,-0.019335
26.705,61.5501,-0.016918
26.721,61.5501,-0.019335
26.738,61.5501,-0.022961
26.753,61.5501,-0.022961
26.770,61.5501,-0.020544
26.785,61.5501,-0.018127
26.802,61.5501,-0.022961
26.817,61.5501,-0.024169
26.834,61.5501,-0.022961
26.849,61.5501,-0.020544
26.865,61.5501,-0.022961
26.881,61.5501,-0.024169
26.897,61.5501,-0.018127
26.915,61.5501,-0.015710
26.929,61.5501,-0.018127
26.946,61.5501,-0.021752
26.961,61.5501,-0.030211
26.977,61.5501,-0.022961
26.993,61.5501,-0.022961
27.009,61.5501,-0.025377
27.025,61.5474,-0.025377
27.042,61.4914,0.024169
27.057,61.4391,0.002417
27.073,61.3843,0.006042
27.089,61.3261,0.009668
27.104,61.2744,0.029003
27.121,61.2200,0.037462
27.151,61.1180,0.045921
27.167,61.0626,0.055589
27.182,61.0077,0.059214
27.198,60.9540,0.071298
27.218,60.8852,0.071298
27.231,60.8401,0.084591
27.247,60.7856,0.101510
27.265,60.7267,0.101510
27.280,60.6757,0.119636
27.294,60.6251,0.119636
27.310,60.5707,0.131721
27.328,60.5118,0.134138
27.342,60.4608,0.143805
27.359,60.4030,0.148639
27.374,60.3517,0.155890
27.391,60.2951,0.169183
27.407,60.2397,0.174016
27.422,60.1877,0.182476
27.439,60.1298,0.195769
27.455,60.0751,0.193352
27.471,60.0224,0.190935
27.488,59.9631,0.192143
27.502,59.9127,0.180059
27.518,59.8590,0.176433
27.534,59.8040,0.171600
27.552,59.7447,0.155890
27.566,59.6927,0.149848
27.582,59.6393,0.142597
27.598,59.5832,0.132929
27.617,59.5185,0.097884
27.630,59.4757,0.077341
27.646,59.4212,0.029003
27.662,59.3665,0.003625
27.685,59.2857,0.003625
27.700,59.2364,0.003625
27.717,59.1796,-0.004834
27.732,59.1269,0.001208
27.752,59.0605,-0.001208
27.764,59.0174,-0.001208
27.780,58.9619,0.001208
27.796,58.9078,-0.001208
27.818,58.8311,0.007251
27.843,58.7466,0.002417
27.860,58.6888,0.003625
27.878,58.6230,0.006042
27.893,58.5785,0.002417
27.909,58.5231,0.006042
27.924,58.4697,0.002417
27.943,58.4013,0.007251
27.956,58.3595,0.001208
27.972,58.3050,0.006042
27.988,58.2490,0.004834
28.005,58.1942,0.001208
28.021,58.1401,0.001208
28.036,58.0860,-0.003625
28.052,58.0302,-0.001208
28.069,57.9724,0.004834
28.084,57.9224,0.003625
28.100,57.8672,-0.003625
28.116,57.8125,0.001208
28.132,57.7544,0.002417
28.148,57.7036,0.000000
28.164,57.6489,0.000000
28.180,57.5900,0.001208
28.196,57.5377,-0.002417
28.212,57.4835,-0.003625
28.244,57.3734,-0.002417
28.259,57.3238,-0.002417
28.275,57.2668,-0.002417
28.291,57.2141,0.004834
28.314,57.1341,0.002417
28.338,57.0536,0.012084
28.355,56.9955,0.012084
28.371,56.9379,0.003625
28.387,56.8842,0.004834
28.404,56.8278,-0.001208
28.419,56.7764,-0.002417
28.435,56.7195,-0.002417
28.451,56.6652,-0.001208
28.470,56.6014,0.003625
28.483,56.5569,0.003625
28.500,56.4995,0.006042
28.515,56.4451,0.002417
28.531,56.3902,0.000000
28.547,56.3365,-0.001208
28.564,56.2790,0.003625
28.579,56.2243,0.003625
28.595,56.1739,0.003625
28.611,56.1195,0.002417
28.627,56.0641,0.002417
28.643,56.0094,-0.002417
28.659,55.9549,0.006042
28.675,55.9001,0.003625
28.691,55.8454,0.002417
28.707,55.7910,-0.001208
28.723,55.7365,0.001208
28.739,55.6801,-0.004834
28.755,55.6256,0.000000
28.771,55.5712,0.007251
28.794,55.5001,0.003625
28.809,55.5001,-0.021752
28.825,55.5001,0.003625
28.841,55.5001,-0.003625
28.857,55.5001,-0.001208
28.874,55.5001,-0.002417
28.889,55.5001,0.006042
28.905,55.5001,0.003625
28.924,55.5001,0.003625
28.937,55.5001,0.006042
28.953,55.5001,-0.003625
28.971,55.5001,0.003625
28.985,55.5001,0.003625
29.001,55.5001,0.004834
29.017,55.5001,0.000000
29.036,55.5001,0.000000
29.049,55.5001,0.000000
29.065,55.5001,0.004834
29.081,55.5001,-0.006042
29.100,55.5001,-0.002417
29.113,55.5001,0.006042
29.129,55.5001,0.002417
29.145,55.5001,0.002417
29.163,55.5001,0.004834
29.177,55.5001,0.003625
29.193,55.5001,-0.003625
29.209,55.5001,-0.002417
29.226,55.5001,0.001208
29.240,55.5001,0.004834
29.256,55.5001,0.003625
29.272,55.5001,0.001208
29.290,55.5001,-0.001208
29.304,55.5001,0.006042
29.323,55.5001,0.000000
29.347,55.5001,-0.001208
29.362,55.5290,-0.016918
29.379,55.5821,0.008459
29.394,55.6358,-0.001208
29.411,55.6940,-0.007251
29.426,55.7461,0.004834
29.444,55.8062,0.004834
29.459,55.8566,0.003625
29.475,55.9106,0.000000
29.490,55.9643,-0.001208
29.507,56.0219,-0.001208
29.522,56.0736,0.002417
29.539,56.1318,0.000000
29.554,56.1841,0.003625
29.571,56.2403,0.000000
29.586,56.2926,-0.002417
29.602,56.3481,0.002417
29.618,56.4033,0.000000
29.635,56.4583,0.000000
29.650,56.5120,-0.002417
29.666,56.5675,0.002417
29.683,56.6229,0.008459
29.698,56.6781,-0.006042
29.715,56.7353,-0.003625
29.730,56.7852,-0.002417
29.746,56.8403,0.000000
29.762,56.8948,-0.001208
29.781,56.9607,0.006042
29.797,57.0136,0.006042
29.811,57.0634,-0.004834
29.827,57.1190,0.001208
29.843,57.1720,-0.001208
29.858,57.2233,-0.002417
29.874,57.2801,0.001208
29.904,57.3808,0.002417
29.920,57.4355,-0.003625
29.936,57.4903,-0.001208
29.952,57.5451,0.003625
29.968,57.6029,0.004834
29.985,57.6560,0.000000
30.000,57.7093,0.000000
30.016,57.7663,-0.002417
30.033,57.8231,-0.002417
30.049,57.8771,0.007251
30.066,57.9367,0.001208
30.086,58.0058,0.002417
30.098,58.0472,0.000000
30.113,58.0952,0.000000
30.129,58.1502,-0.002417
30.146,58.2095,-0.002417
30.160,58.2574,-0.001208
30.176,58.3138,-0.003625
30.192,58.3659,-0.003625
30.208,58.4214,-0.004834
30.224,58.4764,-0.007251
30.240,58.5316,-0.007251
30.256,58.5871,0.000000
30.272,58.6408,-0.002417
30.288,58.6952,-0.004834
30.304,58.7497,-0.008459
30.320,58.8061,-0.004834
30.336,58.8619,0.002417
30.353,58.9163,0.001208
30.368,58.9704,-0.007251
30.385,59.0262,-0.007251
30.400,59.0813,0.007251
30.417,59.1357,-0.003625
30.440,59.2188,0.001208
30.456,59.2702,0.004834
30.472,59.3250,0.001208
30.488,59.3791,-0.001208
30.505,59.4362,-0.004834
30.520,59.4893,-0.004834
30.536,59.5458,-0.001208
30.552,59.5979,-0.003625
30.569,59.6578,-0.003625
30.584,59.7077,-0.004834
30.602,59.7683,-0.009668
30.617,59.8220,-0.004834
30.632,59.8731,-0.006042
30.648,59.9264,-0.001208
30.664,59.9836,-0.007251
30.680,60.0380,-0.001208
30.696,60.0927,-0.003625
30.712,60.1454,-0.007251
30.728,60.1999,-0.007251
30.744,60.2578,-0.006042
30.760,60.3109,-0.007251
30.776,60.3646,-0.013293
30.793,60.4224,-0.009668
30.809,60.4778,-0.009668
30.825,60.5326,-0.010876
30.840,60.5832,-0.013293
30.859,60.6534,-0.015710
30.872,60.6942,-0.020544
30.888,60.7483,-0.019335
30.904,60.8026,-0.019335
30.921,60.8612,-0.026586
30.936,60.9139,-0.027794
30.953,60.9704,-0.030211
30.982,61.0710,-0.031420
30.997,61.1220,-0.038670
31.013,61.1754,-0.038670
31.029,61.2295,-0.044713
31.048,61.2990,-0.044713
31.061,61.3431,-0.058005
31.078,61.3979,-0.067673
31.093,61.4527,-0.067673
31.110,61.5001,-0.077341
31.125,61.5001,-0.037462
31.143,61.5001,-0.071298
31.157,61.5001,-0.065256
31.180,61.5001,-0.065256
31.194,61.5001,-0.068882
31.205,61.5001,-0.068882
31.220,61.5001,-0.059214
31.237,61.5001,-0.064048
31.253,61.5001,-0.062839
31.269,61.5001,-0.059214
31.288,61.5001,-0.055589
31.301,61.5001,-0.053172
31.317,61.5001,-0.054380
31.333,61.5001,-0.049546
31.349,61.5001,-0.058005
31.366,61.5001,-0.053172
31.381,61.5001,-0.053172
31.397,61.5001,-0.047129
31.413,61.5001,-0.056797
31.429,61.5001,-0.049546
31.446,61.5001,-0.054380
31.461,61.5001,-0.048338
31.477,61.5001,-0.048338
31.493,61.5001,-0.043504
31.511,61.5001,-0.053172
31.534,61.5001,-0.051963
31.550,61.5001,-0.044713
31.567,61.5001,-0.049546
31.583,61.5001,-0.049546
31.601,61.5001,-0.047129
31.614,61.5001,-0.045921
31.631,61.5001,-0.048338
31.646,61.5001,-0.048338
31.664,61.5001,-0.042296
31.679,61.5001,-0.035045
31.694,61.5001,-0.035045
31.711,61.5001,-0.042296
31.734,61.5001,-0.043504
31.745,61.5001,-0.037462
31.759,61.5001,-0.036253
31.776,61.5001,-0.042296
31.791,61.5001,-0.042296
31.806,61.5001,-0.039879
31.825,61.5001,-0.039879
31.839,61.5001,-0.037462
31.855,61.5001,-0.043504
31.871,61.5001,-0.037462
31.886,61.5001,-0.038670
31.907,61.5001,-0.038670
31.919,61.5001,-0.042296
31.934,61.5001,-0.042296
31.950,61.5001,-0.039879
31.969,61.5001,-0.043504
31.982,61.5001,-0.039879
31.999,61.5001,-0.041087
32.014,61.5001,-0.041087
32.032,61.5001,-0.042296
32.047,61.5001,-0.031420
32.064,61.5001,-0.041087
32.088,61.5001,-0.036253
32.104,61.5001,-0.036253
32.121,61.5001,-0.041087
32.136,61.5001,-0.041087
32.153,61.5001,-0.042296
32.169,61.5001,-0.035045
32.185,61.5001,-0.037462
32.200,61.5001,-0.039879
32.218,61.5001,-0.038670
32.233,61.5001,-0.038670
32.251,61.5001,-0.039879
32.265,61.5001,-0.039879
32.281,61.5001,-0.031420
32.296,61.5001,-0.037462
32.312,61.5001,-0.037462
32.329,61.5001,-0.037462
32.345,61.5001,-0.031420
32.360,61.5001,-0.031420
32.376,61.5001,-0.043504
32.392,61.5001,-0.039879
32.409,61.5001,-0.036253
32.424,61.5001,-0.035045
32.441,61.5001,-0.042296
32.457,61.5001,-0.038670
32.474,61.5001,-0.038670
32.489,61.5001,-0.036253
32.506,61.5001,-0.032628
32.521,61.5001,-0.032628
32.536,61.5001,-0.031420
32.553,61.5001,-0.031420
32.568,61.5001,-0.036253
32.584,61.5001,-0.041087
32.616,61.5001,-0.033837
32.632,61.5001,-0.029003
32.647,61.5001,-0.033837
32.664,61.5001,-0.037462
32.679,61.5001,-0.032628
32.698,61.5001,-0.036253
32.711,61.5001,-0.032628
32.727,61.5001,-0.036253
32.743,61.5001,-0.036253
32.761,61.5001,-0.036253
32.775,61.5001,-0.031420
32.791,61.5001,-0.036253
32.807,61.5001,-0.029003
32.823,61.5001,-0.029003
32.839,61.5001,-0.041087
32.855,61.5001,-0.041087
32.871,61.5001,-0.039879
32.887,61.5001,-0.033837
32.903,61.5001,-0.030211
32.919,61.5001,-0.031420
32.936,61.5001,-0.033837
32.951,61.5001,-0.037462
32.967,61.5001,-0.036253
32.983,61.5001,-0.031420
32.999,61.5001,-0.039879
33.015,61.5001,-0.039879
33.031,61.5001,-0.030211
33.047,61.5001,-0.037462
33.069,61.5001,-0.037462
33.080,61.5001,-0.032628
33.095,61.5001,-0.030211
33.111,61.5001,-0.037462
33.139,61.5001,-0.033837
33.155,61.5001,-0.033837
33.171,61.5001,-0.032628
33.187,61.5001,-0.036253
33.205,61.5001,-0.036253
33.218,61.5001,-0.032628
33.235,61.5001,-0.030211
33.251,61.5001,-0.033837
33.268,61.5001,-0.029003
33.284,61.5001,-0.029003
33.301,61.5001,-0.036253
33.315,61.5001,-0.033837
33.331,61.5001,-0.039879
33.348,61.5001,-0.037462
33.363,61.5001,-0.037462
33.379,61.5001,-0.029003
33.395,61.5001,-0.029003
33.411,61.5001,-0.031420
33.430,61.5001,-0.030211
33.443,61.5001,-0.030211
33.459,61.5001,-0.027794
33.475,61.5001,-0.032628
33.491,61.5001,-0.031420
33.509,61.5001,-0.030211
33.523,61.5001,-0.024169
33.539,61.5001,-0.026586
33.555,61.5001,-0.033837
33.571,61.5001,-0.033837
33.587,61.5001,-0.027794
33.604,61.5001,-0.027794
33.619,61.5001,-0.027794
33.636,61.5001,-0.027794
33.651,61.5001,-0.032628
33.682,61.5001,-0.030211
33.696,61.5001,-0.036253
33.713,61.5001,-0.037462
33.729,61.5001,-0.032628
33.746,61.5001,-0.032628
33.761,61.5001,-0.030211
33.777,61.5001,-0.033837
33.793,61.5001,-0.035045
33.809,61.5001,-0.035045
33.824,61.5001,-0.031420
33.841,61.5001,-0.025377
33.857,61.5001,-0.027794
33.873,61.5001,-0.026586
33.889,61.5001,-0.029003
33.905,61.5001,-0.022961
33.920,61.5001,-0.030211
33.936,61.5001,-0.033837
33.952,61.5001,-0.031420
33.969,61.5001,-0.031420
33.988,61.5001,-0.031420
34.000,61.5001,-0.027794
34.016,61.5001,-0.024169
34.032,61.5001,-0.032628
34.051,61.5001,-0.033837
34.065,61.5001,-0.035045
34.080,61.5001,-0.027794
34.097,61.5001,-0.029003
34.115,61.5001,-0.024169
34.129,61.5001,-0.029003
34.144,61.5001,-0.032628
34.160,61.5001,-0.032628
34.178,61.5001,-0.029003
34.192,61.5001,-0.029003
34.209,61.5001,-0.026586
34.225,61.5001,-0.025377
34.240,61.5001,-0.030211
34.256,61.5001,-0.026586
34.272,61.5001,-0.027794
34.288,61.5001,-0.031420
34.305,61.5001,-0.031420
34.321,61.5001,-0.031420
34.336,61.5001,-0.026586
34.352,61.5001,-0.026586
34.368,61.5001,-0.030211
34.384,61.5001,-0.030211
34.400,61.5001,-0.033837
34.416,61.5001,-0.030211
34.432,61.5001,-0.030211
34.448,61.5001,-0.026586
34.464,61.5001,-0.027794
34.483,61.5001,-0.025377
34.497,61.5001,-0.030211
34.512,61.5001,-0.027794
34.528,61.5001,-0.033837
34.545,61.5001,-0.033837
34.561,61.5001,-0.029003
34.576,61.5001,-0.032628
34.592,61.5001,-0.025377
34.609,61.5001,-0.022961
34.625,61.5001,-0.021752
34.640,61.5001,-0.022961
34.656,61.5001,-0.029003
34.674,61.5001,-0.029003
34.690,61.5001,-0.025377
34.705,61.5001,-0.030211
34.721,61.5001,-0.030211
34.736,61.5001,-0.029003
34.753,61.5001,-0.026586
34.768,61.5001,-0.025377
34.791,61.5001,-0.031420
34.807,61.5001,-0.024169
34.823,61.5001,-0.030211
34.839,61.5001,-0.038670
34.860,61.5001,-0.029003
34.872,61.5001,-0.029003
34.889,61.5001,-0.031420
34.903,61.5001,-0.025377
34.920,61.5001,-0.024169
34.936,61.5001,-0.022961
34.951,61.5001,-0.029003
34.967,61.5001,-0.029003
34.984,61.5001,-0.032628
35.000,61.5001,-0.025377
35.017,61.5001,-0.024169
35.031,61.5001,-0.029003
35.047,61.5001,-0.027794
35.063,61.5001,-0.027794
35.079,61.5001,-0.026586
35.095,61.5001,-0.022961
35.111,61.5001,-0.033837
35.127,61.5001,-0.032628
35.143,61.5001,-0.032628
35.159,61.5001,-0.026586
35.175,61.5001,-0.022961
35.191,61.5001,-0.027794
35.207,61.5001,-0.026586
35.224,61.5001,-0.030211
35.239,61.5001,-0.026586
35.255,61.5001,-0.026586
35.271,61.5001,-0.027794
35.288,61.5001,-0.030211
35.304,61.5001,-0.030211
35.319,61.5001,-0.031420
35.350,61.5001,-0.030211
35.367,61.5001,-0.029003
35.382,61.5001,-0.029003
35.398,61.5001,-0.025377
35.414,61.5001,-0.026586
35.430,61.5001,-0.026586
35.446,61.5001,-0.029003
35.462,61.5001,-0.029003
35.478,61.5001,-0.031420
35.494,61.5001,-0.031420
35.510,61.5001,-0.033837
35.526,61.5001,-0.024169
35.542,61.5001,-0.024169
35.559,61.5001,-0.026586
35.576,61.5001,-0.026586
35.590,61.5001,-0.029003
35.607,61.5001,-0.031420
35.622,61.5001,-0.026586
35.638,61.5001,-0.025377
35.654,61.5001,-0.025377
35.670,61.5001,-0.027794
35.686,61.5001,-0.031420
35.702,61.5001,-0.030211
35.720,61.5001,-0.029003
35.734,61.5001,-0.026586
35.750,61.5001,-0.025377
35.766,61.5001,-0.024169
35.783,61.5001,-0.026586
35.798,61.5001,-0.027794
35.814,61.5001,-0.031420
35.830,61.5001,-0.032628
35.850,61.5001,-0.030211
35.862,61.5001,-0.026586
35.878,61.5001,-0.024169
35.894,61.5001,-0.018127
35.915,61.5001,-0.022961
35.931,61.5001,-0.029003
35.947,61.5001,-0.027794
35.962,61.5001,-0.031420
35.980,61.5001,-0.026586
35.995,61.5001,-0.031420
36.011,61.5001,-0.029003
36.027,61.5001,-0.021752
36.045,61.5001,-0.021752
36.060,61.5001,-0.029003
36.076,61.5001,-0.024169
36.092,61.5001,-0.020544
36.107,61.5001,-0.027794
36.122,61.5001,-0.027794
36.139,61.5001,-0.025377
36.155,61.5001,-0.025377
36.172,61.5001,-0.026586
36.188,61.5001,-0.035045
36.209,61.5001,-0.026586
36.219,61.5001,-0.022961
36.236,61.5001,-0.024169
36.250,61.5001,-0.022961
36.267,61.5001,-0.024169
36.283,61.5001,-0.025377
36.299,61.5001,-0.027794
36.315,61.5001,-0.026586
36.331,61.5001,-0.027794
36.347,61.5001,-0.027794
36.364,61.5001,-0.022961
36.387,61.5001,-0.027794
36.409,61.5001,-0.029003
36.426,61.5001,-0.025377
36.457,61.5001,-0.025377
36.472,61.5001,-0.027794
36.488,61.5001,-0.022961
36.504,61.5001,-0.022961
36.521,61.5001,-0.029003
36.536,61.5001,-0.026586
36.552,61.5001,-0.031420
36.568,61.5001,-0.027794
36.584,61.5001,-0.014501
36.601,61.5001,-0.016918
36.616,61.5001,-0.022961
36.632,61.5001,-0.029003
36.649,61.5001,-0.026586
36.664,61.5001,-0.025377
36.681,61.5001,-0.029003
36.696,61.5001,-0.030211
36.713,61.5001,-0.026586
36.729,61.5001,-0.020544
36.746,61.5001,-0.021752
36.760,61.5001,-0.022961
36.776,61.5001,-0.022961
36.792,61.5001,-0.022961
36.808,61.5001,-0.021752
36.824,61.5001,-0.021752
36.841,61.5001,-0.022961
36.857,61.5001,-0.030211
36.872,61.5001,-0.030211
36.889,61.5001,-0.032628
36.904,61.5001,-0.031420
36.920,61.5001,-0.020544
36.936,61.5001,-0.024169
36.953,61.5001,-0.024169
36.968,61.5001,-0.024169
36.984,61.5001,-0.024169
37.000,61.5001,-0.026586
37.017,61.5001,-0.022961
37.032,61.5001,-0.026586
37.048,61.5001,-0.020544
37.064,61.5001,-0.026586
37.081,61.5001,-0.019335
37.096,61.5001,-0.020544
37.112,61.5001,-0.022961
37.128,61.5001,-0.026586
37.145,61.5001,-0.027794
37.160,61.5001,-0.021752
37.177,61.5001,-0.024169
37.192,61.5001,-0.027794
37.209,61.5001,-0.030211
37.225,61.5001,-0.024169
37.242,61.5001,-0.024169
37.256,61.5001,-0.026586
37.272,61.5001,-0.026586
37.288,61.5001,-0.020544
37.306,61.5001,-0.020544
37.320,61.5001,-0.025377
37.336,61.5001,-0.025377
37.352,61.5001,-0.026586
37.368,61.5001,-0.029003
37.387,61.5001,-0.029003
37.400,61.5001,-0.024169
37.416,61.5001,-0.022961
37.432,61.5001,-0.022961
37.448,61.5001,-0.022961
37.465,61.5001,-0.022961
37.480,61.5001,-0.024169
37.496,61.5001,-0.025377
37.515,61.5001,-0.025377
37.528,61.5001,-0.021752
37.544,61.5001,-0.022961
37.560,61.5001,-0.025377
37.576,61.5001,-0.030211
37.593,61.5001,-0.025377
37.608,61.5001,-0.031420
37.624,61.5001,-0.031420
37.641,61.5001,-0.026586
37.656,61.5001,-0.027794
37.672,61.5001,-0.022961
37.688,61.5001,-0.025377
37.706,61.5001,-0.025377
37.721,61.5001,-0.027794
37.736,61.5001,-0.025377
37.752,61.5001,-0.030211
37.768,61.5001,-0.021752
37.784,61.5001,-0.021752
37.800,61.5001,-0.021752
37.816,61.5001,-0.021752
37.832,61.5001,-0.031420
37.848,61.5001,-0.029003
37.864,61.5001,-0.029003
37.880,61.5001,-0.025377
37.897,61.5001,-0.027794
37.912,61.5001,-0.021752
37.928,61.5001,-0.024169
37.945,61.5001,-0.026586
37.960,61.5001,-0.024169
37.977,61.5001,-0.026586
37.992,61.5001,-0.029003
38.008,61.5001,-0.024169
38.024,61.5001,-0.022961
38.041,61.5001,-0.031420
38.056,61.5001,-0.027794
38.071,61.5001,-0.020544
38.088,61.5001,-0.024169
38.103,61.5001,-0.029003
38.127,61.5001,-0.029003
38.143,61.5001,-0.020544
38.159,61.5001,-0.024169
38.175,61.5001,-0.026586
38.192,61.5001,-0.024169
38.208,61.5001,-0.025377
38.224,61.5001,-0.025377
38.239,61.5001,-0.024169
38.258,61.5001,-0.021752
38.270,61.5001,-0.019335
38.286,61.5001,-0.026586
38.304,61.5001,-0.026586
38.319,61.5001,-0.022961
38.335,61.5001,-0.025377
38.351,61.5001,-0.029003
38.366,61.5001,-0.021752
38.382,61.5001,-0.021752
38.400,61.5001,-0.024169
38.416,61.5001,-0.025377
38.431,61.5001,-0.029003
38.447,61.5001,-0.025377
38.462,61.5001,-0.026586
38.481,61.5001,-0.029003
38.494,61.5001,-0.021752
38.511,61.5001,-0.022961
38.526,61.5001,-0.025377
38.543,61.5001,-0.025377
38.559,61.5001,-0.024169
38.574,61.5001,-0.022961
38.590,61.5001,-0.016918
38.607,61.5001,-0.020544
38.622,61.5001,-0.020544
38.639,61.5001,-0.021752
38.665,61.5001,-0.022961
38.681,61.5001,-0.019335
38.697,61.5001,-0.022961
38.713,61.5001,-0.026586
38.730,61.5001,-0.027794
38.746,61.5001,-0.029003
38.763,61.5001,-0.024169
38.777,61.5001,-0.020544
38.796,61.5001,-0.025377
38.809,61.5001,-0.027794
38.826,61.5001,-0.031420
38.842,61.5001,-0.022961
38.857,61.5001,-0.029003
38.873,61.5001,-0.029003
38.889,61.5001,-0.026586
38.905,61.5001,-0.030211
38.922,61.5001,-0.022961
38.938,61.5001,-0.020544
38.953,61.5001,-0.022961
38.971,61.5001,-0.024169
38.985,61.5001,-0.027794
39.004,61.5001,-0.022961
39.025,61.5001,-0.022961
39.048,61.5001,-0.025377
39.065,61.5001,-0.019335
39.082,61.5001,-0.026586
39.097,61.5001,-0.029003
39.115,61.5001,-0.021752
39.129,61.5001,-0.027794
39.146,61.5001,-0.026586
39.161,61.5001,-0.025377
39.178,61.5001,-0.026586
39.207,61.5001,-0.027794
39.223,61.5001,-0.022961
39.240,61.5001,-0.025377
39.255,61.5001,-0.029003
39.273,61.5001,-0.020544
39.287,61.5001,-0.026586
39.303,61.5001,-0.024169
39.319,61.5001,-0.021752
39.335,61.5001,-0.024169
39.352,61.5001,-0.030211
39.368,61.5001,-0.027794
39.383,61.5001,-0.026586
39.399,61.5001,-0.020544
39.415,61.5001,-0.020544
39.431,61.5001,-0.025377
39.447,61.5001,-0.029003
39.463,61.5001,-0.020544
39.479,61.5001,-0.025377
39.495,61.5001,-0.026586
39.513,61.5001,-0.029003
39.527,61.5001,-0.020544
39.543,61.5001,-0.022961
39.559,61.5001,-0.016918
39.577,61.5001,-0.016918
39.591,61.5001,-0.024169
39.607,61.5001,-0.019335
39.623,61.5001,-0.024169
39.640,61.5001,-0.030211
39.655,61.5001,-0.031420
39.671,61.5001,-0.026586
39.687,61.5001,-0.025377
39.703,61.5001,-0.025377
39.719,61.5001,-0.026586
39.735,61.5001,-0.025377
39.759,61.5001,-0.027794
39.775,61.5001,-0.025377
39.791,61.5001,-0.015710
39.807,61.5001,-0.015710
39.828,61.5001,-0.021752
39.840,61.5001,-0.026586
39.855,61.5001,-0.025377
39.871,61.5001,-0.019335
39.887,61.5001,-0.021752
39.903,61.5001,-0.020544
39.919,61.5001,-0.021752
39.935,61.5001,-0.024169
39.951,61.5001,-0.022961
39.968,61.5001,-0.022961
39.984,61.5001,-0.022961
39.999,61.5001,-0.021752
40.015,61.5001,-0.021752
40.031,61.5001,-0.021752
40.047,61.5001,-0.029003
40.063,61.5001,-0.029003
40.079,61.5001,-0.030211
40.095,61.5001,-0.024169
40.111,61.5001,-0.024169
40.128,61.5001,-0.024169
40.143,61.5001,-0.024169
40.159,61.5001,-0.022961
40.175,61.5001,-0.026586
40.194,61.5001,-0.026586
40.207,61.5001,-0.027794
40.223,61.5001,-0.022961
40.239,61.5001,-0.024169
40.255,61.5001,-0.020544
40.271,61.5001,-0.022961
40.287,61.5001,-0.021752
40.316,61.5001,-0.022961
40.332,61.5001,-0.025377
40.348,61.5001,-0.024169
40.364,61.5001,-0.025377
40.381,61.5001,-0.025377
40.396,61.5001,-0.025377
40.415,61.5001,-0.025377
40.428,61.5001,-0.025377
40.444,61.5001,-0.025377
40.461,61.5001,-0.021752
40.477,61.5001,-0.025377
40.492,61.5001,-0.025377
40.512,61.5001,-0.022961
40.524,61.5001,-0.022961
40.540,61.5001,-0.022961
40.556,61.5001,-0.022961
40.573,61.5001,-0.026586
40.588,61.5001,-0.024169
40.604,61.5001,-0.021752
40.622,61.5001,-0.026586
40.636,61.5001,-0.026586
40.652,61.5001,-0.029003
40.667,61.5001,-0.021752
40.684,61.5001,-0.026586
40.699,61.5001,-0.022961
40.716,61.5001,-0.016918
40.732,61.5001,-0.024169
40.752,61.5001,-0.021752
40.767,61.5001,-0.021752
40.780,61.5001,-0.021752
40.796,61.5001,-0.021752
40.811,61.5001,-0.022961
40.828,61.5001,-0.020544
40.844,61.5001,-0.024169
40.872,61.5001,-0.024169
40.887,61.5001,-0.026586
40.903,61.5001,-0.024169
40.919,61.5001,-0.027794
40.936,61.5001,-0.031420
40.951,61.5001,-0.025377
40.967,61.5001,-0.022961
40.984,61.5001,-0.020544
41.000,61.5001,-0.019335
41.016,61.5001,-0.022961
41.032,61.5001,-0.022961
41.047,61.5001,-0.026586
41.063,61.5001,-0.026586
41.080,61.5001,-0.024169
41.095,61.5001,-0.024169
41.111,61.5001,-0.026586
41.128,61.5001,-0.025377
41.144,61.5001,-0.022961
41.159,61.5001,-0.020544
41.179,61.5001,-0.020544
41.191,61.5001,-0.026586
41.208,61.5001,-0.021752
41.223,61.5001,-0.024169
41.239,61.5001,-0.021752
41.255,61.5001,-0.024169
41.271,61.5001,-0.022961
41.287,61.5001,-0.026586
41.304,61.5001,-0.019335
41.319,61.5001,-0.024169
41.338,61.5001,-0.025377
41.351,61.5001,-0.024169
41.367,61.5001,-0.026586
41.384,61.5001,-0.024169
41.400,61.5001,-0.022961
41.424,61.5001,-0.025377
41.439,61.5001,-0.022961
41.455,61.5001,-0.021752
41.471,61.5001,-0.026586
41.488,61.5001,-0.024169
41.503,61.5001,-0.031420
41.519,61.5001,-0.027794
41.535,61.5001,-0.024169
41.552,61.5001,-0.021752
41.569,61.5001,-0.019335
41.585,61.5001,-0.027794
41.599,61.5001,-0.027794
41.616,61.5001,-0.027794
41.631,61.5001,-0.019335
41.647,61.5001,-0.019335
41.663,61.5001,-0.024169
41.679,61.5001,-0.021752
41.696,61.5001,-0.021752
41.711,61.5001,-0.027794
41.728,61.5001,-0.018127
41.748,61.5001,-0.018127
41.760,61.5001,-0.014501
41.775,61.5001,-0.019335
41.791,61.5001,-0.018127
41.808,61.5001,-0.024169
41.823,61.5001,-0.021752
41.839,61.5001,-0.025377
41.855,61.5001,-0.025377
41.872,61.5001,-0.020544
41.888,61.5001,-0.026586
41.903,61.5001,-0.022961
41.919,61.5001,-0.022961
41.936,61.5001,-0.018127
41.951,61.5001,-0.024169
41.981,61.5001,-0.027794
41.996,61.5001,-0.020544
42.012,61.5001,-0.021752
42.028,61.5001,-0.021752
42.045,61.5001,-0.021752
42.062,61.5001,-0.020544
42.076,61.5001,-0.022961
42.092,61.5001,-0.022961
42.110,61.5001,-0.022961
42.124,61.5001,-0.022961
42.140,61.5001,-0.025377
42.156,61.5001,-0.020544
42.172,61.5001,-0.016918
42.188,61.5001,-0.026586
42.204,61.5001,-0.026586
42.220,61.5001,-0.024169
42.235,61.5001,-0.015710
42.252,61.5001,-0.015710
42.268,61.5001,-0.024169
42.284,61.5001,-0.025377
42.301,61.5001,-0.025377
42.317,61.5001,-0.025377
42.333,61.5001,-0.021752
42.348,61.5001,-0.027794
42.364,61.5001,-0.016918
42.380,61.5001,-0.024169
42.396,61.5001,-0.026586
42.412,61.5001,-0.022961
42.429,61.5001,-0.027794
42.444,61.5001,-0.026586
42.460,61.5001,-0.021752
42.476,61.5001,-0.019335
42.492,61.5001,-0.020544
42.508,61.5001,-0.022961
42.524,61.5001,-0.025377
42.541,61.5001,-0.020544
42.556,61.5001,-0.021752
42.572,61.5001,-0.021752
42.588,61.5001,-0.019335
42.604,61.5001,-0.021752
42.620,61.5001,-0.026586
42.638,61.5001,-0.022961
42.652,61.5001,-0.022961
42.671,61.5001,-0.020544
42.685,61.5001,-0.025377
42.700,61.5001,-0.018127
42.716,61.5001,-0.024169
42.732,61.5001,-0.024169
42.748,61.5001,-0.022961
42.764,61.5001,-0.022961
42.780,61.5001,-0.025377
42.796,61.5001,-0.025377
42.811,61.5001,-0.021752
42.828,61.5001,-0.022961
42.845,61.5001,-0.020544
42.861,61.5001,-0.019335
42.876,61.5001,-0.014501
42.891,61.4993,-0.018127
42.909,61.4500,-0.004834
42.925,61.3987,-0.013293
42.940,61.3467,0.002417
42.955,61.2929,0.014501
42.977,61.2152,0.009668
42.988,61.1806,0.027794
43.004,61.1269,0.038670
43.023,61.0629,0.038670
43.036,61.0167,0.051963
43.053,60.9585,0.054380
43.069,60.9031,0.078549
43.092,60.8239,0.088217
43.108,60.7679,0.091842
43.124,60.7148,0.093050
43.141,60.6594,0.105135
43.157,60.6001,0.117219
43.172,60.5501,0.126887
43.189,60.4913,0.131721
43.205,60.4402,0.145014
43.221,60.3824,0.154681
43.236,60.3283,0.164349
43.255,60.2671,0.174016
43.269,60.2161,0.174016
43.285,60.1644,0.180059
43.301,60.1113,0.187309
43.316,60.0576,0.196977
43.333,60.0001,0.207853
43.349,59.9446,0.215104
43.364,59.8936,0.215104
43.380,59.8385,0.216312
43.396,59.7830,0.206645
43.413,59.7287,0.201811
43.428,59.6745,0.195769
43.444,59.6167,0.195769
43.460,59.5647,0.172808
43.476,59.5103,0.157098
43.493,59.4518,0.153473
43.508,59.3994,0.152264
43.524,59.3439,0.116011
43.540,59.2915,0.059214
43.558,59.2279,0.012084
43.574,59.1758,0.010876
43.589,59.1221,0.007251
43.604,59.0721,0.004834
43.625,58.9999,0.007251
43.642,58.9441,0.007251
43.657,58.8914,0.002417
43.673,58.8360,0.002417
43.690,58.7788,0.007251
43.706,58.7253,0.003625
43.722,58.6699,-0.001208
43.737,58.6172,0.002417
43.753,58.5611,0.000000
43.769,58.5081,0.004834
43.785,58.4532,0.004834
43.801,58.3951,0.003625
43.817,58.3416,0.001208
43.834,58.2862,0.001208
43.850,58.2332,0.001208
43.867,58.1720,0.002417
43.881,58.1230,0.007251
43.898,58.0650,0.004834
43.913,58.0148,0.001208
43.930,57.9545,0.000000
43.946,57.9015,0.000000
43.964,57.8371,0.004834
43.977,57.7937,0.004834
43.995,57.7351,0.001208
44.009,57.6865,0.001208
44.025,57.6315,-0.001208
44.042,57.5733,-0.001208
44.057,57.5226,0.000000
44.073,57.4664,0.001208
44.089,57.4131,0.003625
44.106,57.3535,0.004834
44.121,57.3018,0.007251
44.137,57.2491,0.001208
44.161,57.1670,0.003625
44.176,57.1159,0.006042
44.192,57.0598,0.000000
44.208,57.0060,0.002417
44.226,56.9393,0.002417
44.240,56.8955,0.001208
44.256,56.8397,0.000000
44.272,56.7870,0.001208
44.288,56.7312,0.012084
44.305,56.6740,0.004834
44.323,56.6131,0.007251
44.336,56.5680,-0.001208
44.354,56.5063,-0.001208
44.369,56.4536,0.007251
44.386,56.3937,0.007251
44.401,56.3441,0.006042
44.416,56.2937,0.002417
44.432,56.2359,0.002417
44.448,56.1829,0.007251
44.464,56.1284,0.000000
44.480,56.0730,0.003625
44.496,56.0206,0.003625
44.515,55.9549,0.003625
44.528,55.9104,0.004834
44.544,55.8563,0.004834
44.560,55.7991,0.000000
44.578,55.7392,0.001208
44.592,55.6900,0.003625
44.608,55.6359,0.001208
44.624,55.5828,0.010876
44.643,55.5177,0.007251
44.656,55.4722,-0.002417
44.672,55.4500,-0.030211
44.688,55.4500,0.000000
44.704,55.4500,-0.002417
44.720,55.4500,0.000000
44.736,55.4500,0.007251
44.752,55.4500,0.003625
44.769,55.4500,-0.007251
44.784,55.4500,-0.007251
44.801,55.4500,0.002417
44.816,55.4500,0.009668
44.833,55.4500,0.009668
44.848,55.4500,0.002417
44.864,55.4500,0.002417
44.880,55.4500,0.010876
44.896,55.4500,0.004834
44.912,55.4500,0.008459
44.928,55.4500,0.010876
44.944,55.4500,0.004834
44.960,55.4500,0.002417
44.976,55.4500,0.006042
44.991,55.4500,0.003625
45.008,55.4500,0.002417
45.024,55.4500,0.000000
45.039,55.4500,0.001208
45.056,55.4500,0.003625
45.072,55.4500,0.002417
45.087,55.4500,0.008459
45.103,55.4500,0.002417
45.121,55.4500,-0.004834
45.136,55.4500,0.006042
45.153,55.4500,0.006042
45.167,55.4500,0.004834
45.184,55.4500,0.004834
45.199,55.4500,0.003625
45.216,55.4500,-0.004834
45.243,55.5083,-0.043504
45.259,55.5587,0.000000
45.274,55.6141,0.002417
45.290,55.6675,-0.003625
45.307,55.7267,0.001208
45.322,55.7774,0.001208
45.341,55.8424,0.000000
45.354,55.8866,0.002417
45.371,55.9457,0.002417
45.387,55.9971,0.003625
45.403,56.0546,0.003625
45.419,56.1087,0.002417
45.435,56.1631,0.002417
45.451,56.2162,-0.006042
45.466,56.2696,0.001208
45.482,56.3247,0.003625
45.498,56.3791,0.004834
45.514,56.4356,0.000000
45.530,56.4883,-0.002417
45.550,56.5568,-0.001208
45.562,56.5982,0.001208
45.578,56.6537,-0.006042
45.594,56.7074,0.006042
45.610,56.7649,0.004834
45.627,56.8200,0.003625
45.642,56.8723,0.001208
45.658,56.9268,0.000000
45.675,56.9847,0.002417
45.690,57.0357,0.002417
45.706,57.0907,0.001208
45.722,57.1455,0.002417
45.741,57.2088,0.006042
45.755,57.2581,0.003625
45.770,57.3101,-0.001208
45.801,57.4163,0.000000
45.818,57.4713,0.002417
45.833,57.5250,0.001208
45.849,57.5802,0.000000
45.865,57.6357,0.000000
45.881,57.6901,0.002417
45.897,57.7438,0.000000
45.920,57.8288,0.000000
45.944,57.9057,0.002417
45.962,57.9656,-0.002417
45.977,58.0221,-0.001208
45.993,58.0735,0.004834
46.010,58.1313,0.006042
46.026,58.1861,-0.006042
46.042,58.2402,-0.002417
46.057,58.2925,0.001208
46.073,58.3462,0.001208
46.091,58.4086,0.000000
46.105,58.4565,-0.004834
46.121,58.5123,-0.004834
46.137,58.5657,0.004834
46.154,58.6239,0.004834
46.169,58.6783,-0.002417
46.186,58.7344,-0.002417
46.201,58.7871,0.004834
46.217,58.8416,-0.003625
46.233,58.8939,-0.006042
46.249,58.9480,-0.001208
46.265,59.0034,-0.001208
46.281,59.0586,-0.003625
46.297,59.1123,-0.001208
46.313,59.1698,-0.004834
46.336,59.2469,0.000000
46.352,59.3006,0.001208
46.368,59.3564,-0.003625
46.384,59.4101,-0.001208
46.401,59.4731,-0.003625
46.416,59.5234,-0.001208
46.432,59.5789,-0.001208
46.448,59.6298,-0.003625
46.464,59.6870,-0.003625
46.480,59.7407,0.001208
46.496,59.7934,-0.003625
46.512,59.8500,-0.003625
46.528,59.9054,-0.003625
46.544,59.9578,-0.007251
46.564,60.0266,-0.013293
46.576,60.0669,-0.010876
46.592,60.1225,-0.004834
46.608,60.1768,-0.009668
46.624,60.2333,-0.009668
46.640,60.2857,-0.010876
46.656,60.3415,-0.008459
46.672,60.3959,-0.014501
46.688,60.4547,-0.010876
46.704,60.5051,-0.015710
46.721,60.5644,-0.014501
46.736,60.6146,-0.012084
46.753,60.6756,-0.018127
46.768,60.7252,-0.014501
46.787,60.7902,-0.014501
46.800,60.8337,-0.029003
46.816,60.8888,-0.030211
46.832,60.9439,-0.026586
46.848,61.0004,-0.032628
46.871,61.0771,-0.035045
46.887,61.1321,-0.045921
46.903,61.1866,-0.049546
46.919,61.2407,-0.056797
46.935,61.2988,-0.056797
46.951,61.3537,-0.061631
46.969,61.4145,-0.068882
46.984,61.4500,-0.068882
46.999,61.4500,-0.065256
47.015,61.4500,-0.065256
47.031,61.4500,-0.073715
47.047,61.4500,-0.066465
47.063,61.4500,-0.066465
47.078,61.4500,-0.059214
47.094,61.4500,-0.058005
47.110,61.4500,-0.065256
47.127,61.4500,-0.059214
47.143,61.4500,-0.050755
47.158,61.4500,-0.062839
47.175,61.4500,-0.055589
47.191,61.4500,-0.062839
47.206,61.4500,-0.056797
