Elapsed Time (s),Position (mm),Force (N)
-0.011,73.9093,-0.144289
0.020,73.9093,-0.144289
0.051,73.9093,-0.144289
0.081,73.9093,-0.144289
0.112,73.9093,-0.144289
0.144,73.9093,-0.117865
0.175,73.9093,-0.117865
0.206,73.9093,-0.117865
0.237,73.9093,-0.117865
0.269,73.9093,-0.117865
0.300,73.9093,-0.117865
0.331,73.9093,-0.117865
0.363,73.9093,-0.117865
0.395,73.9093,-0.099901
0.425,73.9093,-0.099901
0.457,73.9093,-0.099901
0.488,73.9093,-0.099901
0.518,73.9093,-0.099901
0.550,73.9093,-0.099901
0.580,73.9093,-0.099901
0.612,73.9093,-0.099901
0.643,73.9093,-0.092683
0.674,73.9093,-0.092683
0.705,73.9093,-0.092683
0.737,73.9093,-0.092683
0.769,73.9093,-0.092683
0.801,73.9093,-0.092683
0.832,73.9093,-0.092683
0.863,73.9093,-0.092683
0.894,73.9093,-0.092683
0.926,73.9093,-0.092683
0.954,73.9093,-0.087931
0.988,73.9093,-0.087931
1.019,73.9093,-0.087931
1.050,73.9093,-0.087931
1.081,73.9093,-0.087931
1.113,73.9093,-0.087931
1.144,73.9093,-0.087931
1.175,73.9093,-0.084430
1.208,73.9093,-0.084430
1.238,73.9093,-0.084430
1.269,73.9093,-0.084430
1.300,73.9093,-0.084430
1.330,73.9093,-0.084430
1.361,73.9093,-0.084430
1.392,73.9093,-0.084430
1.423,73.9093,-0.081692
1.454,73.9093,-0.081692
1.487,73.9093,-0.081692
1.517,73.9093,-0.081692
1.548,73.9093,-0.081692
1.580,73.9093,-0.081692
1.611,73.9093,-0.081692
1.642,73.9093,-0.081692
1.672,73.9093,-0.079442
1.703,73.9093,-0.079442
1.734,73.9093,-0.079442
1.765,73.9093,-0.079442
1.797,73.9093,-0.079442
1.828,73.9093,-0.079442
1.859,73.9093,-0.079442
1.892,73.9093,-0.079442
1.922,73.9093,-0.077560
1.953,73.9093,-0.077560
1.983,73.9093,-0.077560
2.014,73.9093,-0.077560
2.045,73.9093,-0.077560
2.077,73.9093,-0.077560
2.108,73.9093,-0.077560
2.139,73.9093,-0.077560
2.170,73.9093,-0.075970
2.203,73.9093,-0.075970
2.233,73.9093,-0.075970
2.263,73.9093,-0.075970
2.294,73.9093,-0.075970
2.324,73.9093,-0.075970
2.355,73.9093,-0.075970
2.386,73.9093,-0.075970
2.417,73.9093,-0.074540
2.447,73.9093,-0.074540
2.478,73.9093,-0.074540
2.509,73.9093,-0.074540
2.539,73.9093,-0.074540
2.571,73.9093,-0.074540
2.601,73.9093,-0.074540
2.633,73.9093,-0.074540
2.662,73.9093,-0.073307
2.693,73.9093,-0.073307
2.724,73.9093,-0.073307
2.757,73.9093,-0.073307
2.786,73.9093,-0.073307
2.817,73.9093,-0.073307
2.848,73.9093,-0.073307
2.878,73.9093,-0.073307
2.909,73.9093,-0.072178
2.941,73.9093,-0.072178
2.972,73.9093,-0.072178
3.002,73.9093,-0.072178
3.033,73.9093,-0.072178
3.063,73.9093,-0.072178
3.094,73.9093,-0.072178
3.125,73.9093,-0.072178
3.155,73.9093,-0.071086
3.187,73.9093,-0.071086
3.218,73.9093,-0.071086
3.249,73.9093,-0.071086
3.280,73.9093,-0.071086
3.311,73.9093,-0.071086
3.342,73.9093,-0.071086
3.374,73.9093,-0.071086
3.404,73.9093,-0.070136
3.435,73.9093,-0.070136
3.466,73.9093,-0.070136
3.498,73.9093,-0.070136
3.528,73.9093,-0.070136
3.560,73.9093,-0.070136
3.592,73.9093,-0.070136
3.623,73.9093,-0.070136
3.653,73.9093,-0.069185
3.684,73.9093,-0.069185
3.715,73.9093,-0.069185
3.747,73.9093,-0.069185
3.778,73.9093,-0.069185
3.809,73.9093,-0.069185
3.840,73.9093,-0.069185
3.871,73.9093,-0.069185
3.903,73.9093,-0.068244
3.933,73.9093,-0.068244
3.964,73.9093,-0.068244
3.996,73.9093,-0.068244
4.027,73.9092,-0.068244
4.058,73.9084,-0.068244
4.090,73.9068,-0.068244
4.121,73.9046,-0.068244
4.153,73.9015,-0.067595
4.184,73.8976,-0.067595
4.214,73.8933,-0.067595
4.245,73.8882,-0.067595
4.277,73.8821,-0.067595
4.308,73.8756,-0.067595
4.338,73.8682,-0.067595
4.370,73.8600,-0.067595
4.402,73.8509,-0.067595
4.431,73.8421,-0.044022
4.462,73.8316,-0.044022
4.492,73.8212,-0.044022
4.522,73.8097,-0.044022
4.553,73.7972,-0.044022
4.583,73.7844,-0.044022
4.615,73.7700,-0.044022
4.647,73.7555,-0.044022
4.678,73.7395,-0.019997
4.708,73.7244,-0.019997
4.739,73.7075,-0.019997
4.770,73.6901,-0.019997
4.801,73.6720,-0.019997
4.832,73.6529,-0.019997
4.862,73.6337,-0.019997
4.893,73.6134,-0.019997
4.924,73.5924,-0.009721
4.955,73.5702,-0.009721
4.986,73.5476,-0.009721
5.017,73.5242,-0.009721
5.048,73.5006,-0.009721
5.079,73.4757,-0.009721
5.110,73.4502,-0.009721
5.142,73.4240,-0.009721
5.173,73.3971,0.009128
5.204,73.3683,0.009128
5.235,73.3399,0.009128
5.267,73.3109,0.009128
5.297,73.2811,0.009128
5.328,73.2504,0.009128
5.359,73.2196,0.009128
5.391,73.1870,0.009128
5.422,73.1540,0.024796
5.453,73.1207,0.024796
5.483,73.0871,0.024796
5.514,73.0509,0.024796
5.545,73.0163,0.024796
5.576,72.9797,0.024796
5.607,72.9429,0.024796
5.639,72.9043,0.024796
5.670,72.8655,0.034668
5.701,72.8258,0.034668
5.731,72.7868,0.034668
5.761,72.7471,0.034668
5.793,72.7051,0.034668
5.824,72.6621,0.034668
5.855,72.6196,0.034668
5.886,72.5760,0.034668
5.917,72.5318,0.041236
5.949,72.4851,0.041236
5.979,72.4405,0.041236
6.010,72.3932,0.041236
6.042,72.3450,0.041236
6.073,72.2964,0.041236
6.102,72.2510,0.041236
6.135,72.1983,0.041236
6.165,72.1501,0.047410
6.197,72.0971,0.047410
6.227,72.0482,0.047410
6.257,71.9956,0.047410
6.288,71.9438,0.047410
6.323,71.8799,0.047410
6.365,71.8081,0.047410
6.396,71.7525,0.047410
6.427,71.6968,0.052661
6.457,71.6404,0.052661
6.487,71.5840,0.052661
6.519,71.5241,0.052661
6.553,71.4587,0.052661
6.580,71.4056,0.052661
6.611,71.3473,0.052661
6.642,71.2869,0.057074
6.673,71.2284,0.057074
6.705,71.1680,0.057074
6.736,71.1107,0.057074
6.766,71.0556,0.057074
6.797,71.0006,0.057074
6.828,70.9448,0.057074
6.859,70.8893,0.057074
6.890,70.8359,0.057074
6.921,70.7815,0.057074
6.953,70.7270,0.038366
6.983,70.6776,0.038366
7.014,70.6270,0.038366
7.046,70.5745,0.038366
7.077,70.5248,0.038366
7.109,70.4740,0.038366
7.140,70.4256,0.038366
7.172,70.3785,0.013410
7.203,70.3303,0.013410
7.235,70.2847,0.013410
7.264,70.2398,0.013410
7.296,70.1954,0.013410
7.328,70.1505,0.013410
7.358,70.1083,0.013410
7.389,70.0656,0.013410
7.420,70.0240,0.009090
7.451,69.9839,0.009090
7.481,69.9441,0.009090
7.512,69.9051,0.009090
7.543,69.8680,0.009090
7.575,69.8280,0.009090
7.605,69.7918,0.009090
7.636,69.7555,0.009090
7.668,69.7190,0.008592
7.699,69.6842,0.008592
7.730,69.6498,0.008592
7.761,69.6155,0.008592
7.792,69.5831,0.008592
7.824,69.5499,0.008592
7.855,69.5185,0.008592
7.887,69.4870,0.008592
7.917,69.4585,0.008347
7.947,69.4299,0.008347
7.978,69.4014,0.008347
8.010,69.3734,0.008347
8.039,69.3476,0.008347
8.070,69.3215,0.008347
8.101,69.2959,0.008347
8.132,69.2708,0.008347
8.163,69.2470,0.008225
8.194,69.2232,0.008225
8.225,69.2007,0.008225
8.255,69.1798,0.008225
8.285,69.1589,0.008225
8.317,69.1376,0.008225
8.348,69.1181,0.008225
8.379,69.0990,0.008225
8.409,69.0812,0.008084
8.441,69.0636,0.008084
8.472,69.0467,0.008084
8.502,69.0305,0.008084
8.533,69.0148,0.008084
8.565,69.0002,0.008084
8.595,68.9864,0.008084
8.626,68.9733,0.008084
8.657,68.9608,0.007971
8.689,68.9487,0.007971
8.720,68.9377,0.007971
8.751,68.9275,0.007971
8.781,68.9180,0.007971
8.813,68.9089,0.007971
8.844,68.9007,0.007971
8.875,68.8933,0.007971
8.907,68.8866,0.007895
8.938,68.8805,0.007895
8.970,68.8752,0.007895
9.001,68.8707,0.007895
9.032,68.8670,0.007895
9.066,68.8638,0.007895
9.094,68.8618,0.007895
9.126,68.8602,0.007895
9.157,68.8594,0.007895
9.187,68.8593,0.007792
9.217,68.8593,0.007792
9.249,68.8593,0.007792
9.280,68.8593,0.007792
9.311,68.8595,0.007792
9.342,68.8604,0.007792
9.374,68.8620,0.007792
9.404,68.8644,0.007782
9.436,68.8675,0.007782
9.466,68.8712,0.007782
9.498,68.8759,0.007782
9.528,68.8810,0.007782
9.558,68.8867,0.007782
9.590,68.8937,0.007782
9.622,68.9012,0.007782
9.652,68.9095,0.007754
9.683,68.9182,0.007754
9.714,68.9276,0.007754
9.745,68.9381,0.007754
9.775,68.9490,0.007754
9.806,68.9605,0.007754
9.837,68.9728,0.007754
9.867,68.9859,0.007754
9.900,69.0004,0.007575
9.929,69.0147,0.007575
9.961,69.0308,0.007575
9.992,69.0462,0.007575
10.024,69.0641,0.007575
10.054,69.0812,0.007575
10.085,69.0993,0.007575
10.117,69.1185,0.007575
10.148,69.1384,0.007575
10.179,69.1591,0.007509
10.210,69.1810,0.007509
10.242,69.2033,0.007509
10.274,69.2265,0.007509
10.304,69.2496,0.007509
10.335,69.2740,0.007509
10.366,69.2982,0.007509
10.397,69.3245,0.007509
10.426,69.3491,0.007378
10.457,69.3756,0.007378
10.488,69.4038,0.007378
10.521,69.4337,0.007378
10.550,69.4621,0.007378
10.581,69.4908,0.007378
10.613,69.5226,0.007378
10.648,69.5587,0.007378
10.676,69.5873,0.007133
10.707,69.6207,0.007133
10.738,69.6550,0.007133
10.768,69.6874,0.007133
10.799,69.7225,0.007133
10.830,69.7579,0.007133
10.861,69.7947,0.007133
10.892,69.8315,0.006926
10.923,69.8703,0.006926
10.954,69.9087,0.006926
10.985,69.9485,0.006926
11.016,69.9877,0.006926
11.045,70.0276,0.006926
11.077,70.0685,0.006926
11.107,70.1112,0.006926
11.138,70.1536,0.006587
11.169,70.1975,0.006587
11.202,70.2439,0.006587
11.230,70.2863,0.006587
11.261,70.3328,0.006587
11.292,70.3776,0.006587
11.323,70.4260,0.006587
11.354,70.4738,0.006587
11.385,70.5225,0.006587
11.415,70.5701,0.006136
11.445,70.6194,0.006136
11.476,70.6698,0.006136
11.507,70.7205,0.006136
11.538,70.7750,0.006136
11.569,70.8268,0.006136
11.599,70.8789,0.006136
11.630,70.9345,0.006136
11.661,70.9878,0.005533
11.692,71.0457,0.005533
11.723,71.1019,0.005533
11.754,71.1592,0.005533
11.785,71.2176,0.005533
11.817,71.2773,0.005533
11.846,71.3334,0.005533
11.876,71.3942,0.005533
11.908,71.4549,0.004592
11.939,71.5138,0.004592
11.971,71.5714,0.004592
12.002,71.6304,0.004592
12.034,71.6900,0.004592
12.066,71.7455,0.004592
12.095,71.7977,0.004592
12.127,71.8530,0.004592
12.157,71.9058,0.003407
12.191,71.9641,0.003407
12.219,72.0111,0.003407
12.251,72.0636,0.003407
12.281,72.1129,0.003407
12.313,72.1645,0.003407
12.344,72.2140,0.003407
12.376,72.2635,0.003407
12.406,72.3103,0.001553
12.438,72.3590,0.001553
12.468,72.4039,0.001553
12.499,72.4489,0.001553
12.530,72.4946,0.001553
12.561,72.5383,0.001553
12.592,72.5824,0.001553
12.623,72.6245,0.001553
12.654,72.6669,-0.001948
12.686,72.7090,-0.001948
12.717,72.7500,-0.001948
12.748,72.7895,-0.001948
12.780,72.8295,-0.001948
12.810,72.8666,-0.001948
12.841,72.9049,-0.001948
12.871,72.9404,-0.001948
12.897,72.9710,-0.008978
12.933,73.0123,-0.008978
12.964,73.0468,-0.008978
12.995,73.0811,-0.008978
13.027,73.1152,-0.008978
13.057,73.1475,-0.008978
13.088,73.1787,-0.008978
13.120,73.2099,-0.008978
13.151,73.2407,-0.022284
13.181,73.2699,-0.022284
13.212,73.2992,-0.022284
13.243,73.3272,-0.022284
13.274,73.3553,-0.022284
13.306,73.3817,-0.022284
13.336,73.4079,-0.022284
13.367,73.4322,-0.022284
13.399,73.4577,-0.022284
13.428,73.4804,-0.041914
13.459,73.5034,-0.041914
13.490,73.5256,-0.041914
13.521,73.5475,-0.041914
13.552,73.5680,-0.041914
13.583,73.5882,-0.041914
13.613,73.6077,-0.041914
13.644,73.6260,-0.041914
13.675,73.6440,-0.064922
13.707,73.6619,-0.064922
13.738,73.6785,-0.064922
13.771,73.6955,-0.064922
13.802,73.7102,-0.064922
13.833,73.7247,-0.064922
13.864,73.7386,-0.064922
13.895,73.7514,-0.064922
13.926,73.7636,-0.064922
13.958,73.7752,-0.088909
13.987,73.7856,-0.088909
14.018,73.7953,-0.088909
14.048,73.8046,-0.088909
14.079,73.8129,-0.088909
14.110,73.8210,-0.088909
14.145,73.8288,-0.088909
14.173,73.8346,-0.120547
14.203,73.8400,-0.120547
14.234,73.8449,-0.120547
14.265,73.8491,-0.120547
14.297,73.8527,-0.120547
14.327,73.8555,-0.120547
14.358,73.8574,-0.120547
14.389,73.8587,-0.120547
14.420,73.8593,-0.149183
14.451,73.8593,-0.149183
14.481,73.8593,-0.149183
14.513,73.8593,-0.149183
14.544,73.8593,-0.149183
14.576,73.8593,-0.149183
14.607,73.8593,-0.149183
14.639,73.8593,-0.149183
14.671,73.8593,-0.136451
14.703,73.8593,-0.136451
14.733,73.8593,-0.136451
14.764,73.8593,-0.136451
14.794,73.8593,-0.136451
14.827,73.8593,-0.136451
14.856,73.8593,-0.136451
14.888,73.8593,-0.136451
14.919,73.8593,-0.107410
14.951,73.8593,-0.107410
14.982,73.8593,-0.107410
15.013,73.8593,-0.107410
15.044,73.8593,-0.107410
15.075,73.8593,-0.107410
15.106,73.8593,-0.107410
15.141,73.8593,-0.107410
15.169,73.8593,-0.096588
15.200,73.8593,-0.096588
15.229,73.8593,-0.096588
15.261,73.8593,-0.096588
15.291,73.8593,-0.096588
15.321,73.8593,-0.096588
15.352,73.8593,-0.096588
15.383,73.8593,-0.096588
15.415,73.8593,-0.090594
15.448,73.8593,-0.090594
15.478,73.8593,-0.090594
15.509,73.8593,-0.090594
15.540,73.8593,-0.090594
15.570,73.8593,-0.090594
15.601,73.8593,-0.090594
15.633,73.8593,-0.090594
15.664,73.8593,-0.086350
15.695,73.8593,-0.086350
15.725,73.8593,-0.086350
15.757,73.8593,-0.086350
15.787,73.8593,-0.086350
15.820,73.8593,-0.086350
15.849,73.8593,-0.086350
15.881,73.8593,-0.086350
15.912,73.8593,-0.083225
15.943,73.8593,-0.083225
15.974,73.8593,-0.083225
16.006,73.8593,-0.083225
16.037,73.8593,-0.083225
16.068,73.8593,-0.083225
16.098,73.8593,-0.083225
16.129,73.8593,-0.080854
16.160,73.8593,-0.080854
16.191,73.8593,-0.080854
16.222,73.8593,-0.080854
16.253,73.8593,-0.080854
16.284,73.8593,-0.080854
16.316,73.8593,-0.080854
16.351,73.8593,-0.080854
16.379,73.8593,-0.080854
16.409,73.8593,-0.078746
16.440,73.8593,-0.078746
16.471,73.8593,-0.078746
16.502,73.8593,-0.078746
16.533,73.8593,-0.078746
16.564,73.8593,-0.078746
16.593,73.8593,-0.078746
16.627,73.8593,-0.078746
16.658,73.8593,-0.076873
16.688,73.8593,-0.076873
16.720,73.8593,-0.076873
16.751,73.8593,-0.076873
16.783,73.8593,-0.076873
16.814,73.8593,-0.076873
16.845,73.8593,-0.076873
16.876,73.8593,-0.076873
16.907,73.8593,-0.076873
16.939,73.8593,-0.075396
16.969,73.8593,-0.075396
17.001,73.8593,-0.075396
17.033,73.8593,-0.075396
17.063,73.8593,-0.075396
17.094,73.8593,-0.075396
17.125,73.8593,-0.075396
17.156,73.8593,-0.075396
17.186,73.8593,-0.074041
17.218,73.8593,-0.074041
17.249,73.8593,-0.074041
17.281,73.8593,-0.074041
17.311,73.8593,-0.074041
17.342,73.8593,-0.074041
17.373,73.8593,-0.074041
17.404,73.8593,-0.074041
17.435,73.8593,-0.072780
17.466,73.8593,-0.072780
17.497,73.8593,-0.072780
17.528,73.8593,-0.072780
17.558,73.8593,-0.072780
17.589,73.8593,-0.072780
17.620,73.8593,-0.072780
17.652,73.8593,-0.072780
17.682,73.8593,-0.072780
17.712,73.8593,-0.071792
17.743,73.8593,-0.071792
17.774,73.8593,-0.071792
17.805,73.8593,-0.071792
17.835,73.8593,-0.071792
17.867,73.8593,-0.071792
17.898,73.8593,-0.071792
17.929,73.8593,-0.070898
17.961,73.8593,-0.070898
17.991,73.8593,-0.070898
18.021,73.8593,-0.070898
18.052,73.8593,-0.070898
18.085,73.8593,-0.070898
18.115,73.8593,-0.070898
18.146,73.8593,-0.070898
18.177,73.8593,-0.069900
18.207,73.8593,-0.069900
18.239,73.8593,-0.069900
18.271,73.8593,-0.069900
18.300,73.8593,-0.069900
18.330,73.8593,-0.069900
18.361,73.8593,-0.069900
18.392,73.8593,-0.069900
18.423,73.8593,-0.068893
18.453,73.8593,-0.068893
18.484,73.8593,-0.068893
18.515,73.8593,-0.068893
18.546,73.8593,-0.068893
18.578,73.8593,-0.068893
18.609,73.8593,-0.068893
18.640,73.8593,-0.068893
18.670,73.8593,-0.068075
18.701,73.8589,-0.068075
18.732,73.8579,-0.068075
18.763,73.8562,-0.068075
18.793,73.8538,-0.068075
18.825,73.8504,-0.068075
18.856,73.8465,-0.068075
18.886,73.8418,-0.068075
18.917,73.8366,-0.061920
18.948,73.8303,-0.061920
18.979,73.8237,-0.061920
19.011,73.8159,-0.061920
19.041,73.8077,-0.061920
19.075,73.7979,-0.061920
19.103,73.7890,-0.061920
19.134,73.7786,-0.061920
19.165,73.7674,-0.041472
19.196,73.7555,-0.041472
19.227,73.7425,-0.041472
19.258,73.7295,-0.041472
19.289,73.7153,-0.041472
19.319,73.7008,-0.041472
19.350,73.6854,-0.041472
19.381,73.6688,-0.041472
19.412,73.6524,-0.019856
19.444,73.6336,-0.019856
19.474,73.6157,-0.019856
19.505,73.5960,-0.019856
19.536,73.5765,-0.019856
19.569,73.5547,-0.019856
19.598,73.5347,-0.019856
19.630,73.5119,-0.019856
19.660,73.4901,-0.003040
19.691,73.4663,-0.003040
19.721,73.4426,-0.003040
19.753,73.4174,-0.003040
19.784,73.3911,-0.003040
19.816,73.3637,-0.003040
19.847,73.3361,-0.003040
19.877,73.3096,-0.003040
19.908,73.2806,-0.003040
19.939,73.2517,0.015085
19.971,73.2213,0.015085
20.001,73.1902,0.015085
20.032,73.1589,0.015085
20.067,73.1222,0.015085
20.095,73.0927,0.015085
20.127,73.0577,0.015085
20.158,73.0240,0.028476
20.189,72.9879,0.028476
20.220,72.9517,0.028476
20.251,72.9150,0.028476
20.282,72.8775,0.028476
20.313,72.8396,0.028476
20.343,72.8023,0.028476
20.373,72.7639,0.028476
20.404,72.7237,0.036456
20.436,72.6811,0.036456
20.467,72.6407,0.036456
20.498,72.5970,0.036456
20.527,72.5566,0.036456
20.562,72.5077,0.036456
20.590,72.4676,0.036456
20.620,72.4217,0.036456
20.651,72.3773,0.042319
20.681,72.3310,0.042319
20.712,72.2841,0.042319
20.743,72.2368,0.042319
20.774,72.1868,0.042319
20.807,72.1348,0.042319
20.837,72.0852,0.042319
20.868,72.0338,0.042319
20.898,71.9843,0.048012
20.929,71.9315,0.048012
20.960,71.8785,0.048012
20.991,71.8236,0.048012
21.022,71.7698,0.048012
21.052,71.7149,0.048012
21.084,71.6581,0.048012
21.115,71.6007,0.048012
21.145,71.5439,0.053018
21.179,71.4794,0.053018
21.207,71.4255,0.053018
21.238,71.3673,0.053018
21.269,71.3076,0.053018
21.303,71.2407,0.053018
21.330,71.1877,0.053018
21.361,71.1308,0.053018
21.393,71.0723,0.055982
21.423,71.0158,0.055982
21.454,70.9599,0.055982
21.485,70.9030,0.055982
21.516,70.8495,0.055982
21.548,70.7931,0.055982
21.578,70.7419,0.055982
21.609,70.6878,0.055982
21.641,70.6369,0.055982
21.672,70.5842,0.033821
21.703,70.5344,0.033821
21.734,70.4845,0.033821
21.764,70.4379,0.033821
21.795,70.3880,0.033821
21.826,70.3413,0.033821
21.859,70.2913,0.033821
21.889,70.2468,0.009984
21.921,70.2000,0.009984
21.954,70.1525,0.009984
21.981,70.1139,0.009984
22.013,70.0703,0.009984
22.044,70.0270,0.009984
22.078,69.9815,0.009984
22.106,69.9450,0.009984
22.137,69.9049,0.009984
22.167,69.8651,0.008789
22.198,69.8271,0.008789
22.229,69.7882,0.008789
22.260,69.7509,0.008789
22.292,69.7138,0.008789
22.323,69.6781,0.008789
22.354,69.6424,0.008789
22.384,69.6090,0.008789
22.415,69.5758,0.008441
22.445,69.5435,0.008441
22.477,69.5098,0.008441
22.508,69.4788,0.008441
22.538,69.4485,0.008441
22.569,69.4184,0.008441
22.601,69.3888,0.008441
22.630,69.3611,0.008441
22.661,69.3329,0.008441
22.692,69.3062,0.008281
22.724,69.2785,0.008281
22.755,69.2533,0.008281
22.785,69.2285,0.008281
22.816,69.2043,0.008281
22.847,69.1805,0.008281
22.878,69.1578,0.008281
22.909,69.1356,0.008281
22.940,69.1144,0.008159
22.971,69.0936,0.008159
23.001,69.0737,0.008159
23.033,69.0546,0.008159
23.063,69.0368,0.008159
23.094,69.0188,0.008159
23.125,69.0014,0.008159
23.157,68.9843,0.008159
23.188,68.9689,0.008084
23.219,68.9538,0.008084
23.251,68.9399,0.008084
23.282,68.9263,0.008084
23.312,68.9139,0.008084
23.343,68.9016,0.008084
23.374,68.8907,0.008084
23.405,68.8800,0.008084
23.436,68.8705,0.007989
23.468,68.8609,0.007989
23.499,68.8529,0.007989
23.530,68.8450,0.007989
23.561,68.8383,0.007989
23.591,68.8323,0.007989
23.622,68.8269,0.007989
23.654,68.8221,0.007989
23.685,68.8180,0.007867
23.716,68.8149,0.007867
23.747,68.8124,0.007867
23.778,68.8107,0.007867
23.809,68.8096,0.007867
23.840,68.8093,0.007867
23.871,68.8093,0.007867
23.903,68.8093,0.007867
23.934,68.8093,0.007782
23.966,68.8093,0.007782
23.996,68.8093,0.007782
24.028,68.8098,0.007782
24.058,68.8111,0.007782
24.089,68.8130,0.007782
24.120,68.8156,0.007782
24.151,68.8192,0.007782
24.183,68.8233,0.007782
24.215,68.8283,0.007782
24.245,68.8339,0.007782
24.276,68.8403,0.007782
24.307,68.8474,0.007782
24.338,68.8551,0.007782
24.370,68.8636,0.007782
24.400,68.8728,0.007726
24.430,68.8826,0.007726
24.461,68.8932,0.007726
24.493,68.9049,0.007726
24.523,68.9167,0.007726
24.554,68.9295,0.007726
24.585,68.9433,0.007726
24.618,68.9585,0.007726
24.648,68.9733,0.007566
24.680,68.9893,0.007566
24.710,69.0049,0.007566
24.741,69.0226,0.007566
24.773,69.0411,0.007566
24.802,69.0592,0.007566
24.834,69.0786,0.007566
24.865,69.0990,0.007566
24.895,69.1194,0.007566
24.926,69.1411,0.007462
24.957,69.1629,0.007462
24.988,69.1857,0.007462
25.018,69.2090,0.007462
25.049,69.2332,0.007462
25.079,69.2579,0.007462
25.111,69.2851,0.007462
25.142,69.3117,0.007321
25.173,69.3391,0.007321
25.204,69.3667,0.007321
25.234,69.3948,0.007321
25.265,69.4242,0.007321
25.296,69.4550,0.007321
25.327,69.4857,0.007321
25.359,69.5184,0.007321
25.389,69.5499,0.007321
25.420,69.5836,0.007321
25.451,69.6168,0.007161
25.483,69.6535,0.007161
25.512,69.6858,0.007161
25.545,69.7247,0.007161
25.575,69.7595,0.007161
25.605,69.7964,0.007161
25.636,69.8338,0.007161
25.667,69.8738,0.006907
25.698,69.9133,0.006907
25.734,69.9603,0.006907
25.775,70.0166,0.006907
25.806,70.0571,0.006907
25.837,70.1013,0.006907
25.869,70.1452,0.006907
25.902,70.1923,0.006465
25.932,70.2367,0.006465
25.963,70.2833,0.006465
25.994,70.3300,0.006465
26.025,70.3765,0.006465
26.057,70.4257,0.006465
26.089,70.4762,0.006465
26.120,70.5264,0.006465
26.150,70.5744,0.006004
26.181,70.6255,0.006004
26.212,70.6767,0.006004
26.244,70.7313,0.006004
26.274,70.7840,0.006004
26.305,70.8366,0.006004
26.337,70.8925,0.006004
26.367,70.9469,0.006004
26.400,71.0063,0.005411
26.429,71.0602,0.005411
26.462,71.1217,0.005411
26.490,71.1744,0.005411
26.521,71.2342,0.005411
26.552,71.2935,0.005411
26.584,71.3547,0.005411
26.614,71.4123,0.005411
26.649,71.4797,0.005411
26.677,71.5306,0.004404
26.708,71.5886,0.004404
26.738,71.6441,0.004404
26.769,71.6988,0.004404
26.801,71.7561,0.004404
26.838,71.8199,0.004404
26.879,71.8898,0.004404
26.909,71.9420,0.003087
26.940,71.9931,0.003087
26.971,72.0450,0.003087
27.002,72.0945,0.003087
27.033,72.1446,0.003087
27.064,72.1931,0.003087
27.094,72.2401,0.003087
27.125,72.2864,0.003087
27.156,72.3347,0.001157
27.187,72.3801,0.001157
27.218,72.4256,0.001157
27.248,72.4685,0.001157
27.280,72.5137,0.001157
27.310,72.5557,0.001157
27.341,72.5977,0.001157
27.372,72.6397,0.001157
27.403,72.6795,-0.002720
27.435,72.7216,-0.002720
27.465,72.7598,-0.002720
27.497,72.7998,-0.002720
27.527,72.8374,-0.002720
27.559,72.8752,-0.002720
27.590,72.9119,-0.002720
27.622,72.9488,-0.002720
27.652,72.9827,-0.010831
27.684,73.0181,-0.010831
27.716,73.0518,-0.010831
27.747,73.0860,-0.010831
27.778,73.1175,-0.010831
27.810,73.1494,-0.010831
27.841,73.1805,-0.010831
27.872,73.2103,-0.010831
27.903,73.2392,-0.010831
27.933,73.2665,-0.025549
27.964,73.2944,-0.025549
27.995,73.3208,-0.025549
28.026,73.3475,-0.025549
28.057,73.3729,-0.025549
28.088,73.3982,-0.025549
28.120,73.4225,-0.025549
28.151,73.4463,-0.025549
28.182,73.4690,-0.046167
28.213,73.4910,-0.046167
28.243,73.5110,-0.046167
28.274,73.5320,-0.046167
28.305,73.5520,-0.046167
28.336,73.5705,-0.046167
28.367,73.5887,-0.046167
28.397,73.6057,-0.069430
28.427,73.6224,-0.069430
28.459,73.6390,-0.069430
28.490,73.6539,-0.069430
28.521,73.6689,-0.069430
28.551,73.6823,-0.069430
28.583,73.6961,-0.069430
28.614,73.7084,-0.069430
28.646,73.7206,-0.069430
28.672,73.7297,-0.094132
28.709,73.7420,-0.094132
28.739,73.7512,-0.094132
28.770,73.7601,-0.094132
28.801,73.7684,-0.094132
28.832,73.7757,-0.094132
28.863,73.7823,-0.094132
28.894,73.7882,-0.127727
28.928,73.7938,-0.127727
28.956,73.7978,-0.127727
28.986,73.8014,-0.127727
29.017,73.8045,-0.127727
29.049,73.8068,-0.127727
29.079,73.8083,-0.127727
29.111,73.8092,-0.127727
29.142,73.8093,-0.151140
29.173,73.8093,-0.151140
29.204,73.8093,-0.151140
29.236,73.8093,-0.151140
29.268,73.8093,-0.151140
29.299,73.8093,-0.151140
29.330,73.8093,-0.151140
29.361,73.8093,-0.151140
29.394,73.8093,-0.151140
29.424,73.8093,-0.132094
29.455,73.8093,-0.132094
29.486,73.8093,-0.132094
29.516,73.8093,-0.132094
29.547,73.8093,-0.132094
29.578,73.8093,-0.132094
29.609,73.8093,-0.132094
29.640,73.8093,-0.132094
29.671,73.8093,-0.104484
29.702,73.8093,-0.104484
29.733,73.8093,-0.104484
29.765,73.8093,-0.104484
29.795,73.8093,-0.104484
29.826,73.8093,-0.104484
29.857,73.8093,-0.104484
29.889,73.8093,-0.104484
29.920,73.8093,-0.095271
29.951,73.8093,-0.095271
29.982,73.8093,-0.095271
30.013,73.8093,-0.095271
30.043,73.8093,-0.095271
30.074,73.8093,-0.095271
30.104,73.8093,-0.095271
30.135,73.8093,-0.095271
30.166,73.8093,-0.089719
30.197,73.8093,-0.089719
30.228,73.8093,-0.089719
30.260,73.8093,-0.089719
30.290,73.8093,-0.089719
30.321,73.8093,-0.089719
30.351,73.8093,-0.089719
30.382,73.8093,-0.089719
30.414,73.8093,-0.085832
30.447,73.8093,-0.085832
30.475,73.8093,-0.085832
30.506,73.8093,-0.085832
30.537,73.8093,-0.085832
30.568,73.8093,-0.085832
30.600,73.8093,-0.085832
30.632,73.8093,-0.085832
30.664,73.8093,-0.082821
30.697,73.8093,-0.082821
30.727,73.8093,-0.082821
30.758,73.8093,-0.082821
30.789,73.8093,-0.082821
30.821,73.8093,-0.082821
30.852,73.8093,-0.082821
30.882,73.8093,-0.082821
30.913,73.8093,-0.080346
30.945,73.8093,-0.080346
30.974,73.8093,-0.080346
31.005,73.8093,-0.080346
31.037,73.8093,-0.080346
31.066,73.8093,-0.080346
31.098,73.8093,-0.080346
31.128,73.8093,-0.080346
31.160,73.8093,-0.078351
31.191,73.8093,-0.078351
31.222,73.8093,-0.078351
31.254,73.8093,-0.078351
31.284,73.8093,-0.078351
31.315,73.8093,-0.078351
31.345,73.8093,-0.078351
31.376,73.8093,-0.078351
31.407,73.8093,-0.078351
31.440,73.8093,-0.076648
31.470,73.8093,-0.076648
31.500,73.8093,-0.076648
31.531,73.8093,-0.076648
31.562,73.8093,-0.076648
31.592,73.8093,-0.076648
31.623,73.8093,-0.076648
31.654,73.8093,-0.075170
31.685,73.8093,-0.075170
31.717,73.8093,-0.075170
31.749,73.8093,-0.075170
31.779,73.8093,-0.075170
31.816,73.8093,-0.075170
31.842,73.8093,-0.075170
31.873,73.8093,-0.075170
31.904,73.8093,-0.073862
31.939,73.8093,-0.073862
31.980,73.8093,-0.073862
32.012,73.8093,-0.073862
32.042,73.8093,-0.073862
32.078,73.8093,-0.073862
32.104,73.8093,-0.073862
32.136,73.8093,-0.073862
32.167,73.8093,-0.072658
32.197,73.8093,-0.072658
32.228,73.8093,-0.072658
32.260,73.8093,-0.072658
32.292,73.8093,-0.072658
32.324,73.8093,-0.072658
32.353,73.8093,-0.072658
32.385,73.8093,-0.072658
32.416,73.8093,-0.071575
32.447,73.8093,-0.071575
32.482,73.8093,-0.071575
32.510,73.8093,-0.071575
32.540,73.8093,-0.071575
32.571,73.8093,-0.071575
32.602,73.8093,-0.071575
32.634,73.8093,-0.071575
32.665,73.8093,-0.070634
32.696,73.8093,-0.070634
32.728,73.8093,-0.070634
32.758,73.8093,-0.070634
32.789,73.8093,-0.070634
32.821,73.8093,-0.070634
32.852,73.8093,-0.070634
32.883,73.8093,-0.070634
32.916,73.8093,-0.069693
32.946,73.8093,-0.069693
32.978,73.8093,-0.069693
33.009,73.8093,-0.069693
33.040,73.8093,-0.069693
33.071,73.8093,-0.069693
33.101,73.8093,-0.069693
33.133,73.8093,-0.069693
33.166,73.8093,-0.068781
33.195,73.8093,-0.068781
33.225,73.8093,-0.068781
33.256,73.8093,-0.068781
33.287,73.8093,-0.068781
33.318,73.8093,-0.068781
33.348,73.8093,-0.068781
33.379,73.8093,-0.067981
33.410,73.8092,-0.067981
33.441,73.8085,-0.067981
33.473,73.8070,-0.067981
33.503,73.8047,-0.067981
33.534,73.8018,-0.067981
33.565,73.7982,-0.067981
33.597,73.7937,-0.067981
33.629,73.7885,-0.067981
33.660,73.7825,-0.067981
33.690,73.7761,-0.055709
33.721,73.7686,-0.055709
33.752,73.7607,-0.055709
33.783,73.7518,-0.055709
33.814,73.7426,-0.055709
33.846,73.7319,-0.055709
33.875,73.7214,-0.055709
33.906,73.7099,-0.055709
33.937,73.6976,-0.034884
33.969,73.6841,-0.034884
33.999,73.6707,-0.034884
34.030,73.6557,-0.034884
34.061,73.6408,-0.034884
34.092,73.6249,-0.034884
34.123,73.6084,-0.034884
34.154,73.5908,-0.018162
34.184,73.5728,-0.018162
34.216,73.5535,-0.018162
34.246,73.5346,-0.018162
34.276,73.5144,-0.018162
34.308,73.4936,-0.018162
34.339,73.4712,-0.018162
34.371,73.4475,-0.018162
34.403,73.4242,-0.000696
34.435,73.3989,-0.000696
34.466,73.3744,-0.000696
34.497,73.3491,-0.000696
34.528,73.3222,-0.000696
34.559,73.2956,-0.000696
34.590,73.2680,-0.000696
34.621,73.2397,-0.000696
34.651,73.2112,-0.000696
34.682,73.1819,-0.000696
34.713,73.1511,0.016986
34.744,73.1194,0.016986
34.775,73.0871,0.016986
34.806,73.0545,0.016986
34.838,73.0200,0.016986
34.868,72.9870,0.016986
34.899,72.9513,0.016986
34.930,72.9164,0.029680
34.961,72.8795,0.029680
34.993,72.8419,0.029680
35.024,72.8040,0.029680
35.054,72.7663,0.029680
35.086,72.7251,0.029680
35.117,72.6860,0.029680
35.147,72.6454,0.029680
35.178,72.6053,0.037237
35.208,72.5639,0.037237
35.240,72.5195,0.037237
35.271,72.4753,0.037237
35.303,72.4291,0.037237
35.334,72.3850,0.037237
35.365,72.3377,0.037237
35.396,72.2915,0.037237
35.427,72.2440,0.043156
35.458,72.1969,0.043156
35.490,72.1458,0.043156
35.520,72.0987,0.043156
35.552,72.0458,0.043156
35.583,71.9952,0.043156
35.615,71.9405,0.043156
35.647,71.8883,0.048868
35.678,71.8345,0.048868
35.709,71.7804,0.048868
35.740,71.7261,0.048868
35.771,71.6705,0.048868
35.800,71.6173,0.048868
35.832,71.5587,0.048868
35.863,71.5024,0.048868
35.894,71.4435,0.053771
35.925,71.3840,0.053771
35.957,71.3238,0.053771
35.988,71.2621,0.053771
36.018,71.2043,0.053771
36.048,71.1454,0.053771
36.080,71.0868,0.053771
36.112,71.0267,0.053771
36.141,70.9724,0.054637
36.174,70.9139,0.054637
36.204,70.8603,0.054637
36.234,70.8051,0.054637
36.265,70.7513,0.054637
36.296,70.6983,0.054637
36.328,70.6449,0.054637
36.356,70.5972,0.054637
36.389,70.5419,0.031798
36.420,70.4931,0.031798
36.451,70.4422,0.031798
36.482,70.3927,0.031798
36.513,70.3437,0.031798
36.544,70.2960,0.031798
36.575,70.2495,0.031798
36.606,70.2036,0.031798
36.638,70.1576,0.031798
36.668,70.1126,0.009580
36.699,70.0685,0.009580
36.730,70.0267,0.009580
36.761,69.9838,0.009580
36.792,69.9419,0.009580
36.823,69.9002,0.009580
36.854,69.8603,0.009580
36.886,69.8196,0.009580
36.915,69.7829,0.008658
36.948,69.7426,0.008658
36.979,69.7051,0.008658
37.010,69.6687,0.008658
37.042,69.6306,0.008658
37.071,69.5981,0.008658
37.102,69.5626,0.008658
37.133,69.5296,0.008535
37.164,69.4964,0.008535
37.195,69.4640,0.008535
37.227,69.4310,0.008535
37.257,69.4007,0.008535
37.289,69.3703,0.008535
37.323,69.3382,0.008535
37.350,69.3137,0.008535
37.380,69.2862,0.008535
37.412,69.2584,0.008422
37.443,69.2310,0.008422
37.470,69.2089,0.008422
37.505,69.1801,0.008422
37.535,69.1567,0.008422
37.566,69.1330,0.008422
37.597,69.1097,0.008422
37.629,69.0871,0.008422
37.661,69.0651,0.008291
37.693,69.0440,0.008291
37.724,69.0238,0.008291
37.755,69.0039,0.008291
37.786,68.9854,0.008291
37.817,68.9683,0.008291
37.848,68.9507,0.008291
37.879,68.9347,0.008291
37.910,68.9192,0.008291
37.941,68.9042,0.008121
37.972,68.8898,0.008121
38.004,68.8762,0.008121
38.035,68.8634,0.008121
38.067,68.8514,0.008121
38.098,68.8400,0.008121
38.128,68.8298,0.008121
38.161,68.8195,0.008121
38.191,68.8109,0.008018
38.222,68.8026,0.008018
38.252,68.7952,0.008018
38.284,68.7881,0.008018
38.315,68.7822,0.008018
38.346,68.7766,0.008018
38.377,68.7720,0.008018
38.408,68.7680,0.008018
38.439,68.7648,0.007924
38.470,68.7623,0.007924
38.501,68.7606,0.007924
38.533,68.7596,0.007924
38.564,68.7593,0.007924
38.595,68.7593,0.007924
38.626,68.7593,0.007924
38.657,68.7593,0.007924
38.688,68.7593,0.007801
38.719,68.7600,0.007801
38.750,68.7612,0.007801
38.781,68.7633,0.007801
38.812,68.7660,0.007801
38.843,68.7695,0.007801
38.874,68.7737,0.007801
38.906,68.7789,0.007792
38.938,68.7846,0.007792
38.970,68.7913,0.007792
39.000,68.7983,0.007792
39.032,68.8063,0.007792
39.062,68.8150,0.007792
39.093,68.8242,0.007792
39.125,68.8344,0.007792
39.155,68.8450,0.007660
39.186,68.8563,0.007660
39.217,68.8687,0.007660
39.248,68.8821,0.007660
39.279,68.8954,0.007660
39.310,68.9100,0.007660
39.341,68.9249,0.007660
39.376,68.9434,0.007660
39.402,68.9573,0.007575
39.435,68.9754,0.007575
39.465,68.9935,0.007575
39.496,69.0118,0.007575
39.527,69.0314,0.007575
39.558,69.0515,0.007575
39.588,69.0719,0.007575
39.619,69.0941,0.007575
39.650,69.1159,0.007575
39.681,69.1398,0.007538
39.713,69.1635,0.007538
39.744,69.1890,0.007538
39.774,69.2129,0.007538
39.806,69.2402,0.007538
39.837,69.2661,0.007538
39.869,69.2949,0.007538
39.899,69.3218,0.007378
39.929,69.3513,0.007378
39.959,69.3795,0.007378
39.990,69.4095,0.007378
40.021,69.4411,0.007378
40.053,69.4736,0.007378
40.084,69.5067,0.007378
40.115,69.5396,0.007378
40.146,69.5734,0.007114
40.176,69.6075,0.007114
40.207,69.6430,0.007114
40.238,69.6787,0.007114
40.269,69.7157,0.007114
40.300,69.7539,0.007114
40.331,69.7921,0.007114
40.362,69.8314,0.007114
40.394,69.8721,0.006785
40.425,69.9124,0.006785
40.456,69.9544,0.006785
40.487,69.9970,0.006785
40.519,70.0410,0.006785
40.549,70.0830,0.006785
40.580,70.1262,0.006785
40.610,70.1706,0.006785
40.642,70.2169,0.006785
40.673,70.2647,0.006427
40.704,70.3127,0.006427
40.736,70.3605,0.006427
40.767,70.4093,0.006427
40.798,70.4573,0.006427
40.830,70.5094,0.006427
40.860,70.5587,0.006427
40.891,70.6109,0.006427
40.922,70.6632,0.005900
40.954,70.7167,0.005900
40.984,70.7699,0.005900
41.016,70.8264,0.005900
41.048,70.8824,0.005900
41.079,70.9387,0.005900
41.110,70.9956,0.005900
41.141,71.0527,0.005900
41.171,71.1097,0.005166
41.201,71.1680,0.005166
41.232,71.2258,0.005166
41.264,71.2878,0.005166
41.294,71.3451,0.005166
41.326,71.4061,0.005166
41.356,71.4628,0.005166
41.390,71.5267,0.005166
41.418,71.5768,0.005166
41.449,71.6326,0.004216
41.480,71.6884,0.004216
41.511,71.7411,0.004216
41.542,71.7963,0.004216
41.573,71.8498,0.004216
41.604,71.9011,0.004216
41.634,71.9531,0.004216
41.665,72.0022,0.002767
41.696,72.0527,0.002767
41.727,72.1025,0.002767
41.758,72.1519,0.002767
41.790,72.2007,0.002767
41.822,72.2489,0.002767
41.851,72.2935,0.002767
41.882,72.3385,0.002767
41.913,72.3847,0.000414
41.945,72.4301,0.000414
41.976,72.4741,0.000414
42.007,72.5158,0.000414
42.037,72.5582,0.000414
42.068,72.5977,0.000414
42.099,72.6385,0.000414
42.129,72.6782,0.000414
42.160,72.7166,-0.004244
42.191,72.7562,-0.004244
42.221,72.7922,-0.004244
42.252,72.8299,-0.004244
42.283,72.8655,-0.004244
42.313,72.9002,-0.004244
42.344,72.9356,-0.004244
42.375,72.9704,-0.004244
42.406,73.0029,-0.004244
42.437,73.0360,-0.013786
42.468,73.0683,-0.013786
42.500,73.0999,-0.013786
42.530,73.1303,-0.013786
42.561,73.1597,-0.013786
42.593,73.1896,-0.013786
42.624,73.2186,-0.013786
42.655,73.2464,-0.030057
42.687,73.2740,-0.030057
42.717,73.2996,-0.030057
42.749,73.3260,-0.030057
42.780,73.3501,-0.030057
42.811,73.3749,-0.030057
42.841,73.3973,-0.030057
42.873,73.4200,-0.030057
42.903,73.4415,-0.051701
42.935,73.4632,-0.051701
42.966,73.4838,-0.051701
42.998,73.5042,-0.051701
43.029,73.5227,-0.051701
43.060,73.5414,-0.051701
43.091,73.5588,-0.051701
43.122,73.5750,-0.051701
43.152,73.5905,-0.075142
43.184,73.6062,-0.075142
43.214,73.6203,-0.075142
43.245,73.6346,-0.075142
43.276,73.6473,-0.075142
43.306,73.6598,-0.075142
43.337,73.6712,-0.075142
43.369,73.6826,-0.075142
43.399,73.6925,-0.101463
43.430,73.7022,-0.101463
43.461,73.7107,-0.101463
43.493,73.7190,-0.101463
43.524,73.7264,-0.101463
43.558,73.7335,-0.101463
43.587,73.7389,-0.101463
43.618,73.7440,-0.101463
43.648,73.7482,-0.136328
43.679,73.7519,-0.136328
43.709,73.7549,-0.136328
43.740,73.7570,-0.136328
43.771,73.7585,-0.136328
43.803,73.7592,-0.136328
43.834,73.7593,-0.136328
43.865,73.7593,-0.136328
43.896,73.7593,-0.148345
43.927,73.7593,-0.148345
43.958,73.7593,-0.148345
43.989,73.7593,-0.148345
44.021,73.7593,-0.148345
44.051,73.7593,-0.148345
44.082,73.7593,-0.148345
44.114,73.7593,-0.148345
44.144,73.7593,-0.123182
44.176,73.7593,-0.123182
44.207,73.7593,-0.123182
44.243,73.7593,-0.123182
44.270,73.7593,-0.123182
44.301,73.7593,-0.123182
44.331,73.7593,-0.123182
44.363,73.7593,-0.123182
44.394,73.7593,-0.101416
44.424,73.7593,-0.101416
44.456,73.7593,-0.101416
44.488,73.7593,-0.101416
44.518,73.7593,-0.101416
44.551,73.7593,-0.101416
44.582,73.7593,-0.101416
44.611,73.7593,-0.101416
44.643,73.7593,-0.101416
44.672,73.7593,-0.093586
44.704,73.7593,-0.093586
44.734,73.7593,-0.093586
44.765,73.7593,-0.093586
44.796,73.7593,-0.093586
44.828,73.7593,-0.093586
44.858,73.7593,-0.093586
44.889,73.7593,-0.093586
44.920,73.7593,-0.088561
44.952,73.7593,-0.088561
44.983,73.7593,-0.088561
45.018,73.7593,-0.088561
45.045,73.7593,-0.088561
45.076,73.7593,-0.088561
45.107,73.7593,-0.088561
45.138,73.7593,-0.088561
45.170,73.7593,-0.084891
45.201,73.7593,-0.084891
45.232,73.7593,-0.084891
45.263,73.7593,-0.084891
45.294,73.7593,-0.084891
45.324,73.7593,-0.084891
45.356,73.7593,-0.084891
45.387,73.7593,-0.084891
45.418,73.7593,-0.084891
45.450,73.7593,-0.082049
45.481,73.7593,-0.082049
45.512,73.7593,-0.082049
45.543,73.7593,-0.082049
45.574,73.7593,-0.082049
45.605,73.7593,-0.082049
45.637,73.7593,-0.082049
45.668,73.7593,-0.079734
45.699,73.7593,-0.079734
45.729,73.7593,-0.079734
45.760,73.7593,-0.079734
45.791,73.7593,-0.079734
45.822,73.7593,-0.079734
45.852,73.7593,-0.079734
45.884,73.7593,-0.079734
45.916,73.7593,-0.077805
45.947,73.7593,-0.077805
45.978,73.7593,-0.077805
46.008,73.7593,-0.077805
46.039,73.7593,-0.077805
46.070,73.7593,-0.077805
46.101,73.7593,-0.077805
46.132,73.7593,-0.077805
46.163,73.7593,-0.076234
46.194,73.7593,-0.076234
46.225,73.7593,-0.076234
46.260,73.7593,-0.076234
46.287,73.7593,-0.076234
46.319,73.7593,-0.076234
46.349,73.7593,-0.076234
46.382,73.7593,-0.076234
46.410,73.7593,-0.074766
46.446,73.7593,-0.074766
46.472,73.7593,-0.074766
46.503,73.7593,-0.074766
46.534,73.7593,-0.074766
46.565,73.7593,-0.074766
46.596,73.7593,-0.074766
46.627,73.7593,-0.074766
46.658,73.7593,-0.074766
46.689,73.7593,-0.073505
46.721,73.7593,-0.073505
46.752,73.7593,-0.073505
46.782,73.7593,-0.073505
46.812,73.7593,-0.073505
46.844,73.7593,-0.073505
46.875,73.7593,-0.073505
46.907,73.7593,-0.072356
46.938,73.7593,-0.072356
46.969,73.7593,-0.072356
47.000,73.7593,-0.072356
47.031,73.7593,-0.072356
47.062,73.7593,-0.072356
47.092,73.7593,-0.072356
47.123,73.7593,-0.072356
47.154,73.7593,-0.072356
47.185,73.7593,-0.072356
47.212,73.7593,-0.071227
47.247,73.7593,-0.071227
47.278,73.7593,-0.071227
47.309,73.7593,-0.071227
47.341,73.7593,-0.071227
47.373,73.7593,-0.071227
47.403,73.7593,-0.070267
47.434,73.7593,-0.070267
47.465,73.7593,-0.070267
47.497,73.7593,-0.070267
47.528,73.7593,-0.070267
47.559,73.7593,-0.070267
47.590,73.7593,-0.070267
47.620,73.7593,-0.070267
47.651,73.7593,-0.070267
47.683,73.7593,-0.069317
47.715,73.7593,-0.069317
47.745,73.7593,-0.069317
47.776,73.7593,-0.069317
47.807,73.7593,-0.069317
47.838,73.7593,-0.069317
47.873,73.7593,-0.069317
47.900,73.7593,-0.068451
47.937,73.7593,-0.068451
47.977,73.7593,-0.068451
48.008,73.7593,-0.068451
48.039,73.7593,-0.068451
48.071,73.7588,-0.068451
48.100,73.7577,-0.068451
48.131,73.7559,-0.068451
48.163,73.7531,-0.067868
48.194,73.7498,-0.067868
48.224,73.7459,-0.067868
48.259,73.7404,-0.067868
48.287,73.7355,-0.067868
48.314,73.7297,-0.067868
48.347,73.7225,-0.067868
48.378,73.7149,-0.067868
48.409,73.7065,-0.041509
48.441,73.6970,-0.041509
48.470,73.6875,-0.041509
48.501,73.6771,-0.041509
48.532,73.6656,-0.041509
48.563,73.6540,-0.041509
48.597,73.6397,-0.041509
48.626,73.6274,-0.041509
48.657,73.6127,-0.041509
48.689,73.5975,-0.017870
48.719,73.5820,-0.017870
48.750,73.5657,-0.017870
48.782,73.5478,-0.017870
48.813,73.5304,-0.017870
48.843,73.5120,-0.017870
48.874,73.4929,-0.017870
48.906,73.4726,-0.017870
48.937,73.4515,-0.011151
48.969,73.4292,-0.011151
49.000,73.4069,-0.011151
49.031,73.3839,-0.011151
49.061,73.3605,-0.011151
49.092,73.3364,-0.011151
49.123,73.3114,-0.011151
49.154,73.2848,0.007415
49.186,73.2583,0.007415
49.217,73.2303,0.007415
49.249,73.2020,0.007415
49.279,73.1736,0.007415
49.311,73.1427,0.007415
49.341,73.1138,0.007415
49.373,73.0821,0.007415
49.403,73.0514,0.023422
49.435,73.0174,0.023422
49.465,72.9853,0.023422
49.499,72.9472,0.023422
49.528,72.9162,0.023422
49.559,72.8804,0.023422
49.590,72.8444,0.023422
49.621,72.8073,0.023422
49.652,72.7703,0.033689
49.682,72.7316,0.033689
49.714,72.6926,0.033689
49.746,72.6504,0.033689
49.776,72.6121,0.033689
49.807,72.5718,0.033689
49.838,72.5280,0.033689
49.869,72.4861,0.033689
49.900,72.4437,0.033689
49.931,72.3982,0.040079
49.963,72.3537,0.040079
49.994,72.3079,0.040079
50.024,72.2625,0.040079
50.057,72.2117,0.040079
50.086,72.1674,0.040079
50.117,72.1188,0.040079
50.148,72.0701,0.045904
50.179,72.0197,0.045904
50.210,71.9686,0.045904
50.242,71.9165,0.045904
50.272,71.8654,0.045904
50.303,71.8129,0.045904
50.334,71.7591,0.045904
50.365,71.7048,0.045904
50.395,71.6500,0.051127
50.426,71.5960,0.051127
50.457,71.5386,0.051127
50.489,71.4807,0.051127
50.520,71.4234,0.051127
50.551,71.3633,0.051127
50.582,71.3053,0.051127
50.613,71.2441,0.051127
50.644,71.1834,0.055747
50.675,71.1243,0.055747
50.705,71.0657,0.055747
50.736,71.0091,0.055747
50.767,70.9510,0.055747
50.799,70.8929,0.055747
50.831,70.8360,0.055747
50.861,70.7809,0.055747
50.892,70.7262,0.055747
50.924,70.6709,0.038855
50.954,70.6193,0.038855
50.986,70.5664,0.038855
51.014,70.5187,0.038855
51.049,70.4630,0.038855
51.080,70.4108,0.038855
51.112,70.3609,0.038855
51.143,70.3111,0.038855
51.174,70.2637,0.014577
51.206,70.2162,0.014577
51.237,70.1687,0.014577
51.268,70.1231,0.014577
51.299,70.0777,0.014577
51.331,70.0323,0.014577
51.360,69.9914,0.014577
51.392,69.9488,0.014577
51.422,69.9069,0.014577
51.453,69.8661,0.009147
51.485,69.8240,0.009147
51.515,69.7849,0.009147
51.547,69.7453,0.009147
51.578,69.7066,0.009147
51.609,69.6692,0.009147
51.640,69.6318,0.009147
51.672,69.5945,0.008526
51.703,69.5585,0.008526
51.734,69.5238,0.008526
51.765,69.4898,0.008526
51.799,69.4537,0.008526
51.826,69.4246,0.008526
51.858,69.3925,0.008526
51.888,69.3618,0.008526
51.920,69.3308,0.008328
51.950,69.3009,0.008328
51.982,69.2719,0.008328
52.012,69.2445,0.008328
52.044,69.2159,0.008328
52.074,69.1891,0.008328
52.105,69.1634,0.008328
52.139,69.1361,0.008328
52.166,69.1139,0.008328
52.201,69.0875,0.008178
52.229,69.0667,0.008178
52.259,69.0447,0.008178
52.290,69.0231,0.008178
52.321,69.0022,0.008178
52.352,68.9821,0.008178
52.383,68.9621,0.008178
52.415,68.9431,0.008055
52.445,68.9254,0.008055
52.476,68.9083,0.008055
52.507,68.8914,0.008055
52.538,68.8758,0.008055
52.569,68.8607,0.008055
52.600,68.8460,0.008055
52.631,68.8325,0.008055
52.663,68.8191,0.008018
52.693,68.8071,0.008018
52.724,68.7952,0.008018
52.755,68.7846,0.008018
52.786,68.7743,0.008018
52.819,68.7644,0.008018
52.847,68.7567,0.008018
52.881,68.7481,0.008018
52.909,68.7416,0.008018
52.940,68.7350,0.008027
52.972,68.7291,0.008027
53.003,68.7242,0.008027
53.034,68.7199,0.008027
53.065,68.7163,0.008027
53.096,68.7134,0.008027
53.127,68.7115,0.008027
53.158,68.7101,0.007867
53.189,68.7094,0.007867
53.220,68.7094,0.007867
53.251,68.7094,0.007867
53.282,68.7094,0.007867
53.312,68.7094,0.007867
53.343,68.7094,0.007867
53.375,68.7097,0.007867
53.406,68.7110,0.007829
53.436,68.7128,0.007829
53.467,68.7153,0.007829
53.499,68.7188,0.007829
53.530,68.7228,0.007829
53.562,68.7276,0.007829
53.591,68.7328,0.007829
53.622,68.7391,0.007829
53.652,68.7458,0.007829
53.684,68.7538,0.007717
53.715,68.7619,0.007717
53.746,68.7712,0.007717
53.777,68.7810,0.007717
53.808,68.7917,0.007717
53.839,68.8029,0.007717
53.870,68.8149,0.007717
53.901,68.8277,0.007575
53.936,68.8429,0.007575
53.963,68.8552,0.007575
53.993,68.8697,0.007575
54.024,68.8858,0.007575
54.055,68.9018,0.007575
54.087,68.9195,0.007575
54.118,68.9373,0.007575
54.150,68.9564,0.007519
54.181,68.9761,0.007519
54.211,68.9950,0.007519
54.242,69.0162,0.007519
54.273,69.0374,0.007519
54.305,69.0610,0.007519
54.336,69.0833,0.007519
54.368,69.1081,0.007519
54.399,69.1322,0.007406
54.430,69.1578,0.007406
54.461,69.1831,0.007406
54.494,69.2119,0.007406
54.523,69.2371,0.007406
54.554,69.2656,0.007406
54.586,69.2945,0.007406
54.616,69.3238,0.007406
54.646,69.3530,0.007237
54.678,69.3850,0.007237
54.709,69.4174,0.007237
54.741,69.4505,0.007237
54.772,69.4829,0.007237
54.802,69.5171,0.007237
54.836,69.5549,0.007237
54.865,69.5869,0.007237
54.896,69.6232,0.007237
54.926,69.6596,0.006954
54.958,69.6979,0.006954
54.989,69.7363,0.006954
55.020,69.7753,0.006954
55.051,69.8147,0.006954
55.081,69.8545,0.006954
55.111,69.8945,0.006954
55.142,69.9352,0.006954
55.172,69.9776,0.006700
55.204,70.0219,0.006700
55.234,70.0653,0.006700
55.266,70.1108,0.006700
55.296,70.1539,0.006700
55.327,70.2016,0.006700
55.357,70.2461,0.006700
55.388,70.2952,0.006700
55.419,70.3422,0.006136
55.451,70.3921,0.006136
55.481,70.4407,0.006136
55.513,70.4958,0.006136
55.542,70.5408,0.006136
55.573,70.5928,0.006136
55.603,70.6449,0.006136
55.634,70.6992,0.006136
55.667,70.7552,0.005430
55.696,70.8077,0.005430
55.728,70.8649,0.005430
55.759,70.9202,0.005430
55.790,70.9784,0.005430
55.820,71.0338,0.005430
55.851,71.0935,0.005430
55.883,71.1536,0.005430
55.914,71.2138,0.004743
55.945,71.2725,0.004743
55.975,71.3300,0.004743
56.006,71.3881,0.004743
56.037,71.4454,0.004743
56.068,71.5021,0.004743
56.099,71.5598,0.004743
56.129,71.6142,0.004743
56.161,71.6698,0.003821
56.191,71.7240,0.003821
56.222,71.7758,0.003821
56.255,71.8313,0.003821
56.285,71.8820,0.003821
56.316,71.9328,0.003821
56.347,71.9852,0.003821
56.378,72.0337,0.003821
56.409,72.0819,0.003821
56.440,72.1318,0.002268
56.471,72.1785,0.002268
56.502,72.2254,0.002268
56.533,72.2711,0.002268
56.565,72.3188,0.002268
56.594,72.3604,0.002268
56.625,72.4039,0.002268
56.657,72.4479,-0.000847
56.688,72.4919,-0.000847
56.720,72.5336,-0.000847
56.751,72.5750,-0.000847
56.781,72.6144,-0.000847
56.812,72.6544,-0.000847
56.843,72.6919,-0.000847
56.873,72.7292,-0.000847
56.904,72.7669,-0.007058
56.935,72.8035,-0.007058
56.967,72.8397,-0.007058
56.998,72.8757,-0.007058
57.028,72.9085,-0.007058
57.059,72.9430,-0.007058
57.089,72.9749,-0.007058
57.121,73.0080,-0.007058
57.151,73.0390,-0.018811
57.182,73.0694,-0.018811
57.212,73.0999,-0.018811
57.243,73.1287,-0.018811
57.274,73.1571,-0.018811
57.305,73.1854,-0.018811
57.336,73.2119,-0.018811
57.366,73.2387,-0.018811
57.397,73.2639,-0.037275
57.429,73.2897,-0.037275
57.459,73.3132,-0.037275
57.491,73.3379,-0.037275
57.522,73.3605,-0.037275
57.554,73.3833,-0.037275
57.585,73.4043,-0.037275
57.615,73.4255,-0.037275
57.646,73.4448,-0.059850
57.677,73.4644,-0.059850
57.709,73.4829,-0.059850
57.740,73.5008,-0.059850
57.770,73.5176,-0.059850
57.802,73.5347,-0.059850
57.832,73.5495,-0.059850
57.865,73.5659,-0.059850
57.894,73.5785,-0.083367
57.926,73.5920,-0.083367
57.957,73.6047,-0.083367
57.988,73.6168,-0.083367
58.019,73.6282,-0.083367
58.050,73.6387,-0.083367
58.081,73.6482,-0.083367
58.111,73.6573,-0.083367
58.142,73.6655,-0.113367
58.173,73.6730,-0.113367
58.204,73.6800,-0.113367
58.235,73.6863,-0.113367
58.266,73.6916,-0.113367
58.298,73.6965,-0.113367
58.329,73.7004,-0.113367
58.359,73.7037,-0.113367
58.390,73.7061,-0.146604
58.421,73.7080,-0.146604
58.453,73.7090,-0.146604
58.483,73.7094,-0.146604
58.514,73.7094,-0.146604
58.544,73.7094,-0.146604
58.575,73.7094,-0.146604
58.607,73.7094,-0.146604
58.640,73.7094,-0.146604
58.669,73.7094,-0.140930
58.700,73.7094,-0.140930
58.731,73.7094,-0.140930
58.762,73.7094,-0.140930
58.793,73.7094,-0.140930
58.824,73.7094,-0.140930
58.854,73.7094,-0.140930
58.886,73.7094,-0.140930
58.917,73.7094,-0.111118
58.947,73.7094,-0.111118
58.979,73.7094,-0.111118
59.009,73.7094,-0.111118
59.040,73.7094,-0.111118
59.071,73.7094,-0.111118
59.101,73.7094,-0.111118
59.132,73.7094,-0.111118
59.163,73.7094,-0.111118
59.195,73.7094,-0.097962
59.225,73.7094,-0.097962
59.257,73.7094,-0.097962
59.288,73.7094,-0.097962
59.320,73.7094,-0.097962
59.351,73.7094,-0.097962
59.383,73.7094,-0.097962
59.413,73.7094,-0.091394
59.444,73.7094,-0.091394
59.475,73.7094,-0.091394
59.508,73.7094,-0.091394
59.539,73.7094,-0.091394
59.568,73.7094,-0.091394
59.600,73.7094,-0.091394
59.631,73.7094,-0.091394
59.669,73.7094,-0.091394
59.710,73.7094,-0.086971
59.741,73.7094,-0.086971
59.772,73.7094,-0.086971
59.803,73.7094,-0.086971
59.834,73.7094,-0.086971
59.865,73.7094,-0.086971
59.896,73.7094,-0.086971
59.930,73.7094,-0.086971
59.958,73.7094,-0.083687
59.990,73.7094,-0.083687
60.021,73.7094,-0.083687
60.054,73.7094,-0.083687
60.083,73.7094,-0.083687
60.113,73.7094,-0.083687
60.143,73.7094,-0.083687
60.175,73.7094,-0.081061
60.206,73.7094,-0.081061
60.238,73.7094,-0.081061
60.265,73.7094,-0.081061
60.300,73.7094,-0.081061
60.330,73.7094,-0.081061
60.361,73.7094,-0.081061
60.392,73.7094,-0.081061
60.424,73.7094,-0.078850
60.454,73.7094,-0.078850
60.485,73.7094,-0.078850
60.517,73.7094,-0.078850
60.549,73.7094,-0.078850
60.579,73.7094,-0.078850
60.611,73.7094,-0.078850
60.642,73.7094,-0.078850
60.674,73.7094,-0.078850
60.704,73.7094,-0.077005
60.736,73.7094,-0.077005
60.766,73.7094,-0.077005
60.796,73.7094,-0.077005
60.827,73.7094,-0.077005
60.857,73.7094,-0.077005
60.888,73.7094,-0.077005
60.918,73.7094,-0.075509
60.950,73.7094,-0.075509
60.982,73.7094,-0.075509
61.014,73.7094,-0.075509
61.045,73.7094,-0.075509
61.076,73.7094,-0.075509
61.107,73.7094,-0.075509
61.137,73.7094,-0.075509
61.168,73.7094,-0.075509
61.199,73.7094,-0.074182
61.229,73.7094,-0.074182
61.259,73.7094,-0.074182
61.291,73.7094,-0.074182
61.319,73.7094,-0.074182
61.354,73.7094,-0.074182
61.384,73.7094,-0.074182
61.416,73.7094,-0.072968
61.447,73.7094,-0.072968
61.479,73.7094,-0.072968
61.510,73.7094,-0.072968
61.542,73.7094,-0.072968
61.573,73.7094,-0.072968
61.605,73.7094,-0.072968
61.636,73.7094,-0.072968
61.667,73.7094,-0.072968
61.698,73.7094,-0.071848
61.729,73.7094,-0.071848
61.761,73.7094,-0.071848
61.791,73.7094,-0.071848
61.823,73.7094,-0.071848
61.853,73.7094,-0.071848
61.885,73.7094,-0.071848
61.915,73.7094,-0.070785
61.946,73.7094,-0.070785
61.977,73.7094,-0.070785
62.011,73.7094,-0.070785
62.039,73.7094,-0.070785
62.070,73.7094,-0.070785
62.101,73.7094,-0.070785
62.133,73.7094,-0.070785
62.164,73.7094,-0.069882
62.195,73.7094,-0.069882
62.226,73.7094,-0.069882
62.257,73.7094,-0.069882
62.288,73.7094,-0.069882
62.320,73.7094,-0.069882
62.351,73.7094,-0.069882
62.382,73.7094,-0.069882
62.413,73.7094,-0.068959
62.444,73.7094,-0.068959
62.475,73.7094,-0.068959
62.506,73.7094,-0.068959
62.537,73.7094,-0.068959
62.569,73.7094,-0.068959
62.599,73.7094,-0.068959
62.629,73.7094,-0.068959
62.660,73.7094,-0.068018
62.693,73.7094,-0.068018
62.723,73.7094,-0.068018
62.754,73.7094,-0.068018
62.785,73.7094,-0.068018
62.816,73.7089,-0.068018
62.847,73.7075,-0.068018
62.878,73.7055,-0.068018
62.910,73.7027,-0.067585
62.941,73.6993,-0.067585
62.972,73.6951,-0.067585
63.003,73.6903,-0.067585
63.034,73.6847,-0.067585
63.065,73.6781,-0.067585
63.095,73.6713,-0.067585
63.126,73.6635,-0.067585
63.157,73.6548,-0.067585
63.189,73.6455,-0.042554
63.221,73.6352,-0.042554
63.251,73.6247,-0.042554
63.282,73.6130,-0.042554
63.313,73.6012,-0.042554
63.343,73.5881,-0.042554
63.374,73.5749,-0.042554
63.405,73.5603,-0.042554
63.435,73.5458,-0.042554
63.467,73.5294,-0.018567
63.497,73.5135,-0.018567
63.529,73.4959,-0.018567
63.559,73.4784,-0.018567
63.591,73.4593,-0.018567
63.622,73.4399,-0.018567
63.653,73.4188,-0.018567
63.684,73.3984,-0.010314
63.716,73.3760,-0.010314
63.747,73.3538,-0.010314
63.778,73.3307,-0.010314
63.808,73.3079,-0.010314
63.839,73.2835,-0.010314
63.870,73.2582,-0.010314
63.901,73.2315,-0.010314
63.932,73.2043,0.008234
63.966,73.1742,0.008234
63.995,73.1491,0.008234
64.025,73.1205,0.008234
64.055,73.0920,0.008234
64.087,73.0611,0.008234
64.118,73.0288,0.008234
64.150,72.9967,0.008234
64.181,72.9636,0.024072
64.212,72.9309,0.024072
64.243,72.8969,0.024072
64.273,72.8624,0.024072
64.304,72.8278,0.024072
64.335,72.7911,0.024072
64.367,72.7541,0.024072
64.398,72.7157,0.024072
64.429,72.6775,0.034244
64.460,72.6373,0.034244
64.491,72.5972,0.034244
64.522,72.5578,0.034244
64.553,72.5174,0.034244
64.583,72.4752,0.034244
64.615,72.4317,0.034244
64.648,72.3868,0.034244
64.678,72.3431,0.040888
64.708,72.2986,0.040888
64.739,72.2535,0.040888
64.770,72.2077,0.040888
64.801,72.1602,0.040888
64.832,72.1118,0.040888
64.863,72.0639,0.040888
64.894,72.0130,0.040888
64.925,71.9642,0.047146
64.957,71.9121,0.047146
64.988,71.8610,0.047146
65.018,71.8107,0.047146
65.049,71.7566,0.047146
65.081,71.7017,0.047146
65.111,71.6485,0.047146
65.142,71.5944,0.047146
65.173,71.5390,0.052501
65.204,71.4817,0.052501
65.234,71.4257,0.052501
65.264,71.3698,0.052501
65.296,71.3098,0.052501
65.327,71.2499,0.052501
65.358,71.1901,0.052501
65.390,71.1278,0.052501
65.421,71.0677,0.056952
65.453,71.0078,0.056952
65.484,70.9487,0.056952
65.515,70.8908,0.056952
65.546,70.8350,0.056952
65.577,70.7783,0.056952
65.608,70.7251,0.056952
65.638,70.6705,0.056952
65.670,70.6167,0.040079
65.701,70.5629,0.040079
65.733,70.5093,0.040079
65.764,70.4580,0.040079
65.795,70.4064,0.040079
65.826,70.3563,0.040079
65.857,70.3068,0.040079
65.889,70.2579,0.040079
65.919,70.2107,0.015217
65.950,70.1628,0.015217
65.982,70.1159,0.015217
66.013,70.0694,0.015217
66.045,70.0239,0.015217
66.076,69.9799,0.015217
66.107,69.9353,0.015217
66.137,69.8939,0.009147
66.168,69.8520,0.009147
66.199,69.8109,0.009147
66.229,69.7715,0.009147
66.261,69.7301,0.009147
66.292,69.6922,0.009147
66.323,69.6538,0.009147
66.354,69.6160,0.009147
66.385,69.5794,0.009147
66.415,69.5442,0.008639
66.445,69.5092,0.008639
66.476,69.4743,0.008639
66.509,69.4389,0.008639
66.540,69.4049,0.008639
66.570,69.3730,0.008639
66.601,69.3416,0.008639
66.632,69.3100,0.008639
66.663,69.2794,0.008366
66.694,69.2501,0.008366
66.725,69.2217,0.008366
66.756,69.1930,0.008366
66.787,69.1656,0.008366
66.818,69.1387,0.008366
66.849,69.1129,0.008366
66.880,69.0875,0.008366
66.912,69.0627,0.008243
66.943,69.0383,0.008243
66.973,69.0159,0.008243
67.006,68.9919,0.008243
67.035,68.9722,0.008243
67.065,68.9515,0.008243
67.096,68.9314,0.008243
67.128,68.9111,0.008243
67.159,68.8924,0.008168
67.190,68.8746,0.008168
67.221,68.8571,0.008168
67.252,68.8404,0.008168
67.283,68.8247,0.008168
67.314,68.8093,0.008168
67.347,68.7942,0.008168
67.376,68.7812,0.008168
67.407,68.7681,0.007999
67.438,68.7562,0.007999
67.470,68.7443,0.007999
67.500,68.7338,0.007999
67.532,68.7235,0.007999
67.562,68.7146,0.007999
67.593,68.7058,0.007999
67.623,68.6981,0.007999
67.657,68.6903,0.007933
67.686,68.6846,0.007933
67.717,68.6788,0.007933
67.748,68.6739,0.007933
67.778,68.6697,0.007933
67.810,68.6661,0.007933
67.840,68.6635,0.007933
67.873,68.6612,0.007933
67.905,68.6600,0.007876
67.936,68.6594,0.007876
67.966,68.6594,0.007876
67.997,68.6594,0.007876
68.028,68.6594,0.007876
68.058,68.6594,0.007876
68.089,68.6596,0.007876
68.120,68.6605,0.007876
68.151,68.6622,0.007876
68.182,68.6646,0.007848
68.214,68.6678,0.007848
68.245,68.6715,0.007848
68.276,68.6762,0.007848
68.307,68.6816,0.007848
68.339,68.6877,0.007848
68.369,68.6943,0.007848
68.398,68.7013,0.007792
68.432,68.7101,0.007792
68.463,68.7193,0.007792
68.494,68.7292,0.007792
68.526,68.7399,0.007792
68.556,68.7505,0.007792
68.588,68.7626,0.007792
68.619,68.7752,0.007792
68.650,68.7891,0.007641
68.681,68.8029,0.007641
68.712,68.8179,0.007641
68.743,68.8333,0.007641
68.774,68.8499,0.007641
68.805,68.8665,0.007641
68.836,68.8847,0.007641
68.867,68.9026,0.007641
68.898,68.9219,0.007641
68.929,68.9415,0.007528
68.960,68.9621,0.007528
68.991,68.9837,0.007528
69.022,69.0060,0.007528
69.053,69.0288,0.007528
69.085,69.0525,0.007528
69.116,69.0776,0.007528
69.147,69.1024,0.007528
69.178,69.1281,0.007528
69.209,69.1547,0.007350
69.241,69.1829,0.007350
69.272,69.2103,0.007350
69.303,69.2396,0.007350
69.336,69.2704,0.007350
69.366,69.3002,0.007350
69.397,69.3310,0.007350
69.428,69.3617,0.007199
69.460,69.3950,0.007199
69.490,69.4271,0.007199
69.521,69.4613,0.007199
69.551,69.4953,0.007199
69.582,69.5306,0.007199
69.613,69.5661,0.007199
69.645,69.6041,0.007199
69.676,69.6406,0.007011
69.710,69.6836,0.007011
69.738,69.7183,0.007011
69.770,69.7592,0.007011
69.801,69.7996,0.007011
69.835,69.8453,0.007011
69.863,69.8826,0.007011
69.894,69.9243,0.007011
69.925,69.9684,0.006625
69.956,70.0126,0.006625
69.987,70.0576,0.006625
70.018,70.1025,0.006625
70.050,70.1500,0.006625
70.081,70.1965,0.006625
70.110,70.2429,0.006625
70.142,70.2908,0.006625
70.174,70.3416,0.006154
70.204,70.3914,0.006154
70.235,70.4408,0.006154
70.266,70.4928,0.006154
70.298,70.5460,0.006154
70.330,70.6003,0.006154
70.361,70.6533,0.006154
70.391,70.7070,0.006154
70.422,70.7622,0.005562
70.453,70.8169,0.005562
70.484,70.8727,0.005562
70.513,70.9260,0.005562
70.545,70.9868,0.005562
70.576,71.0471,0.005562
70.607,71.1042,0.005562
70.639,71.1654,0.005562
70.670,71.2260,0.004649
70.700,71.2838,0.004649
70.731,71.3434,0.004649
70.763,71.4017,0.004649
70.794,71.4595,0.004649
70.825,71.5151,0.004649
70.857,71.5724,0.004649
70.889,71.6275,0.004649
70.919,71.6821,0.004649
70.950,71.7334,0.003519
70.981,71.7869,0.003519
71.012,71.8380,0.003519
71.044,71.8906,0.003519
71.073,71.9384,0.003519
71.105,71.9903,0.003519
71.135,72.0370,0.003519
71.167,72.0875,0.001854
71.198,72.1346,0.001854
71.230,72.1831,0.001854
71.260,72.2270,0.001854
71.291,72.2716,0.001854
71.322,72.3162,0.001854
71.353,72.3609,0.001854
71.384,72.4048,0.001854
71.414,72.4449,-0.001412
71.445,72.4861,-0.001412
71.475,72.5262,-0.001412
71.506,72.5654,-0.001412
71.536,72.6043,-0.001412
71.567,72.6435,-0.001412
71.598,72.6823,-0.001412
71.630,72.7202,-0.001412
71.661,72.7560,-0.008074
71.692,72.7920,-0.008074
71.722,72.8269,-0.008074
71.753,72.8610,-0.008074
71.785,72.8954,-0.008074
71.815,72.9278,-0.008074
71.846,72.9600,-0.008074
71.871,72.9863,-0.008074
71.909,73.0231,-0.020637
71.940,73.0536,-0.020637
71.971,73.0821,-0.020637
72.002,73.1117,-0.020637
72.033,73.1390,-0.020637
72.063,73.1654,-0.020637
72.094,73.1913,-0.020637
72.126,73.2186,-0.020637
72.157,73.2429,-0.039778
72.188,73.2675,-0.039778
72.219,73.2907,-0.039778
72.250,73.3139,-0.039778
72.280,73.3359,-0.039778
72.312,73.3568,-0.039778
72.343,73.3776,-0.039778
72.374,73.3976,-0.039778
72.405,73.4168,-0.062683
72.436,73.4354,-0.062683
72.466,73.4524,-0.062683
72.496,73.4690,-0.062683
72.527,73.4850,-0.062683
72.559,73.5012,-0.062683
72.588,73.5151,-0.062683
72.619,73.5293,-0.062683
72.650,73.5423,-0.086312
72.681,73.5553,-0.086312
72.712,73.5671,-0.086312
72.749,73.5805,-0.086312
72.789,73.5936,-0.086312
72.820,73.6032,-0.086312
72.851,73.6118,-0.086312
72.882,73.6198,-0.086312
72.913,73.6269,-0.117432
72.945,73.6336,-0.117432
72.975,73.6392,-0.117432
73.007,73.6445,-0.117432
73.038,73.6487,-0.117432
73.070,73.6524,-0.117432
73.101,73.6553,-0.117432
73.132,73.6574,-0.117432
73.163,73.6588,-0.149437
73.194,73.6594,-0.149437
73.225,73.6594,-0.149437
73.256,73.6594,-0.149437
73.287,73.6594,-0.149437
73.319,73.6594,-0.149437
73.350,73.6594,-0.149437
73.380,73.6594,-0.149437
73.411,73.6594,-0.139095
73.441,73.6594,-0.139095
73.473,73.6594,-0.139095
73.504,73.6594,-0.139095
73.534,73.6594,-0.139095
73.566,73.6594,-0.139095
73.598,73.6594,-0.139095
73.628,73.6594,-0.139095
73.659,73.6594,-0.108426
73.692,73.6594,-0.108426
73.723,73.6594,-0.108426
73.755,73.6594,-0.108426
73.785,73.6594,-0.108426
73.816,73.6594,-0.108426
73.847,73.6594,-0.108426
73.878,73.6594,-0.108426
73.909,73.6594,-0.097040
73.940,73.6594,-0.097040
73.971,73.6594,-0.097040
74.003,73.6594,-0.097040
74.034,73.6594,-0.097040
74.065,73.6594,-0.097040
74.096,73.6594,-0.097040
74.127,73.6594,-0.097040
74.158,73.6594,-0.090857
74.188,73.6594,-0.090857
74.220,73.6594,-0.090857
74.251,73.6594,-0.090857
74.282,73.6594,-0.090857
74.313,73.6594,-0.090857
74.343,73.6594,-0.090857
74.375,73.6594,-0.090857
74.406,73.6594,-0.086538
74.436,73.6594,-0.086538
74.467,73.6594,-0.086538
74.499,73.6594,-0.086538
74.529,73.6594,-0.086538
74.560,73.6594,-0.086538
74.591,73.6594,-0.086538
74.622,73.6594,-0.086538
74.652,73.6594,-0.083273
74.683,73.6594,-0.083273
74.714,73.6594,-0.083273
74.744,73.6594,-0.083273
74.775,73.6594,-0.083273
74.806,73.6594,-0.083273
74.837,73.6594,-0.083273
74.868,73.6594,-0.083273
74.898,73.6594,-0.080675
74.929,73.6594,-0.080675
74.960,73.6594,-0.080675
74.992,73.6594,-0.080675
75.023,73.6594,-0.080675
75.054,73.6594,-0.080675
75.085,73.6594,-0.080675
75.116,73.6594,-0.080675
75.147,73.6594,-0.078511
75.180,73.6594,-0.078511
75.210,73.6594,-0.078511
75.241,73.6594,-0.078511
75.273,73.6594,-0.078511
75.304,73.6594,-0.078511
75.335,73.6594,-0.078511
75.367,73.6594,-0.078511
75.398,73.6594,-0.076742
75.429,73.6594,-0.076742
75.459,73.6594,-0.076742
75.490,73.6594,-0.076742
75.522,73.6594,-0.076742
75.552,73.6594,-0.076742
75.583,73.6594,-0.076742
75.615,73.6594,-0.076742
75.646,73.6594,-0.076742
75.678,73.6594,-0.075151
75.709,73.6594,-0.075151
75.740,73.6594,-0.075151
75.771,73.6594,-0.075151
75.802,73.6594,-0.075151
75.833,73.6594,-0.075151
75.865,73.6594,-0.075151
75.896,73.6594,-0.075151
75.929,73.6594,-0.073834
75.960,73.6594,-0.073834
75.989,73.6594,-0.073834
76.021,73.6594,-0.073834
76.052,73.6594,-0.073834
76.082,73.6594,-0.073834
76.113,73.6594,-0.073834
76.144,73.6594,-0.073834
76.175,73.6594,-0.072658
76.206,73.6594,-0.072658
76.237,73.6594,-0.072658
76.269,73.6594,-0.072658
76.301,73.6594,-0.072658
76.330,73.6594,-0.072658
76.360,73.6594,-0.072658
76.391,73.6594,-0.072658
76.423,73.6594,-0.071575
76.454,73.6594,-0.071575
76.484,73.6594,-0.071575
76.515,73.6594,-0.071575
76.547,73.6594,-0.071575
76.578,73.6594,-0.071575
76.609,73.6594,-0.071575
76.639,73.6594,-0.071575
76.671,73.6594,-0.071575
76.702,73.6594,-0.070531
76.732,73.6594,-0.070531
76.763,73.6594,-0.070531
76.794,73.6594,-0.070531
76.825,73.6594,-0.070531
76.856,73.6594,-0.070531
76.888,73.6594,-0.070531
76.919,73.6594,-0.069618
76.949,73.6594,-0.069618
76.979,73.6594,-0.069618
77.011,73.6594,-0.069618
77.042,73.6594,-0.069618
77.074,73.6594,-0.069618
77.106,73.6594,-0.069618
77.136,73.6594,-0.069618
77.167,73.6594,-0.068639
77.198,73.6594,-0.068639
77.230,73.6594,-0.068639
77.261,73.6594,-0.068639
77.292,73.6594,-0.068639
77.322,73.6594,-0.068639
77.354,73.6594,-0.068639
77.386,73.6594,-0.068639
77.416,73.6594,-0.067849
77.447,73.6594,-0.067849
77.477,73.6594,-0.067849
77.508,73.6589,-0.067849
77.540,73.6576,-0.067849
77.575,73.6554,-0.067849
77.601,73.6532,-0.067849
77.632,73.6497,-0.067849
77.662,73.6456,-0.067849
77.693,73.6409,-0.066324
77.725,73.6353,-0.066324
77.755,73.6289,-0.066324
77.787,73.6219,-0.066324
77.819,73.6139,-0.066324
77.850,73.6053,-0.066324
77.882,73.5958,-0.066324
77.913,73.5857,-0.044972
77.945,73.5747,-0.044972
77.976,73.5635,-0.044972
78.007,73.5510,-0.044972
78.038,73.5382,-0.044972
78.069,73.5248,-0.044972
78.099,73.5108,-0.044972
78.131,73.4953,-0.044972
78.162,73.4793,-0.020402
78.193,73.4631,-0.020402
78.224,73.4456,-0.020402
78.255,73.4275,-0.020402
78.285,73.4093,-0.020402
78.316,73.3896,-0.020402
78.347,73.3704,-0.020402
78.378,73.3489,-0.020402
78.408,73.3280,-0.020402
78.439,73.3055,-0.006305
78.470,73.2826,-0.006305
78.502,73.2580,-0.006305
78.532,73.2348,-0.006305
78.563,73.2091,-0.006305
78.594,73.1830,-0.006305
78.625,73.1568,-0.006305
78.656,73.1298,0.011989
78.686,73.1013,0.011989
78.718,73.0723,0.011989
78.749,73.0431,0.011989
78.779,73.0128,0.011989
78.811,72.9816,0.011989
78.842,72.9503,0.011989
78.873,72.9172,0.011989
78.903,72.8850,0.026707
78.934,72.8503,0.026707
78.965,72.8161,0.026707
78.996,72.7812,0.026707
79.028,72.7443,0.026707
79.061,72.7048,0.026707
79.090,72.6697,0.026707
79.122,72.6299,0.026707
79.152,72.5923,0.035712
79.182,72.5531,0.035712
79.214,72.5113,0.035712
79.246,72.4688,0.035712
79.277,72.4265,0.035712
79.308,72.3844,0.035712
79.339,72.3413,0.035712
79.369,72.2977,0.035712
79.400,72.2535,0.041641
79.432,72.2069,0.041641
79.462,72.1627,0.041641
79.492,72.1168,0.041641
79.523,72.0684,0.041641
79.555,72.0178,0.041641
79.586,71.9691,0.041641
79.617,71.9180,0.041641
79.648,71.8686,0.047193
79.679,71.8160,0.047193
79.710,71.7645,0.047193
79.741,71.7121,0.047193
79.772,71.6578,0.047193
79.803,71.6042,0.047193
79.834,71.5475,0.047193
79.865,71.4933,0.047193
79.895,71.4370,0.047193
79.926,71.3811,0.052312
79.957,71.3224,0.052312
79.988,71.2647,0.052312
80.019,71.2033,0.052312
80.050,71.1448,0.052312
80.082,71.0827,0.052312
80.113,71.0235,0.052312
80.145,70.9632,0.056519
80.176,70.9042,0.056519
80.208,70.8450,0.056519
80.235,70.7956,0.056519
80.269,70.7327,0.056519
80.300,70.6785,0.056519
80.330,70.6255,0.056519
80.362,70.5712,0.056519
80.393,70.5174,0.035336
80.424,70.4643,0.035336
80.459,70.4070,0.035336
80.486,70.3627,0.035336
80.517,70.3126,0.035336
80.548,70.2630,0.035336
80.579,70.2144,0.035336
80.610,70.1673,0.035336
80.640,70.1199,0.010794
80.672,70.0734,0.010794
80.703,70.0269,0.010794
80.734,69.9821,0.010794
80.766,69.9363,0.010794
80.795,69.8940,0.010794
80.827,69.8505,0.010794
80.858,69.8080,0.010794
80.889,69.7669,0.008959
80.920,69.7267,0.008959
80.950,69.6881,0.008959
80.981,69.6485,0.008959
81.012,69.6108,0.008959
81.043,69.5731,0.008959
81.074,69.5345,0.008959
81.107,69.4967,0.008959
81.137,69.4628,0.008601
81.168,69.4275,0.008601
81.199,69.3933,0.008601
81.230,69.3596,0.008601
81.262,69.3261,0.008601
81.293,69.2943,0.008601
81.323,69.2644,0.008601
81.354,69.2339,0.008601
81.385,69.2040,0.008601
81.415,69.1757,0.008366
81.447,69.1464,0.008366
81.477,69.1193,0.008366
81.508,69.0931,0.008366
81.539,69.0668,0.008366
81.571,69.0406,0.008366
81.602,69.0164,0.008366
81.632,68.9921,0.008225
81.664,68.9687,0.008225
81.695,68.9457,0.008225
81.726,68.9242,0.008225
81.758,68.9030,0.008225
81.789,68.8825,0.008225
81.820,68.8626,0.008225
81.851,68.8437,0.008225
81.883,68.8253,0.008225
81.915,68.8072,0.008243
81.945,68.7910,0.008243
81.976,68.7753,0.008243
82.007,68.7598,0.008243
82.038,68.7456,0.008243
82.070,68.7318,0.008243
82.100,68.7192,0.008243
82.131,68.7069,0.008243
82.164,68.6947,0.008102
82.193,68.6846,0.008102
82.224,68.6744,0.008102
82.255,68.6650,0.008102
82.286,68.6564,0.008102
82.317,68.6483,0.008102
82.349,68.6411,0.008102
82.379,68.6349,0.008102
82.410,68.6290,0.008102
82.441,68.6242,0.007914
82.472,68.6198,0.007914
82.503,68.6163,0.007914
82.534,68.6135,0.007914
82.565,68.6114,0.007914
82.595,68.6101,0.007914
82.626,68.6094,0.007914
82.657,68.6094,0.007914
82.688,68.6094,0.007867
82.719,68.6094,0.007867
82.751,68.6094,0.007867
82.783,68.6099,0.007867
82.812,68.6111,0.007867
82.843,68.6130,0.007867
82.874,68.6156,0.007867
82.905,68.6189,0.007867
82.936,68.6232,0.007858
82.968,68.6281,0.007858
82.999,68.6337,0.007858
83.029,68.6399,0.007858
83.060,68.6468,0.007858
83.093,68.6552,0.007858
83.121,68.6628,0.007858
83.152,68.6721,0.007858
83.184,68.6822,0.007801
83.216,68.6931,0.007801
83.245,68.7039,0.007801
83.276,68.7162,0.007801
83.308,68.7292,0.007801
83.339,68.7428,0.007801
83.371,68.7577,0.007801
83.402,68.7725,0.007801
83.432,68.7879,0.007688
83.463,68.8042,0.007688
83.494,68.8216,0.007688
83.524,68.8390,0.007688
83.556,68.8582,0.007688
83.586,68.8767,0.007688
83.616,68.8970,0.007688
83.647,68.9176,0.007585
83.681,68.9412,0.007585
83.710,68.9612,0.007585
83.741,68.9849,0.007585
83.772,69.0086,0.007585
83.803,69.0329,0.007585
83.834,69.0577,0.007585
83.865,69.0842,0.007585
83.896,69.1106,0.007387
83.928,69.1391,0.007387
83.958,69.1660,0.007387
83.989,69.1958,0.007387
84.020,69.2243,0.007387
84.052,69.2553,0.007387
84.082,69.2856,0.007387
84.114,69.3189,0.007387
84.144,69.3497,0.007208
84.176,69.3838,0.007208
84.206,69.4170,0.007208
84.237,69.4525,0.007208
84.268,69.4867,0.007208
84.303,69.5287,0.007208
84.330,69.5592,0.007208
84.360,69.5961,0.007208
84.391,69.6346,0.006926
84.423,69.6743,0.006926
84.453,69.7135,0.006926
84.479,69.7476,0.006926
84.514,69.7936,0.006926
84.545,69.8351,0.006926
84.575,69.8767,0.006926
84.607,69.9219,0.006926
84.637,69.9645,0.006926
84.668,70.0081,0.006540
84.699,70.0540,0.006540
84.730,70.0999,0.006540
84.762,70.1485,0.006540
84.794,70.1976,0.006540
84.825,70.2471,0.006540
84.856,70.2955,0.006540
84.887,70.3458,0.006540
84.918,70.3969,0.006540
84.952,70.4529,0.006117
84.980,70.4984,0.006117
85.012,70.5561,0.006117
85.042,70.6056,0.006117
85.073,70.6588,0.006117
85.104,70.7144,0.006117
85.134,70.7689,0.006117
85.165,70.8257,0.005411
85.195,70.8811,0.005411
85.226,70.9388,0.005411
85.258,70.9983,0.005411
85.290,71.0612,0.005411
85.322,71.1212,0.005411
85.352,71.1804,0.005411
85.383,71.2404,0.005411
85.414,71.2986,0.004404
85.445,71.3548,0.004404
85.478,71.4157,0.004404
85.508,71.4700,0.004404
85.540,71.5273,0.004404
85.571,71.5817,0.004404
85.602,71.6353,0.004404
85.633,71.6884,0.004404
85.664,71.7406,0.004404
85.694,71.7920,0.003181
85.725,71.8429,0.003181
85.756,71.8933,0.003181
85.787,71.9431,0.003181
85.818,71.9914,0.003181
85.850,72.0417,0.003181
85.882,72.0892,0.003181
85.912,72.1364,0.001205
85.943,72.1818,0.001205
85.974,72.2269,0.001205
86.005,72.2719,0.001205
86.036,72.3148,0.001205
86.067,72.3586,0.001205
86.099,72.4008,0.001205
86.130,72.4428,0.001205
86.161,72.4848,0.001205
86.192,72.5234,-0.002682
86.223,72.5644,-0.002682
86.254,72.6025,-0.002682
86.286,72.6418,-0.002682
86.317,72.6785,-0.002682
86.348,72.7157,-0.002682
86.380,72.7515,-0.002682
86.411,72.7872,-0.010653
86.442,72.8212,-0.010653
86.474,72.8556,-0.010653
86.505,72.8885,-0.010653
86.538,72.9223,-0.010653
86.568,72.9527,-0.010653
86.601,72.9849,-0.010653
86.632,73.0145,-0.010653
86.662,73.0432,-0.010653
86.693,73.0708,-0.025182
86.723,73.0983,-0.025182
86.754,73.1257,-0.025182
86.785,73.1511,-0.025182
86.816,73.1767,-0.025182
86.847,73.2011,-0.025182
86.879,73.2255,-0.025182
86.910,73.2487,-0.025182
86.940,73.2716,-0.045782
86.971,73.2930,-0.045782
87.001,73.3135,-0.045782
87.032,73.3338,-0.045782
87.063,73.3533,-0.045782
87.094,73.3723,-0.045782
87.124,73.3901,-0.045782
87.156,73.4077,-0.069100
87.187,73.4247,-0.069100
87.218,73.4409,-0.069100
87.248,73.4557,-0.069100
87.278,73.4699,-0.069100
87.309,73.4836,-0.069100
87.340,73.4970,-0.069100
87.372,73.5094,-0.069100
87.403,73.5213,-0.069100
87.434,73.5321,-0.093671
87.465,73.5425,-0.093671
87.496,73.5520,-0.093671
87.528,73.5610,-0.093671
87.558,73.5688,-0.093671
87.589,73.5762,-0.093671
87.621,73.5827,-0.093671
87.651,73.5887,-0.093671
87.682,73.5938,-0.127595
87.713,73.5982,-0.127595
87.744,73.6017,-0.127595
87.775,73.6048,-0.127595
87.807,73.6070,-0.127595
87.837,73.6085,-0.127595
87.869,73.6093,-0.127595
87.900,73.6094,-0.127595
87.930,73.6094,-0.151648
87.961,73.6094,-0.151648
87.991,73.6094,-0.151648
88.022,73.6094,-0.151648
