Elapsed Time (s),Position (mm),Force (N)
-0.010,79.4094,-0.022171
0.020,79.4094,-0.022171
0.051,79.4094,-0.020759
0.082,79.4094,-0.020759
0.113,79.4094,-0.020759
0.143,79.4094,-0.020759
0.174,79.4094,-0.020759
0.204,79.4094,-0.020759
0.235,79.4094,-0.020759
0.267,79.4094,-0.020759
0.295,79.4094,-0.020759
0.328,79.4094,-0.019611
0.359,79.4094,-0.019611
0.389,79.4094,-0.019611
0.420,79.4094,-0.019611
0.452,79.4094,-0.019611
0.483,79.4094,-0.019611
0.517,79.4094,-0.019611
0.545,79.4094,-0.019611
0.584,79.4094,-0.018793
0.624,79.4094,-0.018793
0.655,79.4094,-0.018793
0.686,79.4094,-0.018793
0.717,79.4094,-0.018793
0.748,79.4094,-0.018793
0.779,79.4094,-0.018793
0.809,79.4094,-0.018793
0.840,79.4094,-0.018106
0.871,79.4094,-0.018106
0.902,79.4094,-0.018106
0.933,79.4094,-0.018106
0.965,79.4094,-0.018106
0.995,79.4094,-0.018106
1.027,79.4094,-0.018106
1.058,79.4094,-0.017503
1.090,79.4094,-0.017503
1.120,79.4094,-0.017503
1.150,79.4094,-0.017503
1.182,79.4094,-0.017503
1.213,79.4094,-0.017503
1.244,79.4094,-0.017503
1.275,79.4094,-0.017503
1.306,79.4094,-0.016948
1.336,79.4094,-0.016948
1.368,79.4094,-0.016948
1.399,79.4094,-0.016948
1.429,79.4094,-0.016948
1.461,79.4094,-0.016948
1.491,79.4094,-0.016948
1.523,79.4094,-0.016948
1.554,79.4094,-0.016459
1.585,79.4094,-0.016459
1.616,79.4094,-0.016459
1.648,79.4094,-0.016459
1.679,79.4094,-0.016459
1.710,79.4094,-0.016459
1.741,79.4094,-0.016459
1.772,79.4094,-0.016459
1.803,79.4094,-0.016082
1.834,79.4094,-0.016082
1.865,79.4094,-0.016082
1.896,79.4094,-0.016082
1.927,79.4094,-0.016082
1.958,79.4094,-0.016082
1.989,79.4094,-0.016082
2.020,79.4094,-0.016082
2.051,79.4094,-0.015687
2.082,79.4094,-0.015687
2.113,79.4094,-0.015687
2.144,79.4094,-0.015687
2.175,79.4094,-0.015687
2.205,79.4094,-0.015687
2.237,79.4094,-0.015687
2.268,79.4094,-0.015687
2.299,79.4094,-0.015367
2.332,79.4094,-0.015367
2.362,79.4094,-0.015367
2.394,79.4094,-0.015367
2.428,79.4094,-0.015367
2.455,79.4094,-0.015367
2.486,79.4094,-0.015367
2.517,79.4094,-0.015367
2.548,79.4094,-0.015085
2.579,79.4094,-0.015085
2.610,79.4094,-0.015085
2.641,79.4094,-0.015085
2.673,79.4094,-0.015085
2.702,79.4094,-0.015085
2.735,79.4094,-0.015085
2.765,79.4094,-0.015085
2.795,79.4094,-0.015085
2.826,79.4094,-0.014774
2.860,79.4094,-0.014774
2.889,79.4094,-0.014774
2.920,79.4094,-0.014774
2.951,79.4094,-0.014774
2.982,79.4094,-0.014774
3.012,79.4094,-0.014774
3.043,79.4094,-0.014774
3.074,79.4094,-0.014473
3.106,79.4094,-0.014473
3.135,79.4094,-0.014473
3.168,79.4094,-0.014473
3.197,79.4094,-0.014473
3.228,79.4094,-0.014473
3.258,79.4094,-0.014473
3.289,79.4094,-0.014473
3.320,79.4094,-0.014200
3.351,79.4094,-0.014200
3.381,79.4094,-0.014200
3.413,79.4094,-0.014200
3.444,79.4094,-0.014200
3.475,79.4094,-0.014200
3.505,79.4094,-0.014200
3.537,79.4094,-0.014200
3.568,79.4094,-0.013937
3.598,79.4094,-0.013937
3.629,79.4094,-0.013937
3.660,79.4094,-0.013937
3.691,79.4094,-0.013937
3.723,79.4094,-0.013937
3.753,79.4094,-0.013937
3.785,79.4094,-0.013711
3.816,79.4094,-0.013711
3.847,79.4094,-0.013711
3.880,79.4094,-0.013711
3.909,79.4094,-0.013711
3.939,79.4094,-0.013711
3.971,79.4094,-0.013711
4.002,79.4094,-0.013711
4.033,79.4094,-0.013711
4.065,79.4094,-0.013513
4.096,79.4094,-0.013513
4.126,79.4094,-0.013513
4.158,79.4087,-0.013513
4.189,79.4072,-0.013513
4.219,79.4053,-0.013513
4.250,79.4025,-0.013513
4.282,79.3988,-0.013175
4.312,79.3947,-0.013175
4.343,79.3898,-0.013175
4.374,79.3842,-0.013175
4.405,79.3777,-0.013175
4.436,79.3707,-0.013175
4.467,79.3626,-0.013175
4.498,79.3540,-0.013175
4.529,79.3446,-0.013175
4.560,79.3348,-0.010069
4.591,79.3238,-0.010069
4.623,79.3119,-0.010069
4.653,79.2997,-0.010069
4.685,79.2868,-0.010069
4.716,79.2729,-0.010069
4.748,79.2578,-0.010069
4.778,79.2433,-0.010069
4.809,79.2273,-0.002240
4.839,79.2112,-0.002240
4.870,79.1942,-0.002240
4.900,79.1766,-0.002240
4.931,79.1575,-0.002240
4.962,79.1380,-0.002240
4.994,79.1173,-0.002240
5.026,79.0957,0.007717
5.057,79.0740,0.007717
5.087,79.0522,0.007717
5.119,79.0284,0.007717
5.150,79.0049,0.007717
5.181,78.9797,0.007717
5.211,78.9552,0.007717
5.242,78.9286,0.007717
5.273,78.9025,0.007717
5.304,78.8743,0.007717
5.336,78.8464,0.015922
5.366,78.8175,0.015922
5.397,78.7884,0.015922
5.427,78.7582,0.015922
5.459,78.7267,0.015922
5.491,78.6939,0.015922
5.521,78.6611,0.015922
5.552,78.6292,0.015922
5.582,78.5954,0.021004
5.613,78.5605,0.021004
5.645,78.5243,0.021004
5.677,78.4876,0.021004
5.707,78.4500,0.021004
5.737,78.4144,0.021004
5.768,78.3764,0.021004
5.799,78.3364,0.021004
5.829,78.2976,0.025841
5.860,78.2569,0.025841
5.891,78.2171,0.025841
5.920,78.1757,0.025841
5.952,78.1327,0.025841
5.989,78.0791,0.025841
6.030,78.0214,0.025841
6.061,77.9760,0.033219
6.092,77.9311,0.033219
6.124,77.8826,0.033219
6.155,77.8365,0.033219
6.186,77.7868,0.033219
6.217,77.7389,0.033219
6.248,77.6885,0.033219
6.279,77.6387,0.033219
6.310,77.5876,0.040869
6.345,77.5279,0.040869
6.372,77.4819,0.040869
6.404,77.4286,0.040869
6.434,77.3749,0.040869
6.465,77.3204,0.040869
6.497,77.2631,0.040869
6.528,77.2051,0.040869
6.560,77.1485,0.036522
6.592,77.0899,0.036522
6.623,77.0310,0.036522
6.653,76.9708,0.036522
6.684,76.9121,0.036522
6.715,76.8530,0.036522
6.746,76.7939,0.036522
6.777,76.7337,0.036522
6.808,76.6745,0.019301
6.839,76.6176,0.019301
6.870,76.5605,0.019301
6.901,76.5027,0.019301
6.933,76.4473,0.019301
6.964,76.3915,0.019301
6.994,76.3399,0.019301
7.026,76.2851,0.019301
7.057,76.2331,0.009081
7.088,76.1802,0.009081
7.119,76.1298,0.009081
7.150,76.0787,0.009081
7.181,76.0298,0.009081
7.211,75.9806,0.009081
7.242,75.9338,0.009081
7.273,75.8867,0.009081
7.304,75.8400,0.008253
7.335,75.7943,0.008253
7.365,75.7486,0.008253
7.401,75.6971,0.008253
7.428,75.6590,0.008253
7.461,75.6144,0.008253
7.491,75.5714,0.008253
7.523,75.5289,0.008253
7.554,75.4881,0.007886
7.585,75.4485,0.007886
7.619,75.4045,0.007886
7.648,75.3700,0.007886
7.680,75.3302,0.007886
7.710,75.2944,0.007886
7.740,75.2587,0.007886
7.771,75.2232,0.007886
7.802,75.1878,0.007886
7.833,75.1525,0.007717
7.865,75.1193,0.007717
7.896,75.0863,0.007717
7.927,75.0537,0.007717
7.957,75.0229,0.007717
7.988,74.9929,0.007717
8.019,74.9621,0.007717
8.050,74.9332,0.007500
8.082,74.9042,0.007500
8.112,74.8772,0.007500
8.143,74.8503,0.007500
8.174,74.8231,0.007500
8.205,74.7982,0.007500
8.236,74.7729,0.007500
8.268,74.7487,0.007500
8.299,74.7245,0.007302
8.332,74.7011,0.007302
8.357,74.6831,0.007302
8.392,74.6583,0.007302
8.423,74.6383,0.007302
8.454,74.6183,0.007302
8.484,74.6000,0.007302
8.516,74.5815,0.007302
8.546,74.5643,0.007302
8.577,74.5474,0.007227
8.608,74.5308,0.007227
8.639,74.5156,0.007227
8.671,74.5005,0.007227
8.701,74.4870,0.007227
8.733,74.4730,0.007227
8.763,74.4612,0.007227
8.795,74.4488,0.007227
8.826,74.4379,0.007086
8.856,74.4276,0.007086
8.887,74.4182,0.007086
8.918,74.4091,0.007086
8.950,74.4009,0.007086
8.979,74.3937,0.007086
9.011,74.3871,0.007086
9.042,74.3809,0.007086
9.074,74.3756,0.006888
9.105,74.3712,0.006888
9.136,74.3674,0.006888
9.166,74.3645,0.006888
9.197,74.3621,0.006888
9.232,74.3602,0.006888
9.258,74.3596,0.006888
9.289,74.3594,0.006888
9.321,74.3594,0.006794
9.351,74.3594,0.006794
9.382,74.3594,0.006794
9.413,74.3594,0.006794
9.445,74.3594,0.006794
9.475,74.3594,0.006794
9.506,74.3594,0.006794
9.537,74.3594,0.006794
9.567,74.3594,0.006860
9.599,74.3594,0.006860
9.631,74.3594,0.006860
9.665,74.3594,0.006860
9.693,74.3594,0.006860
9.725,74.3594,0.006860
9.755,74.3594,0.006860
9.786,74.3594,0.006860
9.817,74.3594,0.006851
9.849,74.3594,0.006851
9.879,74.3594,0.006851
9.910,74.3594,0.006851
9.941,74.3594,0.006851
9.972,74.3594,0.006851
10.002,74.3595,0.006851
10.033,74.3602,0.006851
10.064,74.3617,0.006851
10.095,74.3640,0.006785
10.126,74.3671,0.006785
10.158,74.3708,0.006785
10.190,74.3755,0.006785
10.222,74.3807,0.006785
10.254,74.3870,0.006785
10.286,74.3937,0.006785
10.316,74.4009,0.006606
10.347,74.4090,0.006606
10.378,74.4179,0.006606
10.409,74.4277,0.006606
10.440,74.4379,0.006606
10.471,74.4489,0.006606
10.503,74.4609,0.006606
10.533,74.4733,0.006606
10.565,74.4867,0.006521
10.596,74.5009,0.006521
10.627,74.5154,0.006521
10.656,74.5304,0.006521
10.687,74.5460,0.006521
10.719,74.5631,0.006521
10.750,74.5809,0.006521
10.781,74.5998,0.006521
10.812,74.6188,0.006493
10.842,74.6379,0.006493
10.874,74.6583,0.006493
10.911,74.6847,0.006493
10.952,74.7131,0.006493
10.982,74.7359,0.006493
11.013,74.7596,0.006493
11.044,74.7844,0.006493
11.076,74.8097,0.006352
11.106,74.8355,0.006352
11.137,74.8617,0.006352
11.168,74.8891,0.006352
11.201,74.9192,0.006352
11.230,74.9459,0.006352
11.261,74.9760,0.006352
11.291,75.0058,0.006201
11.322,75.0360,0.006201
11.353,75.0682,0.006201
11.384,75.1008,0.006201
11.414,75.1325,0.006201
11.446,75.1676,0.006201
11.477,75.2015,0.006201
11.507,75.2372,0.006201
11.537,75.2717,0.006117
11.569,75.3095,0.006117
11.600,75.3467,0.006117
11.631,75.3853,0.006117
11.661,75.4231,0.006117
11.693,75.4643,0.006117
11.723,75.5034,0.006117
11.754,75.5450,0.006117
11.786,75.5870,0.006060
11.818,75.6318,0.006060
11.852,75.6793,0.006060
11.879,75.7189,0.006060
11.910,75.7623,0.006060
11.941,75.8085,0.006060
11.974,75.8572,0.006060
12.003,75.9006,0.006060
12.034,75.9505,0.006060
12.066,75.9983,0.005938
12.096,76.0461,0.005938
12.127,76.0977,0.005938
12.159,76.1488,0.005938
12.189,76.1980,0.005938
12.220,76.2512,0.005938
12.251,76.3039,0.005938
12.283,76.3580,0.005938
12.314,76.4123,0.005646
12.348,76.4746,0.005646
12.375,76.5223,0.005646
12.407,76.5794,0.005646
12.438,76.6378,0.005646
12.469,76.6946,0.005646
12.500,76.7535,0.005646
12.531,76.8140,0.005176
12.566,76.8815,0.005176
12.594,76.9356,0.005176
12.626,76.9954,0.005176
12.657,77.0546,0.005176
12.685,77.1055,0.005176
12.718,77.1671,0.005176
12.751,77.2259,0.005176
12.779,77.2775,0.004969
12.810,77.3312,0.004969
12.841,77.3858,0.004969
12.872,77.4380,0.004969
12.904,77.4921,0.004969
12.934,77.5429,0.004969
12.966,77.5959,0.004969
12.997,77.6455,0.004969
13.028,77.6955,0.004969
13.059,77.7441,0.004733
13.090,77.7932,0.004733
13.122,77.8403,0.004733
13.153,77.8885,0.004733
13.183,77.9325,0.004733
13.215,77.9795,0.004733
13.243,78.0189,0.004733
13.277,78.0675,0.004733
13.308,78.1108,0.004225
13.340,78.1531,0.004225
13.370,78.1931,0.004225
13.401,78.2350,0.004225
13.431,78.2739,0.004225
13.463,78.3146,0.004225
13.495,78.3552,0.004225
13.525,78.3906,0.003397
13.558,78.4294,0.003397
13.588,78.4658,0.003397
13.619,78.5018,0.003397
13.650,78.5365,0.003397
13.682,78.5707,0.003397
13.712,78.6046,0.003397
13.743,78.6372,0.003397
13.775,78.6701,0.003397
13.806,78.7003,0.001750
13.837,78.7314,0.001750
13.867,78.7606,0.001750
13.899,78.7908,0.001750
13.930,78.8190,0.001750
13.962,78.8474,0.001750
13.992,78.8743,0.001750
14.024,78.9005,0.001750
14.055,78.9259,-0.001073
14.086,78.9506,-0.001073
14.117,78.9749,-0.001073
14.148,78.9990,-0.001073
14.179,79.0205,-0.001073
14.209,79.0422,-0.001073
14.241,79.0639,-0.001073
14.272,79.0842,-0.001073
14.304,79.1044,-0.006427
14.336,79.1240,-0.006427
14.366,79.1417,-0.006427
14.397,79.1587,-0.006427
14.427,79.1752,-0.006427
14.459,79.1917,-0.006427
14.490,79.2071,-0.006427
14.521,79.2212,-0.006427
14.553,79.2355,-0.006427
14.583,79.2482,-0.014586
14.615,79.2608,-0.014586
14.646,79.2726,-0.014586
14.677,79.2833,-0.014586
14.708,79.2936,-0.014586
14.739,79.3029,-0.014586
14.770,79.3117,-0.014586
14.801,79.3197,-0.014586
14.832,79.3268,-0.014586
14.863,79.3333,-0.022651
14.894,79.3392,-0.022651
14.923,79.3440,-0.022651
14.954,79.3483,-0.022651
14.985,79.3519,-0.022651
15.016,79.3549,-0.022651
15.047,79.3571,-0.022651
15.078,79.3585,-0.027761
15.109,79.3592,-0.027761
15.140,79.3594,-0.027761
15.170,79.3594,-0.027761
15.202,79.3594,-0.027761
15.233,79.3594,-0.027761
15.263,79.3594,-0.027761
15.289,79.3594,-0.027761
15.325,79.3594,-0.027761
15.356,79.3594,-0.027761
15.387,79.3594,-0.028306
15.419,79.3594,-0.028306
15.449,79.3594,-0.028306
15.480,79.3594,-0.028306
15.510,79.3594,-0.028306
15.544,79.3594,-0.028306
15.573,79.3594,-0.028306
15.603,79.3594,-0.025926
15.635,79.3594,-0.025926
15.668,79.3594,-0.025926
15.696,79.3594,-0.025926
15.728,79.3594,-0.025926
15.758,79.3594,-0.025926
15.789,79.3594,-0.025926
15.820,79.3594,-0.025926
15.851,79.3594,-0.023677
15.882,79.3594,-0.023677
15.913,79.3594,-0.023677
15.943,79.3594,-0.023677
15.974,79.3594,-0.023677
16.005,79.3594,-0.023677
16.037,79.3594,-0.023677
16.068,79.3594,-0.022049
16.099,79.3594,-0.022049
16.130,79.3594,-0.022049
16.162,79.3594,-0.022049
16.192,79.3594,-0.022049
16.226,79.3594,-0.022049
16.254,79.3594,-0.022049
16.285,79.3594,-0.022049
16.316,79.3594,-0.020628
16.346,79.3594,-0.020628
16.377,79.3594,-0.020628
16.408,79.3594,-0.020628
16.440,79.3594,-0.020628
16.471,79.3594,-0.020628
16.502,79.3594,-0.020628
16.532,79.3594,-0.020628
16.563,79.3594,-0.019470
16.595,79.3594,-0.019470
16.626,79.3594,-0.019470
16.657,79.3594,-0.019470
16.688,79.3594,-0.019470
16.720,79.3594,-0.019470
16.753,79.3594,-0.019470
16.781,79.3594,-0.019470
16.812,79.3594,-0.018670
16.844,79.3594,-0.018670
16.875,79.3594,-0.018670
16.906,79.3594,-0.018670
16.938,79.3594,-0.018670
16.968,79.3594,-0.018670
16.999,79.3594,-0.018670
17.030,79.3594,-0.018670
17.061,79.3594,-0.018021
17.092,79.3594,-0.018021
17.125,79.3594,-0.018021
17.154,79.3594,-0.018021
17.185,79.3594,-0.018021
17.216,79.3594,-0.018021
17.247,79.3594,-0.018021
17.278,79.3594,-0.018021
17.310,79.3594,-0.017428
17.340,79.3594,-0.017428
17.372,79.3594,-0.017428
17.403,79.3594,-0.017428
17.434,79.3594,-0.017428
17.465,79.3594,-0.017428
17.501,79.3594,-0.017428
17.527,79.3594,-0.017428
17.558,79.3594,-0.016826
17.589,79.3594,-0.016826
17.620,79.3594,-0.016826
17.649,79.3594,-0.016826
17.680,79.3594,-0.016826
17.711,79.3594,-0.016826
17.743,79.3594,-0.016826
17.773,79.3594,-0.016826
17.804,79.3594,-0.016826
17.835,79.3594,-0.016355
17.866,79.3594,-0.016355
17.898,79.3594,-0.016355
17.929,79.3594,-0.016355
17.960,79.3594,-0.016355
17.991,79.3594,-0.016355
18.021,79.3594,-0.016355
18.052,79.3594,-0.016355
18.082,79.3594,-0.016355
18.112,79.3594,-0.016073
18.143,79.3594,-0.016073
18.174,79.3594,-0.016073
18.207,79.3594,-0.016073
18.239,79.3594,-0.016073
18.268,79.3594,-0.016073
18.299,79.3594,-0.016073
18.330,79.3594,-0.015631
18.362,79.3594,-0.015631
18.392,79.3594,-0.015631
18.423,79.3594,-0.015631
18.454,79.3594,-0.015631
18.485,79.3594,-0.015631
18.516,79.3594,-0.015631
18.548,79.3594,-0.015631
18.577,79.3594,-0.015631
18.608,79.3594,-0.015235
18.638,79.3594,-0.015235
18.669,79.3594,-0.015235
18.700,79.3594,-0.015235
18.733,79.3594,-0.015235
18.762,79.3594,-0.015235
18.794,79.3594,-0.015235
18.825,79.3594,-0.015010
18.857,79.3594,-0.015010
18.886,79.3594,-0.015010
18.918,79.3594,-0.015010
18.950,79.3594,-0.015010
18.979,79.3594,-0.015010
19.011,79.3594,-0.015010
19.036,79.3594,-0.015010
19.073,79.3594,-0.014718
19.103,79.3594,-0.014718
19.134,79.3594,-0.014718
19.165,79.3594,-0.014718
19.195,79.3594,-0.014718
19.227,79.3594,-0.014718
19.258,79.3594,-0.014718
19.291,79.3594,-0.014718
19.320,79.3594,-0.014407
19.351,79.3594,-0.014407
19.382,79.3594,-0.014407
19.414,79.3594,-0.014407
19.445,79.3594,-0.014407
19.475,79.3594,-0.014407
19.506,79.3594,-0.014407
19.537,79.3594,-0.014153
19.568,79.3594,-0.014153
19.599,79.3594,-0.014153
19.629,79.3594,-0.014153
19.661,79.3594,-0.014153
19.691,79.3594,-0.014153
19.723,79.3594,-0.014153
19.754,79.3594,-0.014153
19.785,79.3594,-0.014153
19.816,79.3594,-0.013899
19.848,79.3594,-0.013899
19.879,79.3594,-0.013899
19.909,79.3594,-0.013899
19.940,79.3594,-0.013899
19.974,79.3594,-0.013899
20.003,79.3594,-0.013899
20.034,79.3594,-0.013899
20.066,79.3594,-0.013711
20.096,79.3594,-0.013711
20.128,79.3594,-0.013711
20.158,79.3594,-0.013711
20.190,79.3594,-0.013711
20.220,79.3594,-0.013711
20.251,79.3594,-0.013711
20.283,79.3594,-0.013711
20.313,79.3594,-0.013476
20.343,79.3594,-0.013476
20.375,79.3594,-0.013476
20.405,79.3594,-0.013476
20.436,79.3592,-0.013476
20.467,79.3585,-0.013476
20.497,79.3570,-0.013476
20.529,79.3547,-0.013165
20.560,79.3517,-0.013165
20.592,79.3478,-0.013165
20.623,79.3434,-0.013165
20.654,79.3383,-0.013165
20.686,79.3322,-0.013165
20.717,79.3256,-0.013165
20.747,79.3182,-0.013165
20.778,79.3103,-0.013165
20.811,79.3010,-0.010850
20.841,79.2917,-0.010850
20.872,79.2811,-0.010850
20.903,79.2702,-0.010850
20.935,79.2583,-0.010850
20.966,79.2458,-0.010850
20.996,79.2327,-0.010850
21.027,79.2190,-0.010850
21.058,79.2041,-0.010850
21.089,79.1891,-0.004009
21.120,79.1730,-0.004009
21.151,79.1561,-0.004009
21.183,79.1381,-0.004009
21.213,79.1200,-0.004009
21.248,79.0987,-0.004009
21.288,79.0729,-0.004009
21.320,79.0514,-0.004009
21.351,79.0298,0.005646
21.382,79.0076,0.005646
21.413,78.9846,0.005646
21.445,78.9596,0.005646
21.475,78.9360,0.005646
21.507,78.9100,0.005646
21.537,78.8852,0.014436
21.567,78.8594,0.014436
21.599,78.8313,0.014436
21.630,78.8030,0.014436
21.662,78.7742,0.014436
21.697,78.7391,0.014436
21.724,78.7142,0.014436
21.755,78.6828,0.014436
21.787,78.6503,0.020082
21.817,78.6185,0.020082
21.847,78.5850,0.020082
21.878,78.5525,0.020082
21.909,78.5182,0.020082
21.939,78.4834,0.020082
21.970,78.4478,0.020082
22.005,78.4061,0.020082
22.031,78.3734,0.024589
22.062,78.3358,0.024589
22.094,78.2960,0.024589
22.125,78.2556,0.024589
22.156,78.2156,0.024589
22.185,78.1762,0.024589
22.216,78.1356,0.024589
22.247,78.0927,0.024589
22.278,78.0502,0.024589
22.308,78.0065,0.024589
22.340,77.9619,0.031468
22.371,77.9155,0.031468
22.402,77.8702,0.031468
22.432,77.8230,0.031468
22.466,77.7714,0.031468
22.497,77.7216,0.031468
22.526,77.6767,0.031468
22.557,77.6280,0.031468
22.587,77.5784,0.039514
22.618,77.5271,0.039514
22.651,77.4725,0.039514
22.680,77.4232,0.039514
22.711,77.3682,0.039514
22.742,77.3147,0.039514
22.773,77.2582,0.039514
22.804,77.2040,0.039514
22.836,77.1454,0.042328
22.866,77.0902,0.042328
22.897,77.0316,0.042328
22.929,76.9715,0.042328
22.960,76.9140,0.042328
22.991,76.8526,0.042328
23.022,76.7933,0.042328
23.054,76.7321,0.025709
23.084,76.6738,0.025709
23.115,76.6159,0.025709
23.145,76.5604,0.025709
23.176,76.5020,0.025709
23.208,76.4454,0.025709
23.241,76.3874,0.025709
23.270,76.3352,0.025709
23.301,76.2820,0.025709
23.331,76.2296,0.009363
23.362,76.1779,0.009363
23.393,76.1267,0.009363
23.424,76.0730,0.009363
23.456,76.0234,0.009363
23.487,75.9715,0.009363
23.519,75.9221,0.009363
23.549,75.8749,0.008469
23.580,75.8288,0.008469
23.611,75.7817,0.008469
23.642,75.7359,0.008469
23.673,75.6908,0.008469
23.704,75.6470,0.008469
23.735,75.6018,0.008469
23.767,75.5587,0.008469
23.798,75.5160,0.008469
23.829,75.4752,0.008074
23.859,75.4344,0.008074
23.894,75.3900,0.008074
23.922,75.3537,0.008074
23.953,75.3160,0.008074
23.984,75.2771,0.008074
24.015,75.2409,0.008074
24.043,75.2082,0.008074
24.077,75.1687,0.007745
24.108,75.1334,0.007745
24.139,75.0988,0.007745
24.170,75.0659,0.007745
24.201,75.0331,0.007745
24.233,75.0002,0.007745
24.264,74.9687,0.007745
24.295,74.9378,0.007745
24.326,74.9079,0.007547
24.356,74.8795,0.007547
24.387,74.8519,0.007547
24.419,74.8231,0.007547
24.449,74.7964,0.007547
24.487,74.7641,0.007547
24.527,74.7318,0.007547
24.559,74.7069,0.007547
24.589,74.6838,0.007340
24.620,74.6607,0.007340
24.650,74.6387,0.007340
24.681,74.6173,0.007340
24.714,74.5954,0.007340
24.743,74.5769,0.007340
24.775,74.5568,0.007340
24.807,74.5377,0.007180
24.837,74.5206,0.007180
24.868,74.5034,0.007180
24.899,74.4867,0.007180
24.930,74.4707,0.007180
24.961,74.4562,0.007180
24.992,74.4416,0.007180
25.023,74.4284,0.007180
25.055,74.4152,0.007133
25.085,74.4034,0.007133
25.118,74.3912,0.007133
25.149,74.3808,0.007133
25.179,74.3713,0.007133
25.210,74.3622,0.007133
25.241,74.3537,0.007133
25.272,74.3462,0.007133
25.302,74.3394,0.007058
25.333,74.3331,0.007058
25.366,74.3274,0.007058
25.396,74.3227,0.007058
25.426,74.3188,0.007058
25.458,74.3153,0.007058
25.489,74.3127,0.007058
25.520,74.3109,0.007058
25.551,74.3098,0.006954
25.582,74.3094,0.006954
25.613,74.3094,0.006954
25.644,74.3094,0.006954
25.676,74.3094,0.006954
25.706,74.3094,0.006954
25.737,74.3094,0.006954
25.768,74.3094,0.006954
25.799,74.3094,0.006954
25.831,74.3094,0.006888
25.862,74.3094,0.006888
25.893,74.3094,0.006888
25.924,74.3094,0.006888
25.956,74.3094,0.006888
25.986,74.3094,0.006888
26.017,74.3094,0.006888
26.048,74.3094,0.006888
26.080,74.3094,0.006813
26.111,74.3094,0.006813
26.142,74.3094,0.006813
26.174,74.3094,0.006813
26.205,74.3094,0.006813
26.236,74.3094,0.006813
26.267,74.3095,0.006813
26.298,74.3101,0.006813
26.329,74.3115,0.006719
26.359,74.3136,0.006719
26.390,74.3165,0.006719
26.421,74.3201,0.006719
26.452,74.3243,0.006719
26.483,74.3292,0.006719
26.514,74.3349,0.006719
26.545,74.3414,0.006597
26.575,74.3485,0.006597
26.607,74.3566,0.006597
26.639,74.3654,0.006597
26.670,74.3750,0.006597
26.702,74.3854,0.006597
26.733,74.3962,0.006597
26.764,74.4077,0.006597
26.795,74.4203,0.006521
26.826,74.4334,0.006521
26.857,74.4469,0.006521
26.887,74.4611,0.006521
26.918,74.4761,0.006521
26.948,74.4918,0.006521
26.980,74.5086,0.006521
27.012,74.5268,0.006521
27.043,74.5448,0.006427
27.074,74.5636,0.006427
27.105,74.5836,0.006427
27.138,74.6052,0.006427
27.167,74.6249,0.006427
27.200,74.6480,0.006427
27.229,74.6693,0.006427
27.260,74.6931,0.006427
27.292,74.7173,0.006352
27.322,74.7416,0.006352
27.353,74.7660,0.006352
27.384,74.7931,0.006352
27.415,74.8190,0.006352
27.448,74.8489,0.006352
27.477,74.8756,0.006352
27.510,74.9061,0.006352
27.540,74.9352,0.006352
27.571,74.9670,0.006258
27.606,75.0017,0.006258
27.633,75.0293,0.006258
27.664,75.0620,0.006258
27.694,75.0947,0.006258
27.731,75.1356,0.006258
27.772,75.1813,0.006258
27.803,75.2184,0.006258
27.834,75.2542,0.006258
27.864,75.2909,0.006107
27.896,75.3301,0.006107
27.927,75.3692,0.006107
27.957,75.4071,0.006107
27.987,75.4463,0.006107
28.019,75.4895,0.006107
28.050,75.5308,0.006107
28.084,75.5763,0.005966
28.113,75.6177,0.005966
28.144,75.6617,0.005966
28.175,75.7061,0.005966
28.206,75.7515,0.005966
28.237,75.7972,0.005966
28.268,75.8462,0.005966
28.299,75.8916,0.005806
28.330,75.9407,0.005806
28.361,75.9904,0.005806
28.391,76.0378,0.005806
28.421,76.0880,0.005806
28.453,76.1398,0.005806
28.484,76.1919,0.005806
28.515,76.2433,0.005806
28.545,76.2960,0.005806
28.576,76.3490,0.005552
28.607,76.4045,0.005552
28.638,76.4597,0.005552
28.670,76.5187,0.005552
28.701,76.5753,0.005552
28.732,76.6325,0.005552
28.763,76.6904,0.005552
28.793,76.7500,0.005552
28.825,76.8121,0.005204
28.862,76.8821,0.005204
28.887,76.9306,0.005204
28.919,76.9902,0.005204
28.949,77.0470,0.005204
28.981,77.1052,0.005204
29.011,77.1607,0.005204
29.042,77.2151,0.005204
29.073,77.2691,0.004978
29.105,77.3253,0.004978
29.134,77.3766,0.004978
29.166,77.4308,0.004978
29.196,77.4804,0.004978
29.229,77.5347,0.004978
29.259,77.5836,0.004978
29.290,77.6352,0.004978
29.320,77.6813,0.004752
29.351,77.7304,0.004752
29.384,77.7802,0.004752
29.413,77.8242,0.004752
29.446,77.8741,0.004752
29.474,77.9147,0.004752
29.505,77.9595,0.004752
29.537,78.0037,0.004752
29.567,78.0456,0.004291
29.598,78.0891,0.004291
29.629,78.1303,0.004291
29.661,78.1716,0.004291
29.692,78.2119,0.004291
29.722,78.2518,0.004291
29.754,78.2904,0.004291
29.785,78.3299,0.004291
29.815,78.3654,0.003482
29.851,78.4089,0.003482
29.878,78.4396,0.003482
29.909,78.4745,0.003482
29.942,78.5112,0.003482
29.971,78.5427,0.003482
30.001,78.5757,0.003482
30.032,78.6070,0.003482
30.065,78.6412,0.002014
30.095,78.6707,0.002014
30.125,78.6999,0.002014
30.157,78.7303,0.002014
30.191,78.7612,0.002014
30.219,78.7866,0.002014
30.249,78.8133,0.002014
30.280,78.8395,-0.000753
30.311,78.8654,-0.000753
30.342,78.8907,-0.000753
30.378,78.9188,-0.000753
30.420,78.9500,-0.000753
30.450,78.9719,-0.000753
30.481,78.9936,-0.000753
30.512,79.0150,-0.000753
30.543,79.0352,-0.006013
30.574,79.0548,-0.006013
30.605,79.0740,-0.006013
30.637,79.0927,-0.006013
30.668,79.1096,-0.006013
30.699,79.1265,-0.006013
30.730,79.1427,-0.006013
30.761,79.1576,-0.006013
30.791,79.1721,-0.006013
30.823,79.1857,-0.013956
30.854,79.1988,-0.013956
30.884,79.2108,-0.013956
30.915,79.2225,-0.013956
30.946,79.2337,-0.013956
30.977,79.2435,-0.013956
31.008,79.2531,-0.013956
31.040,79.2619,-0.013956
31.071,79.2700,-0.022124
31.102,79.2770,-0.022124
31.133,79.2836,-0.022124
31.163,79.2892,-0.022124
31.194,79.2943,-0.022124
31.225,79.2986,-0.022124
31.256,79.3022,-0.022124
31.288,79.3052,-0.022124
31.318,79.3072,-0.027469
31.350,79.3086,-0.027469
31.380,79.3093,-0.027469
31.412,79.3094,-0.027469
31.444,79.3094,-0.027469
31.473,79.3094,-0.027469
31.504,79.3094,-0.027469
31.536,79.3094,-0.027469
31.567,79.3094,-0.028250
31.598,79.3094,-0.028250
31.628,79.3094,-0.028250
31.659,79.3094,-0.028250
31.691,79.3094,-0.028250
31.721,79.3094,-0.028250
31.752,79.3094,-0.028250
31.783,79.3094,-0.028250
31.814,79.3094,-0.025944
31.845,79.3094,-0.025944
31.876,79.3094,-0.025944
31.908,79.3094,-0.025944
31.939,79.3094,-0.025944
31.970,79.3094,-0.025944
32.002,79.3094,-0.025944
32.032,79.3094,-0.025944
32.063,79.3094,-0.023639
32.094,79.3094,-0.023639
32.126,79.3094,-0.023639
32.157,79.3094,-0.023639
32.187,79.3094,-0.023639
32.218,79.3094,-0.023639
32.249,79.3094,-0.023639
32.281,79.3094,-0.023639
32.311,79.3094,-0.022039
32.343,79.3094,-0.022039
32.374,79.3094,-0.022039
32.405,79.3094,-0.022039
32.437,79.3094,-0.022039
32.468,79.3094,-0.022039
32.499,79.3094,-0.022039
32.530,79.3094,-0.022039
32.561,79.3094,-0.020731
32.592,79.3094,-0.020731
32.622,79.3094,-0.020731
32.653,79.3094,-0.020731
32.683,79.3094,-0.020731
32.714,79.3094,-0.020731
32.745,79.3094,-0.020731
32.776,79.3094,-0.020731
32.807,79.3094,-0.019630
32.838,79.3094,-0.019630
32.869,79.3094,-0.019630
32.901,79.3094,-0.019630
32.931,79.3094,-0.019630
32.964,79.3094,-0.019630
32.994,79.3094,-0.019630
33.025,79.3094,-0.019630
33.056,79.3094,-0.018755
33.087,79.3094,-0.018755
33.118,79.3094,-0.018755
33.154,79.3094,-0.018755
33.180,79.3094,-0.018755
33.211,79.3094,-0.018755
33.242,79.3094,-0.018755
33.273,79.3094,-0.018755
33.303,79.3094,-0.018755
33.335,79.3094,-0.018059
33.365,79.3094,-0.018059
33.397,79.3094,-0.018059
33.427,79.3094,-0.018059
33.458,79.3094,-0.018059
33.489,79.3094,-0.018059
33.519,79.3094,-0.018059
33.550,79.3094,-0.017475
33.581,79.3094,-0.017475
33.612,79.3094,-0.017475
33.643,79.3094,-0.017475
33.674,79.3094,-0.017475
33.705,79.3094,-0.017475
33.737,79.3094,-0.017475
33.766,79.3094,-0.017475
33.797,79.3094,-0.017475
33.829,79.3094,-0.016948
33.859,79.3094,-0.016948
33.891,79.3094,-0.016948
33.921,79.3094,-0.016948
33.952,79.3094,-0.016948
33.983,79.3094,-0.016948
34.015,79.3094,-0.016948
34.046,79.3094,-0.016478
34.078,79.3094,-0.016478
34.108,79.3094,-0.016478
34.139,79.3094,-0.016478
34.170,79.3094,-0.016478
34.201,79.3094,-0.016478
34.232,79.3094,-0.016478
34.264,79.3094,-0.016478
34.295,79.3094,-0.016478
34.325,79.3094,-0.016016
34.358,79.3094,-0.016016
34.388,79.3094,-0.016016
34.418,79.3094,-0.016016
34.451,79.3094,-0.016016
34.482,79.3094,-0.016016
34.513,79.3094,-0.016016
34.545,79.3094,-0.016016
34.576,79.3094,-0.015631
34.605,79.3094,-0.015631
34.636,79.3094,-0.015631
34.673,79.3094,-0.015631
34.699,79.3094,-0.015631
34.730,79.3094,-0.015631
34.761,79.3094,-0.015631
34.791,79.3094,-0.015631
34.822,79.3094,-0.015320
34.853,79.3094,-0.015320
34.884,79.3094,-0.015320
34.914,79.3094,-0.015320
34.945,79.3094,-0.015320
34.976,79.3094,-0.015320
35.006,79.3094,-0.015320
35.037,79.3094,-0.015320
35.068,79.3094,-0.015320
35.099,79.3094,-0.014991
35.130,79.3094,-0.014991
35.160,79.3094,-0.014991
35.192,79.3094,-0.014991
35.224,79.3094,-0.014991
35.255,79.3094,-0.014991
35.286,79.3094,-0.014991
35.317,79.3094,-0.014633
35.348,79.3094,-0.014633
35.379,79.3094,-0.014633
35.410,79.3094,-0.014633
35.441,79.3094,-0.014633
35.472,79.3094,-0.014633
35.504,79.3094,-0.014633
35.534,79.3094,-0.014633
35.565,79.3094,-0.014633
35.595,79.3094,-0.014379
35.625,79.3094,-0.014379
35.656,79.3094,-0.014379
35.688,79.3094,-0.014379
35.720,79.3094,-0.014379
35.752,79.3094,-0.014379
35.784,79.3094,-0.014379
35.814,79.3094,-0.014229
35.847,79.3094,-0.014229
35.877,79.3094,-0.014229
35.908,79.3094,-0.014229
35.941,79.3094,-0.014229
35.970,79.3094,-0.014229
36.001,79.3094,-0.014229
36.032,79.3094,-0.014003
36.063,79.3094,-0.014003
36.094,79.3094,-0.014003
36.127,79.3094,-0.014003
36.156,79.3094,-0.014003
36.188,79.3094,-0.014003
36.218,79.3094,-0.014003
36.249,79.3094,-0.014003
36.280,79.3094,-0.014003
36.310,79.3094,-0.013702
36.341,79.3094,-0.013702
36.372,79.3094,-0.013702
36.403,79.3094,-0.013702
36.435,79.3094,-0.013702
36.466,79.3094,-0.013702
36.497,79.3094,-0.013702
36.529,79.3094,-0.013702
36.560,79.3094,-0.013391
36.590,79.3094,-0.013391
36.621,79.3094,-0.013391
36.652,79.3094,-0.013391
36.683,79.3094,-0.013391
36.714,79.3094,-0.013391
36.745,79.3094,-0.013391
36.776,79.3094,-0.013391
36.807,79.3091,-0.013391
36.838,79.3082,-0.013156
36.870,79.3063,-0.013156
36.901,79.3038,-0.013156
36.932,79.3006,-0.013156
36.964,79.2966,-0.013156
36.995,79.2918,-0.013156
37.026,79.2863,-0.013156
37.056,79.2802,-0.013156
37.088,79.2731,-0.012299
37.119,79.2655,-0.012299
37.150,79.2575,-0.012299
37.180,79.2484,-0.012299
37.211,79.2388,-0.012299
37.242,79.2282,-0.012299
37.273,79.2172,-0.012299
37.305,79.2050,-0.012299
37.334,79.1928,-0.007679
37.367,79.1787,-0.007679
37.397,79.1650,-0.007679
37.431,79.1484,-0.007679
37.459,79.1344,-0.007679
37.490,79.1185,-0.007679
37.520,79.1017,-0.007679
37.557,79.0801,-0.007679
37.598,79.0560,0.001223
37.629,79.0365,0.001223
37.659,79.0163,0.001223
37.691,78.9949,0.001223
37.723,78.9729,0.001223
37.753,78.9507,0.001223
37.784,78.9278,0.001223
37.815,78.9035,0.010803
37.846,78.8787,0.010803
37.877,78.8532,0.010803
37.908,78.8266,0.010803
37.939,78.7999,0.010803
37.971,78.7724,0.010803
38.002,78.7435,0.010803
38.034,78.7138,0.010803
38.066,78.6827,0.017833
38.098,78.6513,0.017833
38.128,78.6214,0.017833
38.159,78.5893,0.017833
38.189,78.5571,0.017833
38.220,78.5236,0.017833
38.251,78.4901,0.017833
38.281,78.4551,0.017833
38.312,78.4201,0.022312
38.343,78.3828,0.022312
38.374,78.3473,0.022312
38.404,78.3091,0.022312
38.436,78.2709,0.022312
38.466,78.2321,0.022312
38.497,78.1928,0.022312
38.528,78.1514,0.022312
38.560,78.1100,0.027845
38.590,78.0680,0.027845
38.621,78.0248,0.027845
38.653,77.9805,0.027845
38.684,77.9361,0.027845
38.713,77.8937,0.027845
38.744,77.8485,0.027845
38.775,77.8021,0.027845
38.807,77.7543,0.035769
38.837,77.7061,0.035769
38.869,77.6570,0.035769
38.899,77.6080,0.035769
38.930,77.5589,0.035769
38.961,77.5068,0.035769
38.993,77.4559,0.035769
39.024,77.4010,0.035769
39.054,77.3493,0.042394
39.085,77.2969,0.042394
39.116,77.2432,0.042394
39.146,77.1890,0.042394
39.178,77.1322,0.042394
39.208,77.0756,0.042394
39.240,77.0158,0.042394
39.273,76.9564,0.042394
39.304,76.8983,0.028410
39.331,76.8460,0.028410
39.366,76.7776,0.028410
39.397,76.7171,0.028410
39.428,76.6563,0.028410
39.458,76.5996,0.028410
39.489,76.5429,0.028410
39.520,76.4848,0.028410
39.552,76.4278,0.010587
39.582,76.3736,0.010587
39.615,76.3140,0.010587
39.644,76.2625,0.010587
39.674,76.2105,0.010587
39.705,76.1583,0.010587
39.736,76.1052,0.010587
39.767,76.0545,0.010587
39.798,76.0033,0.010587
39.829,75.9544,0.008667
39.861,75.9037,0.008667
39.891,75.8563,0.008667
39.922,75.8082,0.008667
39.952,75.7622,0.008667
39.983,75.7158,0.008667
40.015,75.6698,0.008667
40.046,75.6235,0.008168
40.077,75.5801,0.008168
40.109,75.5351,0.008168
40.140,75.4929,0.008168
40.171,75.4510,0.008168
40.201,75.4105,0.008168
40.231,75.3709,0.008168
40.263,75.3294,0.008168
40.294,75.2914,0.008168
40.324,75.2539,0.008168
40.356,75.2153,0.007829
40.387,75.1785,0.007829
40.417,75.1428,0.007829
40.448,75.1077,0.007829
40.479,75.0725,0.007829
40.510,75.0390,0.007829
40.541,75.0058,0.007829
40.572,74.9729,0.007622
40.604,74.9405,0.007622
40.634,74.9103,0.007622
40.665,74.8790,0.007622
40.696,74.8500,0.007622
40.726,74.8214,0.007622
40.757,74.7935,0.007622
40.789,74.7653,0.007622
40.819,74.7388,0.007500
40.850,74.7127,0.007500
40.881,74.6879,0.007500
40.912,74.6629,0.007500
40.943,74.6392,0.007500
40.975,74.6154,0.007500
41.006,74.5932,0.007500
41.037,74.5714,0.007500
41.067,74.5514,0.007350
41.097,74.5310,0.007350
41.128,74.5118,0.007350
41.159,74.4933,0.007350
41.190,74.4752,0.007350
41.221,74.4573,0.007350
41.252,74.4413,0.007350
41.282,74.4257,0.007350
41.313,74.4105,0.007218
41.344,74.3962,0.007218
41.374,74.3823,0.007218
41.405,74.3697,0.007218
41.437,74.3573,0.007218
41.469,74.3452,0.007218
41.499,74.3347,0.007218
41.530,74.3245,0.007218
41.562,74.3150,0.007105
41.595,74.3054,0.007105
41.624,74.2983,0.007105
41.655,74.2913,0.007105
41.686,74.2848,0.007105
41.717,74.2790,0.007105
41.747,74.2742,0.007105
41.779,74.2697,0.007105
41.810,74.2662,0.006954
41.841,74.2634,0.006954
41.872,74.2614,0.006954
41.905,74.2599,0.006954
41.934,74.2593,0.006954
41.966,74.2593,0.006954
41.997,74.2593,0.006954
42.028,74.2593,0.006954
42.059,74.2593,0.006879
42.089,74.2593,0.006879
42.121,74.2593,0.006879
42.152,74.2593,0.006879
42.183,74.2593,0.006879
42.214,74.2593,0.006879
42.246,74.2593,0.006879
42.278,74.2593,0.006879
42.308,74.2593,0.006907
42.339,74.2593,0.006907
42.371,74.2593,0.006907
42.403,74.2593,0.006907
42.437,74.2593,0.006907
42.465,74.2593,0.006907
42.494,74.2593,0.006907
42.525,74.2593,0.006907
42.556,74.2593,0.006879
42.587,74.2593,0.006879
42.618,74.2595,0.006879
42.648,74.2604,0.006879
42.680,74.2621,0.006879
42.711,74.2645,0.006879
42.745,74.2680,0.006879
42.774,74.2716,0.006879
42.805,74.2763,0.006879
42.839,74.2820,0.006757
42.866,74.2874,0.006757
42.905,74.2959,0.006757
42.945,74.3060,0.006757
42.975,74.3141,0.006757
43.006,74.3234,0.006757
43.037,74.3338,0.006757
43.068,74.3444,0.006757
43.099,74.3560,0.006644
43.129,74.3677,0.006644
43.160,74.3807,0.006644
43.191,74.3942,0.006644
43.225,74.4105,0.006644
43.253,74.4237,0.006644
43.284,74.4397,0.006644
43.315,74.4560,0.006568
43.346,74.4736,0.006568
43.377,74.4912,0.006568
43.407,74.5094,0.006568
43.439,74.5293,0.006568
43.470,74.5496,0.006568
43.501,74.5711,0.006568
43.531,74.5918,0.006568
43.563,74.6147,0.006456
43.594,74.6379,0.006456
43.626,74.6621,0.006456
43.658,74.6875,0.006456
43.688,74.7128,0.006456
43.718,74.7378,0.006456
43.749,74.7641,0.006456
43.779,74.7906,0.006456
43.810,74.8188,0.006314
43.841,74.8476,0.006314
43.872,74.8772,0.006314
43.902,74.9078,0.006314
43.934,74.9386,0.006314
43.965,74.9706,0.006314
43.996,75.0030,0.006314
44.027,75.0369,0.006314
44.058,75.0714,0.006201
44.089,75.1055,0.006201
44.120,75.1413,0.006201
44.152,75.1778,0.006201
44.183,75.2144,0.006201
44.214,75.2531,0.006201
44.245,75.2908,0.006201
44.276,75.3308,0.006201
44.307,75.3700,0.006051
44.339,75.4118,0.006051
44.370,75.4529,0.006051
44.400,75.4943,0.006051
44.431,75.5371,0.006051
44.463,75.5817,0.006051
44.494,75.6264,0.006051
44.529,75.6759,0.006051
44.556,75.7168,0.006051
44.588,75.7639,0.005881
44.619,75.8121,0.005881
44.654,75.8667,0.005881
44.680,75.9057,0.005881
44.711,75.9563,0.005881
44.742,76.0058,0.005881
44.773,76.0568,0.005881
44.804,76.1096,0.005627
44.835,76.1616,0.005627
44.868,76.2172,0.005627
44.896,76.2660,0.005627
44.927,76.3218,0.005627
44.959,76.3752,0.005627
44.990,76.4335,0.005627
45.020,76.4866,0.005627
45.051,76.5458,0.005307
45.083,76.6039,0.005307
45.114,76.6627,0.005307
45.145,76.7229,0.005307
45.177,76.7835,0.005307
45.208,76.8438,0.005307
45.241,76.9082,0.005307
45.269,76.9609,0.005307
45.300,77.0174,0.005307
45.332,77.0747,0.005072
45.364,77.1334,0.005072
45.395,77.1888,0.005072
45.426,77.2435,0.005072
45.457,77.2967,0.005072
45.489,77.3514,0.005072
45.520,77.4034,0.005072
45.550,77.4536,0.005072
45.581,77.5052,0.004809
45.612,77.5564,0.004809
45.644,77.6067,0.004809
45.676,77.6563,0.004809
45.706,77.7024,0.004809
45.738,77.7514,0.004809
45.768,77.7966,0.004809
45.800,77.8438,0.004809
45.830,77.8875,0.004809
45.862,77.9330,0.004432
45.893,77.9769,0.004432
45.923,78.0184,0.004432
45.956,78.0633,0.004432
45.984,78.1013,0.004432
46.017,78.1438,0.004432
46.046,78.1814,0.004432
46.077,78.2206,0.003858
46.108,78.2589,0.003858
46.139,78.2960,0.003858
46.170,78.3339,0.003858
46.206,78.3767,0.003858
46.232,78.4053,0.003858
46.262,78.4394,0.003858
46.294,78.4763,0.003858
46.325,78.5080,0.002738
46.356,78.5403,0.002738
46.387,78.5724,0.002738
46.419,78.6043,0.002738
46.451,78.6363,0.002738
46.482,78.6657,0.002738
46.513,78.6946,0.002738
46.544,78.7230,0.000405
46.574,78.7507,0.000405
46.606,78.7772,0.000405
46.637,78.8041,0.000405
46.668,78.8290,0.000405
46.699,78.8539,0.000405
46.735,78.8813,0.000405
46.761,78.9011,0.000405
46.793,78.9241,0.000405
46.823,78.9451,-0.003858
46.854,78.9663,-0.003858
46.887,78.9880,-0.003858
46.916,79.0058,-0.003858
46.947,79.0246,-0.003858
46.977,79.0425,-0.003858
47.007,79.0596,-0.003858
47.039,79.0765,-0.003858
47.070,79.0924,-0.010577
47.102,79.1079,-0.010577
47.133,79.1226,-0.010577
47.163,79.1361,-0.010577
47.195,79.1496,-0.010577
47.226,79.1617,-0.010577
47.257,79.1732,-0.010577
47.288,79.1840,-0.010577
47.318,79.1937,-0.018840
47.348,79.2032,-0.018840
47.380,79.2118,-0.018840
47.411,79.2200,-0.018840
47.443,79.2270,-0.018840
47.474,79.2337,-0.018840
47.507,79.2399,-0.018840
47.537,79.2445,-0.025596
47.567,79.2487,-0.025596
47.600,79.2525,-0.025596
47.629,79.2551,-0.025596
47.664,79.2574,-0.025596
47.690,79.2585,-0.025596
47.725,79.2593,-0.025596
47.753,79.2593,-0.025596
47.784,79.2593,-0.025596
47.815,79.2593,-0.028203
47.846,79.2593,-0.028203
47.877,79.2593,-0.028203
47.907,79.2593,-0.028203
47.939,79.2593,-0.028203
47.970,79.2593,-0.028203
48.002,79.2593,-0.028203
48.033,79.2593,-0.028203
48.064,79.2593,-0.026744
48.095,79.2593,-0.026744
48.126,79.2593,-0.026744
48.157,79.2593,-0.026744
48.187,79.2593,-0.026744
48.219,79.2593,-0.026744
48.249,79.2593,-0.026744
48.280,79.2593,-0.024213
48.310,79.2593,-0.024213
48.341,79.2593,-0.024213
48.371,79.2593,-0.024213
48.402,79.2593,-0.024213
48.433,79.2593,-0.024213
48.464,79.2593,-0.024213
48.495,79.2593,-0.024213
48.527,79.2593,-0.024213
48.558,79.2593,-0.024213
48.589,79.2593,-0.022397
48.619,79.2593,-0.022397
48.658,79.2593,-0.022397
48.697,79.2593,-0.022397
48.729,79.2593,-0.022397
48.759,79.2593,-0.022397
48.791,79.2593,-0.022397
48.821,79.2593,-0.020985
48.852,79.2593,-0.020985
48.882,79.2593,-0.020985
48.913,79.2593,-0.020985
48.944,79.2593,-0.020985
48.974,79.2593,-0.020985
49.005,79.2593,-0.020985
49.037,79.2593,-0.020985
49.067,79.2593,-0.020985
49.099,79.2593,-0.019875
49.129,79.2593,-0.019875
49.161,79.2593,-0.019875
49.193,79.2593,-0.019875
49.225,79.2593,-0.019875
49.256,79.2593,-0.019875
49.288,79.2593,-0.019875
49.318,79.2593,-0.019875
49.349,79.2593,-0.018905
49.381,79.2593,-0.018905
49.413,79.2593,-0.018905
49.444,79.2593,-0.018905
49.476,79.2593,-0.018905
49.507,79.2593,-0.018905
49.538,79.2593,-0.018905
49.569,79.2593,-0.018905
49.600,79.2593,-0.018143
49.630,79.2593,-0.018143
49.661,79.2593,-0.018143
49.692,79.2593,-0.018143
49.722,79.2593,-0.018143
49.754,79.2593,-0.018143
49.786,79.2593,-0.018143
49.816,79.2593,-0.017550
49.847,79.2593,-0.017550
49.878,79.2593,-0.017550
49.909,79.2593,-0.017550
49.940,79.2593,-0.017550
49.971,79.2593,-0.017550
50.004,79.2593,-0.017550
50.032,79.2593,-0.017550
50.064,79.2593,-0.017550
50.095,79.2593,-0.016958
50.126,79.2593,-0.016958
50.159,79.2593,-0.016958
50.188,79.2593,-0.016958
50.219,79.2593,-0.016958
50.251,79.2593,-0.016958
50.282,79.2593,-0.016449
50.313,79.2593,-0.016449
50.344,79.2593,-0.016449
50.375,79.2593,-0.016449
50.407,79.2593,-0.016449
50.438,79.2593,-0.016449
50.469,79.2593,-0.016449
50.500,79.2593,-0.016449
50.531,79.2593,-0.016449
50.562,79.2593,-0.016045
50.593,79.2593,-0.016045
50.625,79.2593,-0.016045
50.655,79.2593,-0.016045
50.686,79.2593,-0.016045
50.717,79.2593,-0.016045
50.750,79.2593,-0.016045
50.780,79.2593,-0.016045
50.811,79.2593,-0.015715
50.841,79.2593,-0.015715
50.875,79.2593,-0.015715
50.903,79.2593,-0.015715
50.935,79.2593,-0.015715
50.966,79.2593,-0.015715
50.996,79.2593,-0.015715
51.027,79.2593,-0.015715
51.058,79.2593,-0.015339
51.089,79.2593,-0.015339
51.120,79.2593,-0.015339
51.152,79.2593,-0.015339
51.182,79.2593,-0.015339
51.213,79.2593,-0.015339
51.246,79.2593,-0.015339
51.276,79.2593,-0.015339
51.308,79.2593,-0.015339
51.339,79.2593,-0.014934
51.370,79.2593,-0.014934
51.401,79.2593,-0.014934
51.433,79.2593,-0.014934
51.463,79.2593,-0.014934
51.495,79.2593,-0.014934
51.527,79.2593,-0.014934
51.559,79.2593,-0.014596
51.589,79.2593,-0.014596
51.619,79.2593,-0.014596
51.650,79.2593,-0.014596
51.681,79.2593,-0.014596
51.711,79.2593,-0.014596
51.742,79.2593,-0.014596
51.774,79.2593,-0.014596
51.805,79.2593,-0.014351
51.837,79.2593,-0.014351
51.869,79.2593,-0.014351
51.902,79.2593,-0.014351
51.932,79.2593,-0.014351
51.962,79.2593,-0.014351
51.994,79.2593,-0.014351
52.025,79.2593,-0.014351
52.057,79.2593,-0.014191
52.087,79.2593,-0.014191
52.119,79.2593,-0.014191
52.150,79.2593,-0.014191
52.183,79.2593,-0.014191
52.214,79.2593,-0.014191
52.245,79.2593,-0.014191
52.276,79.2593,-0.013974
52.307,79.2593,-0.013974
52.338,79.2593,-0.013974
52.368,79.2593,-0.013974
52.399,79.2593,-0.013974
52.430,79.2593,-0.013974
52.461,79.2593,-0.013974
52.492,79.2593,-0.013974
52.522,79.2593,-0.013974
52.553,79.2593,-0.013673
52.584,79.2593,-0.013673
52.615,79.2593,-0.013673
52.646,79.2593,-0.013673
52.677,79.2593,-0.013673
52.707,79.2593,-0.013673
52.735,79.2593,-0.013673
52.770,79.2593,-0.013673
52.800,79.2593,-0.013673
52.831,79.2593,-0.013419
52.862,79.2593,-0.013419
52.896,79.2593,-0.013419
52.925,79.2593,-0.013419
52.956,79.2593,-0.013419
52.986,79.2593,-0.013419
53.017,79.2593,-0.013419
53.047,79.2593,-0.013193
53.078,79.2593,-0.013193
53.111,79.2593,-0.013193
53.141,79.2593,-0.013193
53.172,79.2593,-0.013193
53.204,79.2593,-0.013193
53.235,79.2593,-0.013193
53.267,79.2593,-0.013193
53.298,79.2593,-0.012986
53.329,79.2593,-0.012986
53.359,79.2593,-0.012986
53.391,79.2593,-0.012986
53.422,79.2593,-0.012986
53.455,79.2589,-0.012986
53.485,79.2579,-0.012986
53.516,79.2561,-0.012986
53.547,79.2537,-0.012817
53.578,79.2505,-0.012817
53.608,79.2466,-0.012817
53.638,79.2420,-0.012817
53.669,79.2367,-0.012817
53.700,79.2306,-0.012817
53.731,79.2239,-0.012817
53.762,79.2164,-0.012817
53.793,79.2082,-0.012817
53.824,79.1988,-0.010794
53.856,79.1891,-0.010794
53.887,79.1788,-0.010794
53.918,79.1674,-0.010794
53.951,79.1547,-0.010794
53.981,79.1423,-0.010794
54.013,79.1283,-0.010794
54.044,79.1146,-0.004178
54.074,79.0995,-0.004178
54.105,79.0843,-0.004178
54.136,79.0682,-0.004178
54.166,79.0512,-0.004178
54.200,79.0322,-0.004178
54.228,79.0153,-0.004178
54.260,78.9956,-0.004178
54.291,78.9755,0.005627
54.323,78.9542,0.005627
54.353,78.9335,0.005627
54.384,78.9113,0.005627
54.415,78.8883,0.005627
54.447,78.8640,0.005627
54.476,78.8412,0.005627
54.508,78.8158,0.005627
54.538,78.7906,0.005627
54.571,78.7623,0.005627
54.601,78.7360,0.014436
54.632,78.7080,0.014436
54.663,78.6796,0.014436
54.694,78.6503,0.014436
54.724,78.6203,0.014436
54.755,78.5903,0.014436
54.785,78.5595,0.014436
54.817,78.5263,0.020025
54.847,78.4939,0.020025
54.879,78.4598,0.020025
54.910,78.4246,0.020025
54.941,78.3899,0.020025
54.973,78.3523,0.020025
55.003,78.3175,0.020025
55.035,78.2776,0.020025
55.063,78.2437,0.024514
55.095,78.2035,0.024514
55.126,78.1639,0.024514
55.156,78.1253,0.024514
55.187,78.0839,0.024514
55.219,78.0421,0.024514
55.250,78.0000,0.024514
55.281,77.9552,0.024514
55.312,77.9119,0.031280
55.344,77.8659,0.031280
55.374,77.8215,0.031280
55.405,77.7751,0.031280
55.436,77.7293,0.031280
55.467,77.6810,0.031280
55.497,77.6345,0.031280
55.529,77.5839,0.031280
55.559,77.5361,0.039241
55.591,77.4830,0.039241
55.621,77.4343,0.039241
55.652,77.3811,0.039241
55.684,77.3290,0.039241
55.716,77.2719,0.039241
55.746,77.2206,0.039241
55.777,77.1654,0.039241
55.808,77.1102,0.042328
55.839,77.0550,0.042328
55.870,76.9966,0.042328
55.901,76.9398,0.042328
55.931,76.8832,0.042328
55.962,76.8241,0.042328
55.992,76.7653,0.042328
56.024,76.7035,0.042328
56.054,76.6450,0.025756
56.086,76.5855,0.025756
56.116,76.5278,0.025756
56.147,76.4705,0.025756
56.178,76.4138,0.025756
56.209,76.3563,0.025756
56.239,76.3022,0.025756
56.272,76.2453,0.025756
56.302,76.1921,0.009260
56.334,76.1364,0.009260
56.365,76.0835,0.009260
56.398,76.0301,0.009260
56.427,75.9828,0.009260
56.457,75.9320,0.009260
56.489,75.8818,0.009260
56.520,75.8328,0.009260
56.551,75.7835,0.008375
56.582,75.7368,0.008375
56.613,75.6888,0.008375
56.646,75.6416,0.008375
56.675,75.5986,0.008375
56.707,75.5521,0.008375
56.737,75.5092,0.008375
56.768,75.4670,0.008375
56.799,75.4236,0.007933
56.829,75.3844,0.007933
56.859,75.3444,0.007933
56.891,75.3036,0.007933
56.922,75.2628,0.007933
56.953,75.2246,0.007933
56.984,75.1871,0.007933
57.015,75.1496,0.007933
57.046,75.1129,0.007933
57.077,75.0771,0.007641
57.108,75.0412,0.007641
57.139,75.0081,0.007641
57.169,74.9743,0.007641
57.200,74.9417,0.007641
57.231,74.9093,0.007641
57.263,74.8775,0.007641
57.295,74.8444,0.007641
57.324,74.8166,0.007491
57.355,74.7880,0.007491
57.386,74.7592,0.007491
57.416,74.7317,0.007491
57.448,74.7038,0.007491
57.478,74.6780,0.007491
57.510,74.6514,0.007491
57.540,74.6271,0.007491
57.571,74.6031,0.007491
57.603,74.5793,0.007350
57.633,74.5566,0.007350
57.664,74.5344,0.007350
57.696,74.5124,0.007350
57.728,74.4905,0.007350
57.758,74.4719,0.007350
57.789,74.4528,0.007350
57.820,74.4343,0.007208
57.852,74.4163,0.007208
57.882,74.3996,0.007208
57.914,74.3828,0.007208
57.946,74.3672,0.007208
57.976,74.3524,0.007208
58.007,74.3384,0.007208
58.038,74.3249,0.007208
58.071,74.3115,0.007142
58.099,74.3010,0.007142
58.130,74.2898,0.007142
58.161,74.2794,0.007142
58.192,74.2696,0.007142
58.223,74.2606,0.007142
58.254,74.2521,0.007142
58.285,74.2448,0.007142
58.316,74.2378,0.007030
58.346,74.2320,0.007030
58.379,74.2263,0.007030
58.409,74.2220,0.007030
58.440,74.2179,0.007030
58.472,74.2146,0.007030
58.505,74.2120,0.007030
58.533,74.2105,0.007030
58.565,74.2095,0.006917
58.595,74.2093,0.006917
58.626,74.2093,0.006917
58.657,74.2093,0.006917
58.688,74.2093,0.006917
58.718,74.2093,0.006917
58.751,74.2093,0.006917
58.780,74.2093,0.006917
58.810,74.2093,0.006917
58.842,74.2093,0.006870
58.874,74.2093,0.006870
58.904,74.2093,0.006870
58.935,74.2093,0.006870
58.966,74.2093,0.006870
58.997,74.2093,0.006870
59.028,74.2093,0.006870
59.058,74.2093,0.006870
59.088,74.2093,0.006851
59.119,74.2093,0.006851
59.150,74.2093,0.006851
59.183,74.2093,0.006851
59.213,74.2093,0.006851
59.244,74.2093,0.006851
59.275,74.2093,0.006851
59.306,74.2093,0.006794
59.337,74.2093,0.006794
59.368,74.2095,0.006794
59.399,74.2105,0.006794
59.429,74.2123,0.006794
59.461,74.2146,0.006794
59.492,74.2179,0.006794
59.523,74.2217,0.006794
59.554,74.2263,0.006794
59.585,74.2317,0.006700
59.616,74.2378,0.006700
59.646,74.2445,0.006700
59.677,74.2518,0.006700
59.709,74.2605,0.006700
59.740,74.2695,0.006700
59.771,74.2792,0.006700
59.802,74.2894,0.006700
59.833,74.3006,0.006606
59.865,74.3127,0.006606
59.895,74.3251,0.006606
59.929,74.3403,0.006606
59.957,74.3527,0.006606
59.988,74.3674,0.006606
60.019,74.3829,0.006606
60.050,74.3991,0.006606
60.082,74.4167,0.006521
60.113,74.4343,0.006521
60.144,74.4531,0.006521
60.174,74.4720,0.006521
60.206,74.4917,0.006521
60.238,74.5132,0.006521
60.268,74.5339,0.006521
60.299,74.5561,0.006521
60.330,74.5788,0.006521
60.361,74.6027,0.006390
60.391,74.6260,0.006390
60.423,74.6516,0.006390
60.454,74.6772,0.006390
60.485,74.7042,0.006390
60.516,74.7311,0.006390
60.547,74.7590,0.006390
60.579,74.7886,0.006296
60.610,74.8180,0.006296
60.641,74.8483,0.006296
60.673,74.8798,0.006296
60.702,74.9100,0.006296
60.733,74.9427,0.006296
60.764,74.9751,0.006296
60.794,75.0076,0.006296
60.825,75.0420,0.006211
60.856,75.0771,0.006211
60.888,75.1134,0.006211
60.918,75.1491,0.006211
60.948,75.1852,0.006211
60.979,75.2239,0.006211
61.010,75.2623,0.006211
61.040,75.3008,0.006211
61.071,75.3411,0.006070
61.102,75.3827,0.006070
61.133,75.4244,0.006070
61.167,75.4695,0.006070
61.196,75.5099,0.006070
61.226,75.5537,0.006070
61.256,75.5958,0.006070
61.287,75.6423,0.006070
61.318,75.6870,0.005938
61.349,75.7357,0.005938
61.380,75.7827,0.005938
61.411,75.8300,0.005938
61.443,75.8798,0.005938
61.474,75.9301,0.005938
61.505,75.9809,0.005938
61.537,76.0326,0.005938
61.568,76.0853,0.005703
61.600,76.1396,0.005703
61.630,76.1909,0.005703
61.661,76.2463,0.005703
61.692,76.3003,0.005703
61.724,76.3575,0.005703
61.755,76.4128,0.005703
61.786,76.4722,0.005703
61.817,76.5277,0.005458
61.850,76.5899,0.005458
61.880,76.6480,0.005458
61.911,76.7092,0.005458
61.942,76.7672,0.005458
61.974,76.8287,0.005458
62.005,76.8862,0.005458
62.036,76.9453,0.005458
62.067,77.0035,0.005195
62.098,77.0587,0.005195
62.129,77.1139,0.005195
62.160,77.1686,0.005195
62.190,77.2207,0.005195
62.224,77.2800,0.005195
62.252,77.3270,0.005195
62.284,77.3814,0.005195
62.314,77.4308,0.004771
62.345,77.4823,0.004771
62.376,77.5313,0.004771
62.407,77.5800,0.004771
62.442,77.6341,0.004771
62.468,77.6748,0.004771
62.502,77.7260,0.004771
62.530,77.7679,0.004771
62.561,77.8135,0.004348
62.592,77.8582,0.004348
62.623,77.9014,0.004348
62.656,77.9475,0.004348
62.685,77.9874,0.004348
62.716,78.0291,0.004348
62.746,78.0694,0.004348
62.778,78.1098,0.004348
62.808,78.1484,0.003783
62.839,78.1881,0.003783
62.874,78.2309,0.003783
62.902,78.2647,0.003783
62.933,78.3017,0.003783
62.964,78.3378,0.003783
62.995,78.3723,0.003783
63.025,78.4059,0.003783
63.057,78.4407,0.002597
63.087,78.4725,0.002597
63.117,78.5053,0.002597
63.149,78.5367,0.002597
63.180,78.5684,0.002597
63.212,78.5989,0.002597
63.246,78.6316,0.002597
63.277,78.6600,0.002597
63.306,78.6860,0.000358
63.336,78.7125,0.000358
63.367,78.7393,0.000358
63.399,78.7654,0.000358
63.430,78.7905,0.000358
63.461,78.8148,0.000358
63.492,78.8382,0.000358
63.523,78.8612,0.000358
63.554,78.8836,-0.003858
63.585,78.9053,-0.003858
63.616,78.9258,-0.003858
63.647,78.9456,-0.003858
63.677,78.9641,-0.003858
63.708,78.9830,-0.003858
63.739,79.0006,-0.003858
63.771,79.0181,-0.003858
63.802,79.0341,-0.003858
63.834,79.0501,-0.010427
63.866,79.0658,-0.010427
63.895,79.0790,-0.010427
63.926,79.0925,-0.010427
63.957,79.1050,-0.010427
63.988,79.1172,-0.010427
64.019,79.1284,-0.010427
64.051,79.1390,-0.010427
64.081,79.1485,-0.018595
64.112,79.1575,-0.018595
64.143,79.1660,-0.018595
64.175,79.1737,-0.018595
64.206,79.1804,-0.018595
64.237,79.1866,-0.018595
64.268,79.1919,-0.018595
64.299,79.1967,-0.018595
64.330,79.2005,-0.025502
64.361,79.2038,-0.025502
64.392,79.2062,-0.025502
64.424,79.2081,-0.025502
64.455,79.2091,-0.025502
64.486,79.2093,-0.025502
64.517,79.2093,-0.025502
64.548,79.2093,-0.025502
64.580,79.2093,-0.028052
64.611,79.2093,-0.028052
64.642,79.2093,-0.028052
64.674,79.2093,-0.028052
64.706,79.2093,-0.028052
64.737,79.2093,-0.028052
64.767,79.2093,-0.028052
64.797,79.2093,-0.028052
64.829,79.2093,-0.026500
64.860,79.2093,-0.026500
64.891,79.2093,-0.026500
64.923,79.2093,-0.026500
64.954,79.2093,-0.026500
64.985,79.2093,-0.026500
65.016,79.2093,-0.026500
65.047,79.2093,-0.026500
65.078,79.2093,-0.023949
65.108,79.2093,-0.023949
65.139,79.2093,-0.023949
65.170,79.2093,-0.023949
65.201,79.2093,-0.023949
65.232,79.2093,-0.023949
65.262,79.2093,-0.023949
65.293,79.2093,-0.023949
65.323,79.2093,-0.022237
65.356,79.2093,-0.022237
65.385,79.2093,-0.022237
65.416,79.2093,-0.022237
65.447,79.2093,-0.022237
65.478,79.2093,-0.022237
65.509,79.2093,-0.022237
65.545,79.2093,-0.022237
65.586,79.2093,-0.021004
65.616,79.2093,-0.021004
65.649,79.2093,-0.021004
65.678,79.2093,-0.021004
65.709,79.2093,-0.021004
65.740,79.2093,-0.021004
65.771,79.2093,-0.021004
65.802,79.2093,-0.021004
65.833,79.2093,-0.021004
65.864,79.2093,-0.019950
65.895,79.2093,-0.019950
65.929,79.2093,-0.019950
65.956,79.2093,-0.019950
65.987,79.2093,-0.019950
66.017,79.2093,-0.019950
66.052,79.2093,-0.019028
66.079,79.2093,-0.019028
66.109,79.2093,-0.019028
66.140,79.2093,-0.019028
66.171,79.2093,-0.019028
66.202,79.2093,-0.019028
66.232,79.2093,-0.019028
66.264,79.2093,-0.019028
66.298,79.2093,-0.019028
66.326,79.2093,-0.018219
66.357,79.2093,-0.018219
66.388,79.2093,-0.018219
66.420,79.2093,-0.018219
66.452,79.2093,-0.018219
66.482,79.2093,-0.018219
66.515,79.2093,-0.018219
66.545,79.2093,-0.017588
66.575,79.2093,-0.017588
66.606,79.2093,-0.017588
66.637,79.2093,-0.017588
66.669,79.2093,-0.017588
66.702,79.2093,-0.017588
66.730,79.2093,-0.017588
66.762,79.2093,-0.017588
66.793,79.2093,-0.017070
66.825,79.2093,-0.017070
66.857,79.2093,-0.017070
66.887,79.2093,-0.017070
66.920,79.2093,-0.017070
66.949,79.2093,-0.017070
66.980,79.2093,-0.017070
67.011,79.2093,-0.017070
67.043,79.2093,-0.017070
67.073,79.2093,-0.016468
67.103,79.2093,-0.016468
67.135,79.2093,-0.016468
67.165,79.2093,-0.016468
67.196,79.2093,-0.016468
67.227,79.2093,-0.016468
67.258,79.2093,-0.016468
67.290,79.2093,-0.016468
67.321,79.2093,-0.016045
67.351,79.2093,-0.016045
67.383,79.2093,-0.016045
67.413,79.2093,-0.016045
67.445,79.2093,-0.016045
67.474,79.2093,-0.016045
67.505,79.2093,-0.016045
67.537,79.2093,-0.016045
67.567,79.2093,-0.015697
67.598,79.2093,-0.015697
67.629,79.2093,-0.015697
67.661,79.2093,-0.015697
67.691,79.2093,-0.015697
67.722,79.2093,-0.015697
67.755,79.2093,-0.015697
67.784,79.2093,-0.015697
67.815,79.2093,-0.015348
67.846,79.2093,-0.015348
67.877,79.2093,-0.015348
67.908,79.2093,-0.015348
67.939,79.2093,-0.015348
67.970,79.2093,-0.015348
68.001,79.2093,-0.015348
68.031,79.2093,-0.015348
68.069,79.2093,-0.015047
68.109,79.2093,-0.015047
68.141,79.2093,-0.015047
68.172,79.2093,-0.015047
68.206,79.2093,-0.015047
68.233,79.2093,-0.015047
68.266,79.2093,-0.015047
68.296,79.2093,-0.014643
68.328,79.2093,-0.014643
68.358,79.2093,-0.014643
68.390,79.2093,-0.014643
68.421,79.2093,-0.014643
68.453,79.2093,-0.014643
68.483,79.2093,-0.014643
68.515,79.2093,-0.014643
68.545,79.2093,-0.014266
68.577,79.2093,-0.014266
68.608,79.2093,-0.014266
68.638,79.2093,-0.014266
68.670,79.2093,-0.014266
68.703,79.2093,-0.014266
68.734,79.2093,-0.014266
68.764,79.2093,-0.014266
68.794,79.2093,-0.014003
68.826,79.2086,-0.014003
68.857,79.2072,-0.014003
68.888,79.2051,-0.014003
68.920,79.2020,-0.014003
68.949,79.1988,-0.014003
68.980,79.1944,-0.014003
69.011,79.1895,-0.014003
69.041,79.1839,-0.014003
69.074,79.1772,-0.013730
69.104,79.1699,-0.013730
69.134,79.1624,-0.013730
69.166,79.1537,-0.013730
69.198,79.1439,-0.013730
69.229,79.1335,-0.013730
69.258,79.1234,-0.013730
69.289,79.1119,-0.013730
69.319,79.0998,-0.010031
69.351,79.0868,-0.010031
69.383,79.0728,-0.010031
69.416,79.0570,-0.010031
69.444,79.0432,-0.010031
69.477,79.0262,-0.010031
69.505,79.0117,-0.010031
69.536,78.9940,-0.010031
69.566,78.9766,-0.010031
69.597,78.9575,-0.000640
69.628,78.9387,-0.000640
69.659,78.9185,-0.000640
69.690,78.8971,-0.000640
69.721,78.8753,-0.000640
69.752,78.8532,-0.000640
69.783,78.8299,-0.000640
69.814,78.8061,-0.000640
69.846,78.7801,0.010031
69.877,78.7560,0.010031
69.907,78.7300,0.010031
69.939,78.7028,0.010031
69.970,78.6751,0.010031
70.003,78.6451,0.010031
70.032,78.6185,0.010031
70.062,78.5887,0.010031
70.093,78.5587,0.017390
70.123,78.5287,0.017390
70.154,78.4970,0.017390
70.185,78.4637,0.017390
70.216,78.4311,0.017390
70.247,78.3973,0.017390
70.277,78.3631,0.017390
70.308,78.3286,0.017390
70.338,78.2930,0.021983
70.370,78.2540,0.021983
70.401,78.2164,0.021983
70.431,78.1804,0.021983
70.461,78.1421,0.021983
70.493,78.1017,0.021983
70.524,78.0610,0.021983
70.554,78.0207,0.021983
70.585,77.9795,0.027638
70.618,77.9330,0.027638
70.646,77.8944,0.027638
70.677,77.8495,0.027638
70.707,77.8055,0.027638
70.739,77.7592,0.027638
70.769,77.7143,0.027638
70.801,77.6662,0.035759
70.832,77.6191,0.035759
70.863,77.5703,0.035759
70.895,77.5204,0.035759
70.926,77.4691,0.035759
70.957,77.4183,0.035759
70.994,77.3571,0.035759
71.034,77.2890,0.035759
71.065,77.2373,0.035759
71.095,77.1824,0.042450
71.127,77.1273,0.042450
71.158,77.0721,0.042450
71.189,77.0173,0.042450
71.220,76.9591,0.042450
71.250,76.9031,0.042450
71.281,76.8453,0.042450
71.313,76.7860,0.028523
71.344,76.7255,0.028523
71.375,76.6656,0.028523
71.406,76.6052,0.028523
71.437,76.5445,0.028523
71.468,76.4872,0.028523
71.497,76.4318,0.028523
71.528,76.3750,0.028523
71.559,76.3171,0.028523
71.591,76.2613,0.010596
71.624,76.2026,0.010596
71.654,76.1513,0.010596
71.685,76.0977,0.010596
71.716,76.0437,0.010596
71.747,75.9925,0.010596
71.778,75.9419,0.010596
71.809,75.8899,0.008413
71.839,75.8421,0.008413
71.870,75.7938,0.008413
71.901,75.7453,0.008413
71.933,75.6961,0.008413
71.962,75.6513,0.008413
71.993,75.6061,0.008413
72.024,75.5595,0.008413
72.055,75.5158,0.007905
72.086,75.4720,0.007905
72.116,75.4298,0.007905
72.146,75.3875,0.007905
72.176,75.3476,0.007905
72.207,75.3059,0.007905
72.238,75.2662,0.007905
72.269,75.2249,0.007905
72.300,75.1869,0.007905
72.331,75.1483,0.007688
72.362,75.1110,0.007688
72.394,75.0729,0.007688
72.424,75.0383,0.007688
72.454,75.0032,0.007688
72.485,74.9692,0.007688
72.516,74.9350,0.007688
72.548,74.9002,0.007528
72.579,74.8681,0.007528
72.611,74.8355,0.007528
72.642,74.8045,0.007528
72.674,74.7737,0.007528
72.705,74.7438,0.007528
72.736,74.7156,0.007528
72.766,74.6875,0.007528
72.797,74.6607,0.007321
72.828,74.6333,0.007321
72.859,74.6079,0.007321
72.891,74.5817,0.007321
72.921,74.5584,0.007321
72.953,74.5342,0.007321
72.983,74.5115,0.007321
73.014,74.4891,0.007321
73.045,74.4681,0.007237
73.077,74.4467,0.007237
73.107,74.4272,0.007237
73.138,74.4074,0.007237
73.170,74.3885,0.007237
73.199,74.3714,0.007237
73.230,74.3543,0.007237
73.263,74.3370,0.007237
73.292,74.3218,0.007152
73.323,74.3072,0.007152
73.354,74.2926,0.007152
73.385,74.2792,0.007152
73.416,74.2664,0.007152
73.448,74.2541,0.007152
73.478,74.2427,0.007152
73.508,74.2326,0.007152
73.539,74.2227,0.007011
73.570,74.2133,0.007011
73.603,74.2043,0.007011
73.630,74.1975,0.007011
73.662,74.1902,0.007011
73.693,74.1838,0.007011
73.726,74.1779,0.007011
73.756,74.1732,0.007011
73.787,74.1691,0.007011
73.818,74.1656,0.006954
73.850,74.1629,0.006954
73.881,74.1611,0.006954
73.911,74.1598,0.006954
73.942,74.1593,0.006954
73.973,74.1593,0.006954
74.004,74.1593,0.006954
74.035,74.1593,0.006954
74.066,74.1593,0.006898
74.098,74.1593,0.006898
74.129,74.1593,0.006898
74.159,74.1593,0.006898
74.191,74.1593,0.006898
74.222,74.1593,0.006898
74.253,74.1593,0.006898
74.285,74.1593,0.006851
74.317,74.1593,0.006851
74.347,74.1593,0.006851
74.378,74.1593,0.006851
74.412,74.1593,0.006851
74.441,74.1593,0.006851
74.474,74.1593,0.006851
74.502,74.1593,0.006851
74.533,74.1593,0.006851
74.565,74.1599,0.006860
74.595,74.1612,0.006860
74.626,74.1633,0.006860
74.658,74.1660,0.006860
74.688,74.1696,0.006860
74.720,74.1738,0.006860
74.750,74.1787,0.006860
74.781,74.1844,0.006860
74.813,74.1911,0.006710
74.844,74.1980,0.006710
74.880,74.2072,0.006710
74.920,74.2186,0.006710
74.950,74.2282,0.006710
74.983,74.2394,0.006710
75.012,74.2492,0.006710
75.043,74.2613,0.006710
75.073,74.2735,0.006710
75.105,74.2871,0.006503
75.136,74.3013,0.006503
75.167,74.3160,0.006503
75.200,74.3320,0.006503
75.230,74.3480,0.006503
75.260,74.3642,0.006503
75.291,74.3819,0.006503
75.323,74.4012,0.006465
75.354,74.4205,0.006465
75.387,74.4412,0.006465
75.418,74.4617,0.006465
75.449,74.4831,0.006465
75.481,74.5058,0.006465
75.510,74.5273,0.006465
75.543,74.5523,0.006465
75.572,74.5748,0.006390
75.603,74.5997,0.006390
75.633,74.6249,0.006390
75.663,74.6506,0.006390
75.697,74.6793,0.006390
75.727,74.7073,0.006390
75.759,74.7360,0.006390
75.789,74.7646,0.006390
75.819,74.7944,0.006248
75.850,74.8245,0.006248
75.884,74.8602,0.006248
75.912,74.8887,0.006248
75.943,74.9213,0.006248
75.975,74.9557,0.006248
76.009,74.9941,0.006248
76.037,75.0256,0.006248
76.069,75.0627,0.006220
76.098,75.0971,0.006220
76.129,75.1339,0.006220
76.160,75.1727,0.006220
76.191,75.2108,0.006220
76.222,75.2510,0.006220
76.253,75.2904,0.006220
76.284,75.3308,0.006220
76.315,75.3729,0.006070
76.346,75.4157,0.006070
76.377,75.4578,0.006070
76.407,75.5015,0.006070
76.438,75.5461,0.006070
76.470,75.5925,0.006070
76.501,75.6392,0.006070
76.532,75.6853,0.006070
76.563,75.7326,0.005787
76.594,75.7822,0.005787
76.625,75.8309,0.005787
76.656,75.8813,0.005787
76.688,75.9311,0.005787
76.718,75.9821,0.005787
76.748,76.0310,0.005787
76.779,76.0853,0.005787
76.810,76.1384,0.005609
76.841,76.1926,0.005609
76.871,76.2448,0.005609
76.902,76.3000,0.005609
76.934,76.3571,0.005609
76.965,76.4143,0.005609
76.996,76.4726,0.005609
77.027,76.5306,0.005609
77.059,76.5917,0.005298
77.089,76.6490,0.005298
77.119,76.7075,0.005298
77.152,76.7699,0.005298
77.182,76.8278,0.005298
77.213,76.8858,0.005298
77.244,76.9423,0.005298
77.276,77.0008,0.005298
77.308,77.0574,0.005298
77.339,77.1127,0.005016
77.371,77.1678,0.005016
77.401,77.2207,0.005016
77.432,77.2729,0.005016
77.463,77.3250,0.005016
77.493,77.3752,0.005016
77.524,77.4272,0.005016
77.556,77.4762,0.004724
77.586,77.5241,0.004724
77.616,77.5715,0.004724
77.649,77.6238,0.004724
77.678,77.6661,0.004724
77.710,77.7131,0.004724
77.740,77.7591,0.004724
77.772,77.8039,0.004724
77.804,77.8501,0.004253
77.835,77.8933,0.004253
77.866,77.9350,0.004253
77.897,77.9779,0.004253
77.928,78.0187,0.004253
77.960,78.0601,0.004253
77.991,78.0994,0.004253
78.022,78.1392,0.004253
78.053,78.1774,0.003491
78.084,78.2141,0.003491
78.115,78.2515,0.003491
78.146,78.2861,0.003491
78.184,78.3302,0.003491
78.224,78.3743,0.003491
78.255,78.4076,0.003491
78.286,78.4397,0.003491
78.317,78.4720,0.002061
78.348,78.5036,0.002061
78.380,78.5346,0.002061
78.410,78.5634,0.002061
78.441,78.5928,0.002061
78.472,78.6211,0.002061
78.506,78.6523,0.002061
78.534,78.6761,-0.000696
78.566,78.7025,-0.000696
78.597,78.7280,-0.000696
78.628,78.7531,-0.000696
78.660,78.7778,-0.000696
78.691,78.8003,-0.000696
78.721,78.8220,-0.000696
78.752,78.8444,-0.000696
78.783,78.8655,-0.000696
78.814,78.8861,-0.000696
78.847,78.9061,-0.005900
78.877,78.9243,-0.005900
78.907,78.9423,-0.005900
78.938,78.9598,-0.005900
78.969,78.9769,-0.005900
79.000,78.9923,-0.005900
79.032,79.0081,-0.005900
79.063,79.0224,-0.013203
79.094,79.0363,-0.013203
79.126,79.0494,-0.013203
79.157,79.0620,-0.013203
79.187,79.0731,-0.013203
79.219,79.0845,-0.013203
79.251,79.0946,-0.013203
79.282,79.1039,-0.013203
79.312,79.1124,-0.021098
79.344,79.1205,-0.021098
79.374,79.1274,-0.021098
79.406,79.1340,-0.021098
79.438,79.1399,-0.021098
79.468,79.1448,-0.021098
79.500,79.1490,-0.021098
79.530,79.1525,-0.021098
79.561,79.1554,-0.027045
79.592,79.1573,-0.027045
79.623,79.1587,-0.027045
79.654,79.1593,-0.027045
79.685,79.1593,-0.027045
79.716,79.1593,-0.027045
79.747,79.1593,-0.027045
79.778,79.1593,-0.027045
79.808,79.1593,-0.028429
79.839,79.1593,-0.028429
79.870,79.1593,-0.028429
79.901,79.1593,-0.028429
79.932,79.1593,-0.028429
79.963,79.1593,-0.028429
79.993,79.1593,-0.028429
80.025,79.1593,-0.028429
80.056,79.1593,-0.026406
80.087,79.1593,-0.026406
80.119,79.1593,-0.026406
80.149,79.1593,-0.026406
80.181,79.1593,-0.026406
80.212,79.1593,-0.026406
80.244,79.1593,-0.026406
80.273,79.1593,-0.026406
80.305,79.1593,-0.024109
80.336,79.1593,-0.024109
80.366,79.1593,-0.024109
80.397,79.1593,-0.024109
80.428,79.1593,-0.024109
80.458,79.1593,-0.024109
80.489,79.1593,-0.024109
80.520,79.1593,-0.024109
80.550,79.1593,-0.022500
80.581,79.1593,-0.022500
80.612,79.1593,-0.022500
80.643,79.1593,-0.022500
80.675,79.1593,-0.022500
80.706,79.1593,-0.022500
80.737,79.1593,-0.022500
80.768,79.1593,-0.022500
80.799,79.1593,-0.021173
80.830,79.1593,-0.021173
80.861,79.1593,-0.021173
80.893,79.1593,-0.021173
80.924,79.1593,-0.021173
80.957,79.1593,-0.021173
80.987,79.1593,-0.021173
81.017,79.1593,-0.021173
81.048,79.1593,-0.020148
81.080,79.1593,-0.020148
81.112,79.1593,-0.020148
81.142,79.1593,-0.020148
81.174,79.1593,-0.020148
81.205,79.1593,-0.020148
81.235,79.1593,-0.020148
81.266,79.1593,-0.020148
81.297,79.1593,-0.019338
81.327,79.1593,-0.019338
81.358,79.1593,-0.019338
81.389,79.1593,-0.019338
81.421,79.1593,-0.019338
81.452,79.1593,-0.019338
81.483,79.1593,-0.019338
81.514,79.1593,-0.019338
81.545,79.1593,-0.019338
81.577,79.1593,-0.018642
81.607,79.1593,-0.018642
81.638,79.1593,-0.018642
81.669,79.1593,-0.018642
81.700,79.1593,-0.018642
81.731,79.1593,-0.018642
81.761,79.1593,-0.018642
81.792,79.1593,-0.018049
81.824,79.1593,-0.018049
81.854,79.1593,-0.018049
81.884,79.1593,-0.018049
81.915,79.1593,-0.018049
81.946,79.1593,-0.018049
81.978,79.1593,-0.018049
82.009,79.1593,-0.018049
82.040,79.1593,-0.017447
82.073,79.1593,-0.017447
82.102,79.1593,-0.017447
82.133,79.1593,-0.017447
82.167,79.1593,-0.017447
82.195,79.1593,-0.017447
82.228,79.1593,-0.017447
82.256,79.1593,-0.017447
82.287,79.1593,-0.017447
82.319,79.1593,-0.016929
82.350,79.1593,-0.016929
82.380,79.1593,-0.016929
82.411,79.1593,-0.016929
82.442,79.1593,-0.016929
82.476,79.1593,-0.016929
82.504,79.1593,-0.016929
82.535,79.1593,-0.016929
82.566,79.1593,-0.016929
82.596,79.1593,-0.016534
82.628,79.1593,-0.016534
82.660,79.1593,-0.016534
82.690,79.1593,-0.016534
82.720,79.1593,-0.016534
82.751,79.1593,-0.016534
82.783,79.1593,-0.016534
82.814,79.1593,-0.016129
82.845,79.1593,-0.016129
82.877,79.1593,-0.016129
82.907,79.1593,-0.016129
82.939,79.1593,-0.016129
82.969,79.1593,-0.016129
83.000,79.1593,-0.016129
83.031,79.1593,-0.016129
83.062,79.1593,-0.016129
83.093,79.1593,-0.015781
83.124,79.1593,-0.015781
83.155,79.1593,-0.015781
83.186,79.1593,-0.015781
83.216,79.1593,-0.015781
83.246,79.1593,-0.015781
83.277,79.1593,-0.015781
83.309,79.1593,-0.015405
83.339,79.1593,-0.015405
83.371,79.1593,-0.015405
83.402,79.1593,-0.015405
83.433,79.1593,-0.015405
83.464,79.1593,-0.015405
83.495,79.1593,-0.015405
83.526,79.1593,-0.015405
83.556,79.1593,-0.015405
83.587,79.1593,-0.015038
83.618,79.1593,-0.015038
83.649,79.1593,-0.015038
83.681,79.1593,-0.015038
83.710,79.1593,-0.015038
83.741,79.1593,-0.015038
83.773,79.1593,-0.015038
83.804,79.1593,-0.015038
83.835,79.1593,-0.014755
83.869,79.1593,-0.014755
83.898,79.1593,-0.014755
83.929,79.1591,-0.014755
83.960,79.1582,-0.014755
83.991,79.1566,-0.014755
84.021,79.1544,-0.014755
84.052,79.1513,-0.014755
84.083,79.1475,-0.014501
84.114,79.1430,-0.014501
84.145,79.1377,-0.014501
84.177,79.1315,-0.014501
84.208,79.1248,-0.014501
84.234,79.1186,-0.014501
84.270,79.1093,-0.014501
84.303,79.0997,-0.013429
84.332,79.0909,-0.013429
84.366,79.0790,-0.013429
84.394,79.0692,-0.013429
84.424,79.0577,-0.013429
84.456,79.0448,-0.013429
84.487,79.0318,-0.013429
84.517,79.0179,-0.013429
84.549,79.0031,-0.006775
84.579,78.9878,-0.006775
84.610,78.9719,-0.006775
84.641,78.9547,-0.006775
84.672,78.9377,-0.006775
84.702,78.9191,-0.006775
84.736,78.8986,-0.006775
84.765,78.8800,-0.006775
84.790,78.8634,-0.006775
84.825,78.8397,0.004498
84.857,78.8175,0.004498
84.888,78.7951,0.004498
84.918,78.7716,0.004498
84.948,78.7483,0.004498
84.981,78.7214,0.004498
85.010,78.6982,0.004498
85.042,78.6708,0.004498
85.072,78.6447,0.013786
85.102,78.6176,0.013786
85.135,78.5877,0.013786
85.164,78.5603,0.013786
85.195,78.5302,0.013786
85.226,78.5000,0.013786
85.258,78.4678,0.013786
85.290,78.4335,0.013786
85.320,78.4028,0.019404
85.351,78.3690,0.019404
85.382,78.3356,0.019404
85.412,78.3008,0.019404
85.444,78.2649,0.019404
85.475,78.2278,0.019404
85.508,78.1881,0.019404
85.536,78.1537,0.019404
85.567,78.1150,0.019404
85.600,78.0723,0.023968
85.629,78.0358,0.023968
85.660,77.9950,0.023968
85.692,77.9531,0.023968
85.723,77.9099,0.023968
85.753,77.8682,0.023968
85.786,77.8215,0.023968
85.816,77.7788,0.023968
85.847,77.7347,0.030979
85.878,77.6882,0.030979
85.909,77.6418,0.030979
85.940,77.5937,0.030979
85.972,77.5439,0.030979
86.003,77.4955,0.030979
86.033,77.4472,0.030979
86.063,77.3989,0.039194
86.095,77.3468,0.039194
86.125,77.2962,0.039194
86.157,77.2418,0.039194
86.187,77.1912,0.039194
86.218,77.1364,0.039194
86.249,77.0827,0.039194
86.283,77.0214,0.039194
86.311,76.9717,0.040954
86.344,76.9076,0.040954
86.373,76.8561,0.040954
86.401,76.8042,0.040954
86.435,76.7400,0.040954
86.468,76.6745,0.040954
86.496,76.6207,0.040954
86.529,76.5556,0.040954
86.558,76.5013,0.040954
86.590,76.4404,0.024156
86.621,76.3818,0.024156
86.652,76.3243,0.024156
86.685,76.2671,0.024156
86.717,76.2074,0.024156
86.746,76.1580,0.024156
86.777,76.1020,0.024156
86.808,76.0491,0.008930
86.839,75.9976,0.008930
86.870,75.9456,0.008930
86.902,75.8917,0.008930
86.932,75.8427,0.008930
86.963,75.7936,0.008930
86.993,75.7450,0.008930
87.024,75.6960,0.008930
87.055,75.6486,0.008930
87.087,75.6011,0.008168
87.117,75.5558,0.008168
87.148,75.5094,0.008168
87.179,75.4650,0.008168
87.210,75.4213,0.008168
87.241,75.3787,0.008168
87.273,75.3343,0.008168
87.303,75.2943,0.008168
87.334,75.2516,0.007782
87.365,75.2123,0.007782
87.396,75.1720,0.007782
87.428,75.1322,0.007782
87.462,75.0905,0.007782
87.487,75.0602,0.007782
87.521,75.0205,0.007782
87.552,74.9840,0.007782
87.583,74.9485,0.007519
87.614,74.9139,0.007519
87.645,74.8806,0.007519
87.676,74.8470,0.007519
87.707,74.8139,0.007519
87.738,74.7828,0.007519
87.771,74.7499,0.007519
87.802,74.7204,0.007302
87.833,74.6905,0.007302
87.863,74.6620,0.007302
87.896,74.6332,0.007302
87.925,74.6069,0.007302
87.959,74.5780,0.007302
87.988,74.5543,0.007302
88.018,74.5295,0.007302
88.049,74.5052,0.007246
88.081,74.4812,0.007246
88.112,74.4582,0.007246
88.143,74.4359,0.007246
88.175,74.4133,0.007246
88.207,74.3927,0.007246
88.238,74.3728,0.007246
88.269,74.3535,0.007246
88.300,74.3352,0.007161
88.331,74.3170,0.007161
88.363,74.2992,0.007161
88.393,74.2833,0.007161
88.424,74.2686,0.007161
88.454,74.2538,0.007161
88.486,74.2396,0.007161
88.517,74.2260,0.007161
88.548,74.2133,0.007161
88.581,74.2007,0.007030
88.611,74.1901,0.007030
88.642,74.1792,0.007030
88.673,74.1696,0.007030
88.704,74.1607,0.007030
88.735,74.1524,0.007030
88.767,74.1444,0.007030
88.796,74.1382,0.007030
88.828,74.1320,0.006964
88.858,74.1267,0.006964
88.888,74.1221,0.006964
88.919,74.1183,0.006964
88.951,74.1149,0.006964
88.981,74.1124,0.006964
89.012,74.1107,0.006964
89.043,74.1097,0.006964
89.073,74.1093,0.006870
89.105,74.1093,0.006870
89.137,74.1093,0.006870
89.167,74.1093,0.006870
89.198,74.1093,0.006870
89.229,74.1093,0.006870
89.261,74.1093,0.006870
89.292,74.1093,0.006832
89.323,74.1093,0.006832
89.353,74.1093,0.006832
89.385,74.1093,0.006832
89.415,74.1093,0.006832
89.446,74.1093,0.006832
89.477,74.1093,0.006832
89.508,74.1093,0.006832
89.540,74.1093,0.006832
89.570,74.1093,0.006832
89.601,74.1093,0.006766
89.632,74.1093,0.006766
89.663,74.1093,0.006766
89.694,74.1093,0.006766
89.726,74.1093,0.006766
89.757,74.1093,0.006766
89.787,74.1097,0.006766
89.818,74.1107,0.006719
89.849,74.1126,0.006719
89.880,74.1152,0.006719
89.911,74.1184,0.006719
89.942,74.1224,0.006719
89.973,74.1271,0.006719
90.004,74.1328,0.006719
90.036,74.1389,0.006719
90.066,74.1458,0.006625
90.098,74.1537,0.006625
90.129,74.1618,0.006625
90.159,74.1709,0.006625
90.190,74.1805,0.006625
90.221,74.1912,0.006625
90.252,74.2024,0.006625
90.283,74.2144,0.006625
90.314,74.2269,0.006456
90.345,74.2407,0.006456
90.376,74.2547,0.006456
90.408,74.2699,0.006456
90.439,74.2855,0.006456
90.470,74.3022,0.006456
90.502,74.3194,0.006456
90.532,74.3373,0.006456
90.563,74.3558,0.006408
90.594,74.3754,0.006408
90.625,74.3947,0.006408
90.656,74.4159,0.006408
90.687,74.4371,0.006408
90.718,74.4600,0.006408
90.749,74.4831,0.006408
90.781,74.5068,0.006408
90.812,74.5316,0.006324
90.843,74.5568,0.006324
90.874,74.5831,0.006324
90.906,74.6099,0.006324
90.937,74.6374,0.006324
90.968,74.6651,0.006324
91.000,74.6950,0.006324
91.032,74.7252,0.006324
91.062,74.7555,0.006211
91.093,74.7854,0.006211
91.124,74.8170,0.006211
91.154,74.8494,0.006211
91.185,74.8819,0.006211
91.217,74.9170,0.006211
91.247,74.9503,0.006211
91.278,74.9853,0.006211
91.309,75.0217,0.006145
91.340,75.0584,0.006145
91.371,75.0962,0.006145
91.402,75.1346,0.006145
91.433,75.1735,0.006145
91.465,75.2150,0.006145
91.496,75.2547,0.006145
91.529,75.2983,0.006145
91.559,75.3392,0.005994
91.591,75.3837,0.005994
91.623,75.4285,0.005994
91.655,75.4738,0.005994
91.686,75.5190,0.005994
91.717,75.5654,0.005994
91.748,75.6105,0.005994
91.780,75.6593,0.005994
91.810,75.7071,0.005797
91.841,75.7546,0.005797
91.873,75.8049,0.005797
91.904,75.8555,0.005797
91.935,75.9056,0.005797
91.966,75.9578,0.005797
91.996,76.0080,0.005797
92.028,76.0632,0.005797
92.059,76.1153,0.005797
92.090,76.1715,0.005543
92.120,76.2236,0.005543
92.151,76.2805,0.005543
92.182,76.3370,0.005543
92.213,76.3948,0.005543
92.244,76.4520,0.005543
92.275,76.5106,0.005543
92.308,76.5737,0.005232
92.338,76.6318,0.005232
92.369,76.6932,0.005232
92.401,76.7514,0.005232
92.432,76.8099,0.005232
92.462,76.8671,0.005232
92.493,76.9238,0.005232
92.525,76.9804,0.005232
92.556,77.0368,0.005232
92.587,77.0901,0.004969
92.617,77.1434,0.004969
92.648,77.1960,0.004969
92.678,77.2469,0.004969
92.709,77.2991,0.004969
92.740,77.3491,0.004969
92.771,77.4003,0.004969
92.802,77.4489,0.004969
92.833,77.4986,0.004969
92.865,77.5474,0.004620
92.895,77.5923,0.004620
92.926,77.6408,0.004620
92.957,77.6858,0.004620
92.987,77.7300,0.004620
93.018,77.7729,0.004620
93.048,77.8170,0.004620
93.079,77.8597,0.004122
93.115,77.9077,0.004122
93.142,77.9445,0.004122
93.173,77.9857,0.004122
93.204,78.0255,0.004122
93.234,78.0635,0.004122
93.266,78.1030,0.004122
93.297,78.1403,0.004122
93.328,78.1788,0.003407
93.359,78.2144,0.003407
93.390,78.2504,0.003407
93.421,78.2848,0.003407
93.455,78.3230,0.003407
93.482,78.3519,0.003407
93.513,78.3852,0.003407
93.543,78.4164,0.001920
93.576,78.4509,0.001920
93.606,78.4788,0.001920
93.637,78.5087,0.001920
93.668,78.5378,0.001920
93.699,78.5664,0.001920
93.729,78.5944,0.001920
93.760,78.6204,0.001920
93.791,78.6467,-0.001054
93.822,78.6723,-0.001054
93.853,78.6975,-0.001054
93.885,78.7218,-0.001054
93.916,78.7458,-0.001054
93.948,78.7690,-0.001054
93.978,78.7899,-0.001054
94.008,78.8104,-0.001054
94.040,78.8319,-0.001054
94.071,78.8512,-0.006361
94.102,78.8706,-0.006361
94.133,78.8891,-0.006361
94.165,78.9068,-0.006361
94.195,78.9236,-0.006361
94.227,78.9397,-0.006361
94.258,78.9551,-0.006361
94.289,78.9697,-0.006361
94.320,78.9836,-0.013956
94.352,78.9969,-0.013956
94.382,79.0091,-0.013956
94.414,79.0212,-0.013956
94.445,79.0320,-0.013956
94.475,79.0422,-0.013956
94.507,79.0517,-0.013956
94.537,79.0605,-0.013956
94.568,79.0684,-0.022114
94.599,79.0759,-0.022114
94.630,79.0824,-0.022114
94.661,79.0884,-0.022114
94.693,79.0936,-0.022114
94.725,79.0982,-0.022114
94.755,79.1018,-0.022114
94.786,79.1048,-0.022114
94.817,79.1070,-0.027874
94.848,79.1085,-0.027874
94.879,79.1092,-0.027874
94.910,79.1093,-0.027874
94.941,79.1093,-0.027874
94.972,79.1093,-0.027874
95.002,79.1093,-0.027874
95.033,79.1093,-0.027874
95.064,79.1093,-0.027874
95.095,79.1093,-0.028871
95.127,79.1093,-0.028871
95.158,79.1093,-0.028871
95.190,79.1093,-0.028871
95.222,79.1093,-0.028871
95.251,79.1093,-0.028871
95.284,79.1093,-0.028871
95.312,79.1093,-0.028871
95.344,79.1093,-0.026697
95.375,79.1093,-0.026697
95.406,79.1093,-0.026697
95.437,79.1093,-0.026697
95.467,79.1093,-0.026697
95.497,79.1093,-0.026697
95.528,79.1093,-0.026697
95.560,79.1093,-0.026697
95.590,79.1093,-0.024458
95.621,79.1093,-0.024458
95.651,79.1093,-0.024458
95.683,79.1093,-0.024458
95.715,79.1093,-0.024458
95.746,79.1093,-0.024458
95.777,79.1093,-0.024458
95.808,79.1093,-0.024458
95.840,79.1093,-0.022830
95.871,79.1093,-0.022830
95.901,79.1093,-0.022830
95.932,79.1093,-0.022830
95.970,79.1093,-0.022830
96.010,79.1093,-0.022830
96.041,79.1093,-0.022830
96.073,79.1093,-0.022830
96.103,79.1093,-0.021522
96.134,79.1093,-0.021522
96.165,79.1093,-0.021522
96.196,79.1093,-0.021522
96.228,79.1093,-0.021522
96.258,79.1093,-0.021522
96.290,79.1093,-0.021522
96.321,79.1093,-0.020524
96.352,79.1093,-0.020524
96.382,79.1093,-0.020524
96.413,79.1093,-0.020524
96.443,79.1093,-0.020524
96.476,79.1093,-0.020524
96.507,79.1093,-0.020524
96.538,79.1093,-0.019705
96.569,79.1093,-0.019705
96.600,79.1093,-0.019705
96.631,79.1093,-0.019705
96.662,79.1093,-0.019705
96.694,79.1093,-0.019705
96.725,79.1093,-0.019705
96.756,79.1093,-0.019705
96.787,79.1093,-0.019047
96.818,79.1093,-0.019047
96.848,79.1093,-0.019047
96.879,79.1093,-0.019047
96.910,79.1093,-0.019047
96.941,79.1093,-0.019047
96.973,79.1093,-0.019047
97.003,79.1093,-0.019047
97.034,79.1093,-0.019047
97.064,79.1093,-0.018416
97.095,79.1093,-0.018416
97.126,79.1093,-0.018416
97.158,79.1093,-0.018416
97.189,79.1093,-0.018416
97.220,79.1093,-0.018416
97.251,79.1093,-0.018416
97.281,79.1093,-0.018416
97.313,79.1093,-0.017804
97.344,79.1093,-0.017804
97.375,79.1093,-0.017804
97.406,79.1093,-0.017804
97.438,79.1093,-0.017804
97.470,79.1093,-0.017804
97.501,79.1093,-0.017804
97.532,79.1093,-0.017804
